Ethnicity,Subject Number,Preferred Hand,Age,Gender,Color blind,First Language,Room,TrialNumber,background,turtles,tortoises,target_id,resp,hit,rt,ran,order,block,iti,fix_duration
Asian,1,Right,18,Male,Yes,English,A,1,1,8,4,180,1,1,970.745,1,0,0,1.11634,0.823914
Asian,1,Right,18,Male,Yes,English,A,2,1,4,4,0,0,1,793.085,1,1,0,1.14734,0.962076
Asian,1,Right,18,Male,Yes,English,A,3,1,0,8,180,1,1,633.759,1,2,0,1.0706,0.832594
Asian,1,Right,18,Male,Yes,English,A,4,0,16,16,0,0,1,1212.03,1,3,0,1.07512,0.962416
Asian,1,Right,18,Male,Yes,English,A,5,0,4,8,0,0,1,1499.48,1,4,0,1.00103,0.916828
Asian,1,Right,18,Male,Yes,English,A,6,0,0,8,180,1,1,927.777,1,5,0,1.02804,0.848341
Asian,1,Right,18,Male,Yes,English,A,7,0,4,4,0,0,1,702.299,1,6,0,1.02043,0.949883
Asian,1,Right,18,Male,Yes,English,A,8,0,8,4,180,1,1,654.166,1,7,0,1.00337,0.913458
Asian,1,Right,18,Male,Yes,English,A,9,1,0,4,0,0,1,994.752,1,8,0,1.0922,0.961639
Asian,1,Right,18,Male,Yes,English,A,10,1,16,16,180,1,1,857.16,1,9,0,1.11559,0.859923
Asian,1,Right,18,Male,Yes,English,A,11,0,4,0,0,0,1,786.17,1,10,0,1.09281,0.861848
Asian,1,Right,18,Male,Yes,English,A,12,1,16,0,0,0,1,872.831,1,11,0,1.14373,0.940885
Asian,1,Right,18,Male,Yes,English,A,13,0,8,0,180,1,1,820.215,1,12,0,1.01382,0.984245
Asian,1,Right,18,Male,Yes,English,A,14,0,8,8,180,1,1,803.553,1,13,0,1.04572,0.91743
Asian,1,Right,18,Male,Yes,English,A,15,0,16,8,0,0,1,598.042,1,14,0,1.02204,0.850906
Asian,1,Right,18,Male,Yes,English,A,16,1,0,0,0,0,1,559.979,1,15,0,1.17964,0.962608
Asian,1,Right,18,Male,Yes,English,A,17,1,0,16,180,1,1,547.601,1,16,0,1.06782,0.922884
Asian,1,Right,18,Male,Yes,English,A,18,0,16,0,0,0,1,635.854,1,17,0,1.14113,0.942996
Asian,1,Right,18,Male,Yes,English,A,19,1,16,4,0,0,1,1020.38,1,18,0,1.03116,0.922821
Asian,1,Right,18,Male,Yes,English,A,20,0,4,16,180,1,1,1227.55,1,19,0,1.13609,0.943545
Asian,1,Right,18,Male,Yes,English,A,21,0,16,4,180,1,1,1135.12,1,20,0,1.18549,0.897025
Asian,1,Right,18,Male,Yes,English,A,22,0,8,16,180,1,1,809.953,1,21,0,1.1447,0.944581
Asian,1,Right,18,Male,Yes,English,A,23,1,8,16,0,0,1,703.708,1,22,0,1.13929,0.947839
Asian,1,Right,18,Male,Yes,English,A,24,0,0,4,180,1,1,697.041,1,23,0,1.17862,0.857975
Asian,1,Right,18,Male,Yes,English,A,25,1,8,0,0,0,1,718.273,1,24,0,1.10501,0.865224
Asian,1,Right,18,Male,Yes,English,A,26,1,8,8,0,0,1,630.26,1,25,0,1.07739,0.953206
Asian,1,Right,18,Male,Yes,English,A,27,1,4,8,180,1,1,743.34,1,26,0,1.03782,0.935347
Asian,1,Right,18,Male,Yes,English,A,28,0,0,0,0,0,1,685.898,1,27,0,1.12168,0.937585
Asian,1,Right,18,Male,Yes,English,A,29,1,4,0,180,1,1,593.583,1,28,0,1.07929,0.818762
Asian,1,Right,18,Male,Yes,English,A,30,1,16,8,180,1,1,593.125,1,29,0,1.15085,0.97752
Asian,1,Right,18,Male,Yes,English,A,31,1,4,16,180,1,1,1288.81,1,30,0,1.14823,0.874981
Asian,1,Right,18,Male,Yes,English,A,32,0,0,16,0,0,1,832.379,1,31,0,1.15692,0.832301
Asian,1,Right,18,Male,Yes,English,A,33,1,4,8,180,1,1,785.771,1,32,1,1.03883,0.816191
Asian,1,Right,18,Male,Yes,English,A,34,0,16,0,180,1,1,590.01,1,33,1,1.00312,0.956833
Asian,1,Right,18,Male,Yes,English,A,35,1,8,16,180,1,1,774.097,1,34,1,1.11143,0.833145
Asian,1,Right,18,Male,Yes,English,A,36,0,8,0,0,0,1,662.472,1,35,1,1.09801,0.96109
Asian,1,Right,18,Male,Yes,English,A,37,0,0,16,0,0,1,900.616,1,36,1,1.17771,0.882365
Asian,1,Right,18,Male,Yes,English,A,38,1,0,16,0,0,1,580.886,1,37,1,1.00641,0.872552
Asian,1,Right,18,Male,Yes,English,A,39,0,8,4,0,0,1,756.008,1,38,1,1.07539,0.805772
Asian,1,Right,18,Male,Yes,English,A,40,1,16,8,180,1,1,876.722,1,39,1,1.01697,0.917638
Asian,1,Right,18,Male,Yes,English,A,41,0,4,8,0,0,1,975.232,1,40,1,1.11336,0.820478
Asian,1,Right,18,Male,Yes,English,A,42,1,8,4,180,1,1,682.818,1,41,1,1.14129,0.873837
Asian,1,Right,18,Male,Yes,English,A,43,0,0,4,180,1,1,674.348,1,42,1,1.0431,0.833816
Asian,1,Right,18,Male,Yes,English,A,44,1,0,8,0,0,1,563.673,1,43,1,1.00013,0.935662
Asian,1,Right,18,Male,Yes,English,A,45,1,16,16,0,0,1,1435.34,1,44,1,1.00695,0.981309
Asian,1,Right,18,Male,Yes,English,A,46,0,8,8,180,1,1,893.029,1,45,1,1.04229,0.817095
Asian,1,Right,18,Male,Yes,English,A,47,0,16,4,180,1,1,666.062,1,46,1,1.02312,0.95337
Asian,1,Right,18,Male,Yes,English,A,48,0,4,16,180,1,1,544.128,1,47,1,1.13103,0.994174
Asian,1,Right,18,Male,Yes,English,A,49,1,8,0,0,0,1,1210.07,1,48,1,1.03101,0.905582
Asian,1,Right,18,Male,Yes,English,A,50,1,4,0,0,0,1,828.658,1,49,1,1.05613,0.826742
Asian,1,Right,18,Male,Yes,English,A,51,1,8,8,180,1,1,622.509,1,50,1,1.06459,0.997043
Asian,1,Right,18,Male,Yes,English,A,52,1,0,0,180,1,1,596.41,1,51,1,1.03023,0.900645
Asian,1,Right,18,Male,Yes,English,A,53,0,16,16,180,1,1,836.548,1,52,1,1.12464,0.957499
Asian,1,Right,18,Male,Yes,English,A,54,0,0,8,180,1,1,984.504,1,53,1,1.01347,0.922225
Asian,1,Right,18,Male,Yes,English,A,55,0,16,8,0,0,1,744.838,1,54,1,1.1188,0.989807
Asian,1,Right,18,Male,Yes,English,A,56,0,0,0,0,0,1,626.817,1,55,1,1.00771,0.918064
Asian,1,Right,18,Male,Yes,English,A,57,1,0,4,0,0,1,582.341,1,56,1,1.16308,0.88211
Asian,1,Right,18,Male,Yes,English,A,58,0,4,4,180,1,1,654.841,1,57,1,1.07571,0.807493
Asian,1,Right,18,Male,Yes,English,A,59,1,16,4,180,1,1,1004.5,1,58,1,1.11373,0.887275
Asian,1,Right,18,Male,Yes,English,A,60,0,8,16,0,0,1,834.303,1,59,1,1.09101,0.948742
Asian,1,Right,18,Male,Yes,English,A,61,1,4,4,0,0,1,709.414,1,60,1,1.06714,0.916157
Asian,1,Right,18,Male,Yes,English,A,62,0,4,0,180,1,1,505.771,1,61,1,1.14393,0.886657
Asian,1,Right,18,Male,Yes,English,A,63,1,4,16,0,0,1,680.277,1,62,1,1.02328,0.902269
Asian,1,Right,18,Male,Yes,English,A,64,1,16,0,0,0,1,582.789,1,63,1,1.10513,0.996917
Asian,1,Right,18,Male,Yes,English,A,65,0,4,16,0,0,1,858.979,1,64,2,1.01797,0.976197
Asian,1,Right,18,Male,Yes,English,A,66,1,0,0,0,0,1,611.168,1,65,2,1.0492,0.801429
Asian,1,Right,18,Male,Yes,English,A,67,0,16,8,180,1,1,1208.76,1,66,2,1.03945,0.824785
Asian,1,Right,18,Male,Yes,English,A,68,1,16,8,0,0,1,722.382,1,67,2,1.0539,0.961819
Asian,1,Right,18,Male,Yes,English,A,69,1,4,0,0,0,1,570.658,1,68,2,1.11155,0.979948
Asian,1,Right,18,Male,Yes,English,A,70,0,0,8,180,1,1,706.927,1,69,2,1.13611,0.870859
Asian,1,Right,18,Male,Yes,English,A,71,1,8,0,180,1,1,858.859,1,70,2,1.07027,0.936578
Asian,1,Right,18,Male,Yes,English,A,72,0,16,0,0,0,1,815.361,1,71,2,1.13974,0.968122
Asian,1,Right,18,Male,Yes,English,A,73,0,4,8,180,1,1,874.89,1,72,2,1.01396,0.813515
Asian,1,Right,18,Male,Yes,English,A,74,0,4,0,0,0,1,591.378,1,73,2,1.17202,0.828839
Asian,1,Right,18,Male,Yes,English,A,75,1,8,8,180,1,1,892.624,1,74,2,1.16485,0.834857
Asian,1,Right,18,Male,Yes,English,A,76,1,16,0,180,1,1,718.75,1,75,2,1.08819,0.92345
Asian,1,Right,18,Male,Yes,English,A,77,0,0,0,180,1,1,539.022,1,76,2,1.11269,0.944815
Asian,1,Right,18,Male,Yes,English,A,78,1,0,8,0,0,1,589.569,1,77,2,1.06733,0.863623
Asian,1,Right,18,Male,Yes,English,A,79,1,8,4,0,0,1,624.538,1,78,2,1.15558,0.881365
Asian,1,Right,18,Male,Yes,English,A,80,1,8,16,180,1,1,854.385,1,79,2,1.07328,0.833961
Asian,1,Right,18,Male,Yes,English,A,81,0,8,16,0,0,1,1027.39,1,80,2,1.00153,0.83769
Asian,1,Right,18,Male,Yes,English,A,82,0,8,8,180,1,1,1271.31,1,81,2,1.15178,0.954826
Asian,1,Right,18,Male,Yes,English,A,83,0,0,16,0,0,1,1014.93,1,82,2,1.17041,0.848479
Asian,1,Right,18,Male,Yes,English,A,84,0,8,0,180,1,1,808.264,1,83,2,1.03272,0.865234
Asian,1,Right,18,Male,Yes,English,A,85,1,4,16,180,1,1,642.153,1,84,2,1.18479,0.947387
Asian,1,Right,18,Male,Yes,English,A,86,1,4,4,0,0,1,851.255,1,85,2,1.16976,0.823501
Asian,1,Right,18,Male,Yes,English,A,87,0,16,16,180,1,1,858.028,1,86,2,1.02748,0.92953
Asian,1,Right,18,Male,Yes,English,A,88,0,0,4,180,1,1,629.469,1,87,2,1.14852,0.91788
Asian,1,Right,18,Male,Yes,English,A,89,0,16,4,180,1,1,850.978,1,88,2,1.18622,0.982364
Asian,1,Right,18,Male,Yes,English,A,90,0,4,4,180,1,1,753.829,1,89,2,1.08489,0.850446
Asian,1,Right,18,Male,Yes,English,A,91,1,16,4,0,0,1,748.121,1,90,2,1.17779,0.958277
Asian,1,Right,18,Male,Yes,English,A,92,1,0,4,0,0,1,518.318,1,91,2,1.00258,0.92175
Asian,1,Right,18,Male,Yes,English,A,93,0,8,4,0,0,1,754.382,1,92,2,1.1012,0.812984
Asian,1,Right,18,Male,Yes,English,A,94,1,16,16,180,1,1,846.723,1,93,2,1.18189,0.981148
Asian,1,Right,18,Male,Yes,English,A,95,1,0,16,0,1,0,406.733,1,94,2,1.03168,0.906223
Asian,1,Right,18,Male,Yes,English,A,96,1,4,8,0,0,1,535.131,1,95,2,1.15702,0.82556
Asian,1,Right,18,Male,Yes,English,A,97,0,8,8,180,1,1,840.178,1,96,3,1.0636,0.974792
Asian,1,Right,18,Male,Yes,English,A,98,0,8,16,0,0,1,787.484,1,97,3,1.00218,0.83432
Asian,1,Right,18,Male,Yes,English,A,99,0,4,16,0,0,1,757.515,1,98,3,1.10437,0.886805
Asian,1,Right,18,Male,Yes,English,A,100,0,4,0,0,0,1,562.707,1,99,3,1.14599,0.942269
Asian,1,Right,18,Male,Yes,English,A,101,0,8,0,180,1,1,779.396,1,100,3,1.06821,0.903517
Asian,1,Right,18,Male,Yes,English,A,102,1,16,0,0,0,1,861.741,1,101,3,1.16244,0.805593
Asian,1,Right,18,Male,Yes,English,A,103,1,16,8,180,1,1,1160.22,1,102,3,1.12943,0.925732
Asian,1,Right,18,Male,Yes,English,A,104,0,0,4,180,1,1,891.323,1,103,3,1.02625,0.959365
Asian,1,Right,18,Male,Yes,English,A,105,0,0,8,180,1,1,609.424,1,104,3,1.13356,0.980077
Asian,1,Right,18,Male,Yes,English,A,106,0,16,0,0,0,1,631.354,1,105,3,1.00887,0.882012
Asian,1,Right,18,Male,Yes,English,A,107,1,0,8,180,1,1,545.424,1,106,3,1.10597,0.962289
Asian,1,Right,18,Male,Yes,English,A,108,0,16,4,0,0,1,1033.5,1,107,3,1.03622,0.831226
Asian,1,Right,18,Male,Yes,English,A,109,0,4,4,180,1,1,1105.29,1,108,3,1.16586,0.896309
Asian,1,Right,18,Male,Yes,English,A,110,1,4,8,0,0,1,766.297,1,109,3,1.0961,0.806015
Asian,1,Right,18,Male,Yes,English,A,111,1,8,16,0,0,1,571.288,1,110,3,1.17692,0.855205
Asian,1,Right,18,Male,Yes,English,A,112,1,0,4,0,0,1,527.424,1,111,3,1.18243,0.892052
Asian,1,Right,18,Male,Yes,English,A,113,1,4,4,0,0,1,710.683,1,112,3,1.06667,0.832658
Asian,1,Right,18,Male,Yes,English,A,114,1,4,0,180,1,1,841.635,1,113,3,1.16722,0.969431
Asian,1,Right,18,Male,Yes,English,A,115,0,0,16,180,1,1,920.38,1,114,3,1.07953,0.957779
Asian,1,Right,18,Male,Yes,English,A,116,1,0,16,0,0,1,623.796,1,115,3,1.07503,0.803514
Asian,1,Right,18,Male,Yes,English,A,117,0,16,8,0,0,1,1404.51,1,116,3,1.1886,0.847835
Asian,1,Right,18,Male,Yes,English,A,118,1,0,0,180,1,1,602.493,1,117,3,1.0274,0.945762
Asian,1,Right,18,Male,Yes,English,A,119,0,8,4,180,1,1,1150.14,1,118,3,1.16357,0.984687
Asian,1,Right,18,Male,Yes,English,A,120,1,8,4,180,1,1,701.243,1,119,3,1.18178,0.982182
Asian,1,Right,18,Male,Yes,English,A,121,0,16,16,180,1,1,1024.77,1,120,3,1.06465,0.9714
Asian,1,Right,18,Male,Yes,English,A,122,0,0,0,0,0,1,704.343,1,121,3,1.01327,0.830656
Asian,1,Right,18,Male,Yes,English,A,123,1,16,4,180,1,1,693.259,1,122,3,1.04804,0.894384
Asian,1,Right,18,Male,Yes,English,A,124,0,4,8,0,0,1,928.525,1,123,3,1.02914,0.947497
Asian,1,Right,18,Male,Yes,English,A,125,1,8,8,180,1,1,722.899,1,124,3,1.18706,0.888688
Asian,1,Right,18,Male,Yes,English,A,126,1,16,16,0,0,1,744.249,1,125,3,1.1565,0.870074
Asian,1,Right,18,Male,Yes,English,A,127,1,4,16,180,1,1,598.607,1,126,3,1.19229,0.997615
Asian,1,Right,18,Male,Yes,English,A,128,1,8,0,0,0,1,544.561,1,127,3,1.14909,0.83727
Asian,1,Right,18,Male,Yes,English,A,129,1,0,8,0,0,1,835.94,1,128,4,1.01754,0.917693
Asian,1,Right,18,Male,Yes,English,A,130,0,4,8,180,1,1,816.821,1,129,4,1.1876,0.827146
Asian,1,Right,18,Male,Yes,English,A,131,0,8,4,0,0,1,765.84,1,130,4,1.14038,0.884395
Asian,1,Right,18,Male,Yes,English,A,132,0,4,0,0,0,1,778.366,1,131,4,1.15658,0.80699
Asian,1,Right,18,Male,Yes,English,A,133,0,8,8,180,1,1,770.533,1,132,4,1.18209,0.854112
Asian,1,Right,18,Male,Yes,English,A,134,0,0,8,180,1,1,644.434,1,133,4,1.04493,0.832658
Asian,1,Right,18,Male,Yes,English,A,135,1,16,0,180,1,1,705.55,1,134,4,1.04256,0.998682
Asian,1,Right,18,Male,Yes,English,A,136,1,0,16,0,0,1,573.471,1,135,4,1.19505,0.88187
Asian,1,Right,18,Male,Yes,English,A,137,0,4,4,0,0,1,520.381,1,136,4,1.14775,0.819862
Asian,1,Right,18,Male,Yes,English,A,138,1,0,0,180,1,1,691.302,1,137,4,1.19157,0.919377
Asian,1,Right,18,Male,Yes,English,A,139,0,16,0,0,0,1,854.149,1,138,4,1.18989,0.943587
Asian,1,Right,18,Male,Yes,English,A,140,1,16,16,0,0,1,627.7,1,139,4,1.00176,0.844494
Asian,1,Right,18,Male,Yes,English,A,141,1,8,8,0,0,1,800.737,1,140,4,1.07851,0.899829
Asian,1,Right,18,Male,Yes,English,A,142,0,16,16,180,1,1,1268.45,1,141,4,1.05335,0.830082
Asian,1,Right,18,Male,Yes,English,A,143,1,4,4,180,1,1,987.15,1,142,4,1.11462,0.894126
Asian,1,Right,18,Male,Yes,English,A,144,1,8,4,180,1,1,1153.62,1,143,4,1.03127,0.852938
Asian,1,Right,18,Male,Yes,English,A,145,0,8,0,0,0,1,816.94,1,144,4,1.06663,0.916816
Asian,1,Right,18,Male,Yes,English,A,146,1,8,0,180,1,1,773.055,1,145,4,1.05192,0.916813
Asian,1,Right,18,Male,Yes,English,A,147,1,16,8,0,0,1,900.694,1,146,4,1.09868,0.82704
Asian,1,Right,18,Male,Yes,English,A,148,0,0,4,0,0,1,822.935,1,147,4,1.0811,0.955122
Asian,1,Right,18,Male,Yes,English,A,149,0,0,0,180,1,1,650.295,1,148,4,1.06553,0.94418
Asian,1,Right,18,Male,Yes,English,A,150,1,8,16,180,1,1,677.972,1,149,4,1.1611,0.891056
Asian,1,Right,18,Male,Yes,English,A,151,0,8,16,180,1,1,950.865,1,150,4,1.15205,0.984701
Asian,1,Right,18,Male,Yes,English,A,152,0,16,4,0,0,1,952.353,1,151,4,1.00055,0.839883
Asian,1,Right,18,Male,Yes,English,A,153,0,0,16,180,1,1,531.029,1,152,4,1.10476,0.962545
Asian,1,Right,18,Male,Yes,English,A,154,1,0,4,0,0,1,575.644,1,153,4,1.11812,0.887191
Asian,1,Right,18,Male,Yes,English,A,155,0,16,8,0,0,1,719.485,1,154,4,1.14626,0.906745
Asian,1,Right,18,Male,Yes,English,A,156,1,4,8,0,0,1,587.617,1,155,4,1.14826,0.974213
Asian,1,Right,18,Male,Yes,English,A,157,0,4,16,180,1,1,773.161,1,156,4,1.12259,0.970426
Asian,1,Right,18,Male,Yes,English,A,158,1,4,16,180,1,1,551.291,1,157,4,1.11382,0.943539
Asian,1,Right,18,Male,Yes,English,A,159,1,16,4,180,1,1,644.058,1,158,4,1.08971,0.851728
Asian,1,Right,18,Male,Yes,English,A,160,1,4,0,0,0,1,794.576,1,159,4,1.16442,0.984613
Asian,1,Right,18,Male,Yes,English,A,161,1,0,8,180,1,1,582.284,1,160,5,1.02343,0.860114
Asian,1,Right,18,Male,Yes,English,A,162,1,4,4,0,0,1,774.208,1,161,5,1.00312,0.825718
Asian,1,Right,18,Male,Yes,English,A,163,1,16,0,0,0,1,898.915,1,162,5,1.09854,0.936008
Asian,1,Right,18,Male,Yes,English,A,164,1,16,4,0,0,1,1271.94,1,163,5,1.05991,0.883745
Asian,1,Right,18,Male,Yes,English,A,165,1,4,0,180,1,1,507.851,1,164,5,1.00327,0.897926
Asian,1,Right,18,Male,Yes,English,A,166,1,4,16,0,0,1,556.089,1,165,5,1.10204,0.825033
Asian,1,Right,18,Male,Yes,English,A,167,1,0,4,0,0,1,409.401,1,166,5,1.04595,0.845504
Asian,1,Right,18,Male,Yes,English,A,168,1,8,8,180,1,1,714.1,1,167,5,1.00238,0.912429
Asian,1,Right,18,Male,Yes,English,A,169,0,4,4,0,0,1,1243.72,1,168,5,1.11468,0.801365
Asian,1,Right,18,Male,Yes,English,A,170,0,8,4,180,1,1,821.17,1,169,5,1.16368,0.957222
Asian,1,Right,18,Male,Yes,English,A,171,0,8,16,180,1,1,630.7,1,170,5,1.11501,0.910439
Asian,1,Right,18,Male,Yes,English,A,172,0,16,16,180,1,1,1162.16,1,171,5,1.14188,0.956379
Asian,1,Right,18,Male,Yes,English,A,173,1,0,0,180,1,1,511.243,1,172,5,1.1988,0.831794
Asian,1,Right,18,Male,Yes,English,A,174,0,4,8,0,0,1,707.86,1,173,5,1.15946,0.957519
Asian,1,Right,18,Male,Yes,English,A,175,0,8,8,180,1,1,628.183,1,174,5,1.09246,0.836417
Asian,1,Right,18,Male,Yes,English,A,176,0,0,16,0,0,1,851.284,1,175,5,1.0999,0.921187
Asian,1,Right,18,Male,Yes,English,A,177,1,16,8,0,0,1,1054.45,1,176,5,1.1321,0.826181
Asian,1,Right,18,Male,Yes,English,A,178,0,4,0,180,1,1,534.251,1,177,5,1.08491,0.897059
Asian,1,Right,18,Male,Yes,English,A,179,0,4,16,180,1,1,956.992,1,178,5,1.16857,0.95067
Asian,1,Right,18,Male,Yes,English,A,180,0,16,8,180,1,1,682.752,1,179,5,1.15188,0.979776
Asian,1,Right,18,Male,Yes,English,A,181,1,4,8,180,1,1,664.501,1,180,5,1.00961,0.891984
Asian,1,Right,18,Male,Yes,English,A,182,0,16,0,180,1,1,493.343,1,181,5,1.14294,0.955594
Asian,1,Right,18,Male,Yes,English,A,183,0,8,0,180,1,1,518.915,1,182,5,1.06598,0.868788
Asian,1,Right,18,Male,Yes,English,A,184,1,16,16,0,0,1,854.672,1,183,5,1.03346,0.924893
Asian,1,Right,18,Male,Yes,English,A,185,0,16,4,0,0,1,983.312,1,184,5,1.0318,0.984541
Asian,1,Right,18,Male,Yes,English,A,186,0,0,8,0,0,1,634.221,1,185,5,1.19937,0.973314
Asian,1,Right,18,Male,Yes,English,A,187,1,8,16,0,0,1,812.768,1,186,5,1.0918,0.854142
Asian,1,Right,18,Male,Yes,English,A,188,0,0,0,180,1,1,602.965,1,187,5,1.17942,0.90218
Asian,1,Right,18,Male,Yes,English,A,189,1,0,16,0,0,1,545.073,1,188,5,1.12716,0.906727
Asian,1,Right,18,Male,Yes,English,A,190,1,8,4,0,0,1,639.12,1,189,5,1.05053,0.925235
Asian,1,Right,18,Male,Yes,English,A,191,1,8,0,180,1,1,751.583,1,190,5,1.19687,0.961132
Asian,1,Right,18,Male,Yes,English,A,192,0,0,4,0,0,1,563.995,1,191,5,1.18288,0.862908
Asian,1,Right,18,Male,Yes,English,A,193,1,4,8,0,0,1,1033.89,1,192,6,1.06386,0.983568
Asian,1,Right,18,Male,Yes,English,A,194,1,0,4,180,1,1,506,1,193,6,1.01669,0.945639
Asian,1,Right,18,Male,Yes,English,A,195,0,8,0,180,1,1,750.525,1,194,6,1.01631,0.839706
Asian,1,Right,18,Male,Yes,English,A,196,1,8,4,0,0,1,794.227,1,195,6,1.01674,0.952119
Asian,1,Right,18,Male,Yes,English,A,197,0,16,0,180,1,1,1026.62,1,196,6,1.10046,0.846711
Asian,1,Right,18,Male,Yes,English,A,198,0,4,16,0,1,0,513.775,1,197,6,1.15418,0.865091
Asian,1,Right,18,Male,Yes,English,A,199,1,16,8,180,1,1,936.492,1,198,6,1.19232,0.882564
Asian,1,Right,18,Male,Yes,English,A,200,1,4,4,0,0,1,1030.88,1,199,6,1.08528,0.931526
Asian,1,Right,18,Male,Yes,English,A,201,1,0,8,180,1,1,635.727,1,200,6,1.02321,0.964714
Asian,1,Right,18,Male,Yes,English,A,202,1,16,0,180,1,1,1010.39,1,201,6,1.11242,0.904872
Asian,1,Right,18,Male,Yes,English,A,203,1,0,16,180,1,1,571.885,1,202,6,1.0802,0.987177
Asian,1,Right,18,Male,Yes,English,A,204,0,0,16,0,0,1,881.649,1,203,6,1.10816,0.925126
Asian,1,Right,18,Male,Yes,English,A,205,0,0,8,180,1,1,932.736,1,204,6,1.14851,0.898289
Asian,1,Right,18,Male,Yes,English,A,206,0,4,4,0,0,1,631.254,1,205,6,1.08928,0.984594
Asian,1,Right,18,Male,Yes,English,A,207,1,8,0,0,0,1,687.747,1,206,6,1.04728,0.843407
Asian,1,Right,18,Male,Yes,English,A,208,1,4,0,180,1,1,633.289,1,207,6,1.06896,0.977672
Asian,1,Right,18,Male,Yes,English,A,209,0,16,4,180,1,1,752.113,1,208,6,1.05881,0.922276
Asian,1,Right,18,Male,Yes,English,A,210,0,8,8,180,1,1,627.626,1,209,6,1.19976,0.835483
Asian,1,Right,18,Male,Yes,English,A,211,0,4,0,0,0,1,761.377,1,210,6,1.03162,0.843003
Asian,1,Right,18,Male,Yes,English,A,212,0,0,0,0,0,1,699.511,1,211,6,1.05475,0.819318
Asian,1,Right,18,Male,Yes,English,A,213,1,8,8,180,1,1,596.444,1,212,6,1.11155,0.930018
Asian,1,Right,18,Male,Yes,English,A,214,0,16,8,0,0,1,1050.02,1,213,6,1.18173,0.897654
Asian,1,Right,18,Male,Yes,English,A,215,1,0,0,180,1,1,565.349,1,214,6,1.00256,0.826
Asian,1,Right,18,Male,Yes,English,A,216,0,8,16,0,0,1,985.776,1,215,6,1.19054,0.816569
Asian,1,Right,18,Male,Yes,English,A,217,1,4,16,0,0,1,497.789,1,216,6,1.16395,0.869213
Asian,1,Right,18,Male,Yes,English,A,218,0,4,8,180,1,1,993.667,1,217,6,1.05313,0.907643
Asian,1,Right,18,Male,Yes,English,A,219,1,16,16,180,1,1,754.145,1,218,6,1.12941,0.952626
Asian,1,Right,18,Male,Yes,English,A,220,0,16,16,0,0,1,734.319,1,219,6,1.09264,0.933655
Asian,1,Right,18,Male,Yes,English,A,221,1,16,4,0,0,1,992.999,1,220,6,1.04083,0.839334
Asian,1,Right,18,Male,Yes,English,A,222,0,8,4,0,0,1,724.968,1,221,6,1.02279,0.952496
Asian,1,Right,18,Male,Yes,English,A,223,0,0,4,180,1,1,1267.91,1,222,6,1.0864,0.845307
Asian,1,Right,18,Male,Yes,English,A,224,1,8,16,0,0,1,716.56,1,223,6,1.12368,0.835984
Asian,1,Right,18,Male,Yes,English,A,225,1,8,8,180,1,1,503.623,1,224,7,1.18384,0.995406
Asian,1,Right,18,Male,Yes,English,A,226,0,4,16,0,0,1,742.223,1,225,7,1.08178,0.976841
Asian,1,Right,18,Male,Yes,English,A,227,1,16,16,180,1,1,895.412,1,226,7,1.19963,0.895437
Asian,1,Right,18,Male,Yes,English,A,228,0,16,8,0,0,1,667.555,1,227,7,1.1178,0.972509
Asian,1,Right,18,Male,Yes,English,A,229,0,8,0,180,1,1,611.793,1,228,7,1.10143,0.812768
Asian,1,Right,18,Male,Yes,English,A,230,1,8,0,180,1,1,581.783,1,229,7,1.10375,0.826624
Asian,1,Right,18,Male,Yes,English,A,231,0,16,16,0,0,1,1027.76,1,230,7,1.17812,0.987086
Asian,1,Right,18,Male,Yes,English,A,232,1,8,16,180,1,1,807.151,1,231,7,1.19051,0.832053
Asian,1,Right,18,Male,Yes,English,A,233,1,0,4,0,0,1,739.427,1,232,7,1.01163,0.911743
Asian,1,Right,18,Male,Yes,English,A,234,0,0,4,180,1,1,691.272,1,233,7,1.18299,0.92341
Asian,1,Right,18,Male,Yes,English,A,235,0,16,0,180,1,1,672.25,1,234,7,1.19539,0.867424
Asian,1,Right,18,Male,Yes,English,A,236,1,4,4,0,0,1,843.115,1,235,7,1.16134,0.861392
Asian,1,Right,18,Male,Yes,English,A,237,1,16,4,0,0,1,481.861,1,236,7,1.05242,0.878036
Asian,1,Right,18,Male,Yes,English,A,238,1,8,4,0,0,1,650.804,1,237,7,1.13613,0.84328
Asian,1,Right,18,Male,Yes,English,A,239,0,4,0,180,1,1,846.901,1,238,7,1.04362,0.9072
Asian,1,Right,18,Male,Yes,English,A,240,0,0,8,180,1,1,589.915,1,239,7,1.11312,0.947557
Asian,1,Right,18,Male,Yes,English,A,241,1,0,8,0,0,1,717.253,1,240,7,1.07264,0.896368
Asian,1,Right,18,Male,Yes,English,A,242,1,16,0,0,0,1,1133.67,1,241,7,1.15168,0.96008
Asian,1,Right,18,Male,Yes,English,A,243,0,8,4,0,0,1,744.137,1,242,7,1.01837,0.828063
Asian,1,Right,18,Male,Yes,English,A,244,1,4,0,0,0,1,537.321,1,243,7,1.03952,0.887758
Asian,1,Right,18,Male,Yes,English,A,245,0,0,16,180,1,1,738.298,1,244,7,1.00948,0.811438
Asian,1,Right,18,Male,Yes,English,A,246,1,16,8,180,1,1,867.279,1,245,7,1.03381,0.979165
Asian,1,Right,18,Male,Yes,English,A,247,0,0,0,0,0,1,628.596,1,246,7,1.01906,0.962814
Asian,1,Right,18,Male,Yes,English,A,248,1,4,16,0,0,1,778.076,1,247,7,1.02238,0.908615
Asian,1,Right,18,Male,Yes,English,A,249,0,16,4,180,1,1,708.878,1,248,7,1.09204,0.906753
Asian,1,Right,18,Male,Yes,English,A,250,1,4,8,180,1,1,935.131,1,249,7,1.14909,0.899908
Asian,1,Right,18,Male,Yes,English,A,251,0,4,4,0,0,1,627.547,1,250,7,1.01095,0.976989
Asian,1,Right,18,Male,Yes,English,A,252,0,8,16,180,1,1,631.624,1,251,7,1.03649,0.991815
Asian,1,Right,18,Male,Yes,English,A,253,0,8,8,0,0,1,1091.35,1,252,7,1.18112,0.904187
Asian,1,Right,18,Male,Yes,English,A,254,1,0,0,180,1,1,586.071,1,253,7,1.04524,0.903575
Asian,1,Right,18,Male,Yes,English,A,255,0,4,8,180,1,1,901.58,1,254,7,1.01158,0.97709
Asian,1,Right,18,Male,Yes,English,A,256,1,0,16,0,0,1,722.167,1,255,7,1.09619,0.857681
Asian,1,Right,18,Male,Yes,English,A,257,0,0,8,0,0,1,981.15,1,256,8,1.0966,0.963574
Asian,1,Right,18,Male,Yes,English,A,258,0,16,0,180,1,1,1440.49,1,257,8,1.04075,0.975954
Asian,1,Right,18,Male,Yes,English,A,259,0,0,4,0,0,1,832.314,1,258,8,1.16156,0.851322
Asian,1,Right,18,Male,Yes,English,A,260,0,8,0,0,0,1,694.13,1,259,8,1.09011,0.84465
Asian,1,Right,18,Male,Yes,English,A,261,1,16,4,180,1,1,722.421,1,260,8,1.18954,0.912715
Asian,1,Right,18,Male,Yes,English,A,262,1,0,16,0,0,1,794.369,1,261,8,1.14194,0.861242
Asian,1,Right,18,Male,Yes,English,A,263,0,4,8,180,1,1,778.17,1,262,8,1.14024,0.938255
Asian,1,Right,18,Male,Yes,English,A,264,1,8,0,180,1,1,632.123,1,263,8,1.09052,0.854023
Asian,1,Right,18,Male,Yes,English,A,265,0,16,8,180,1,1,1068.82,1,264,8,1.09508,0.881744
Asian,1,Right,18,Male,Yes,English,A,266,1,16,8,180,1,1,653.411,1,265,8,1.04952,0.875148
Asian,1,Right,18,Male,Yes,English,A,267,0,8,8,0,0,1,801.96,1,266,8,1.0132,0.807213
Asian,1,Right,18,Male,Yes,English,A,268,0,4,0,180,1,1,621.474,1,267,8,1.16522,0.890716
Asian,1,Right,18,Male,Yes,English,A,269,1,4,0,180,1,1,607.472,1,268,8,1.15357,0.938233
Asian,1,Right,18,Male,Yes,English,A,270,1,4,4,0,0,1,1000.84,1,269,8,1.06239,0.89278
Asian,1,Right,18,Male,Yes,English,A,271,0,16,4,180,1,1,2123.55,1,270,8,1.13927,0.906055
Asian,1,Right,18,Male,Yes,English,A,272,1,16,0,180,1,1,1195.97,1,271,8,1.17068,0.944256
Asian,1,Right,18,Male,Yes,English,A,273,0,8,16,180,1,1,797.984,1,272,8,1.14054,0.956403
Asian,1,Right,18,Male,Yes,English,A,274,1,16,16,0,0,1,755.363,1,273,8,1.15062,0.839864
Asian,1,Right,18,Male,Yes,English,A,275,1,8,8,0,0,1,639.78,1,274,8,1.16111,0.903041
Asian,1,Right,18,Male,Yes,English,A,276,1,8,16,0,0,1,665.97,1,275,8,1.16751,0.982454
Asian,1,Right,18,Male,Yes,English,A,277,0,4,4,0,0,1,1155.96,1,276,8,1.14981,0.904472
Asian,1,Right,18,Male,Yes,English,A,278,1,0,8,180,1,1,907.848,1,277,8,1.07167,0.981642
Asian,1,Right,18,Male,Yes,English,A,279,0,8,4,180,1,1,924.579,1,278,8,1.05539,0.940871
Asian,1,Right,18,Male,Yes,English,A,280,1,0,0,0,0,1,692.327,1,279,8,1.199,0.9578
Asian,1,Right,18,Male,Yes,English,A,281,1,0,4,180,1,1,540.847,1,280,8,1.02338,0.857573
Asian,1,Right,18,Male,Yes,English,A,282,0,0,0,0,0,1,847.42,1,281,8,1.02505,0.89648
Asian,1,Right,18,Male,Yes,English,A,283,1,4,8,180,1,1,692.12,1,282,8,1.16644,0.88926
Asian,1,Right,18,Male,Yes,English,A,284,0,4,16,180,1,1,754.614,1,283,8,1.13427,0.883309
Asian,1,Right,18,Male,Yes,English,A,285,1,8,4,0,0,1,741.838,1,284,8,1.04804,0.908253
Asian,1,Right,18,Male,Yes,English,A,286,0,16,16,0,0,1,969.594,1,285,8,1.10515,0.864138
Asian,1,Right,18,Male,Yes,English,A,287,1,4,16,0,0,1,556.53,1,286,8,1.03411,0.948079
Asian,1,Right,18,Male,Yes,English,A,288,0,0,16,0,0,1,726.288,1,287,8,1.09844,0.928987
Asian,1,Right,18,Male,Yes,English,A,289,1,16,8,0,0,1,2159.96,1,288,9,1.05563,0.973279
Asian,1,Right,18,Male,Yes,English,A,290,0,16,4,0,0,1,1751.03,1,289,9,1.1073,0.876657
Asian,1,Right,18,Male,Yes,English,A,291,0,0,16,0,0,1,564.504,1,290,9,1.09377,0.941952
Asian,1,Right,18,Male,Yes,English,A,292,1,16,0,180,1,1,663.966,1,291,9,1.00428,0.89441
Asian,1,Right,18,Male,Yes,English,A,293,0,8,8,180,1,1,831.388,1,292,9,1.09466,0.888493
Asian,1,Right,18,Male,Yes,English,A,294,1,0,0,0,0,1,707.245,1,293,9,1.12173,0.961899
Asian,1,Right,18,Male,Yes,English,A,295,0,8,0,180,1,1,1277.37,1,294,9,1.10513,0.96187
Asian,1,Right,18,Male,Yes,English,A,296,1,16,4,180,1,1,1149.97,1,295,9,1.13493,0.882122
Asian,1,Right,18,Male,Yes,English,A,297,1,4,16,0,0,1,597.09,1,296,9,1.06902,0.963454
Asian,1,Right,18,Male,Yes,English,A,298,1,8,8,180,1,1,835.891,1,297,9,1.13933,0.861625
Asian,1,Right,18,Male,Yes,English,A,299,0,0,4,180,1,1,723.484,1,298,9,1.09337,0.899722
Asian,1,Right,18,Male,Yes,English,A,300,1,4,4,180,1,1,1013.03,1,299,9,1.13271,0.944998
Asian,1,Right,18,Male,Yes,English,A,301,0,8,4,180,1,1,960.048,1,300,9,1.18028,0.984097
Asian,1,Right,18,Male,Yes,English,A,302,1,0,8,0,0,1,652.616,1,301,9,1.03751,0.877571
Asian,1,Right,18,Male,Yes,English,A,303,0,0,8,0,0,1,697.031,1,302,9,1.1474,0.914582
Asian,1,Right,18,Male,Yes,English,A,304,1,4,0,180,1,1,851.89,1,303,9,1.1403,0.847277
Asian,1,Right,18,Male,Yes,English,A,305,0,4,16,0,0,1,864.736,1,304,9,1.18826,0.816319
Asian,1,Right,18,Male,Yes,English,A,306,0,4,0,0,0,1,745.964,1,305,9,1.00809,0.946452
Asian,1,Right,18,Male,Yes,English,A,307,1,8,0,0,0,1,817.864,1,306,9,1.01487,0.831883
Asian,1,Right,18,Male,Yes,English,A,308,0,16,0,180,1,1,758.831,1,307,9,1.19148,0.949817
Asian,1,Right,18,Male,Yes,English,A,309,1,8,4,180,1,1,775.582,1,308,9,1.00998,0.825471
Asian,1,Right,18,Male,Yes,English,A,310,1,8,16,0,0,1,740.045,1,309,9,1.0504,0.915151
Asian,1,Right,18,Male,Yes,English,A,311,0,16,8,0,0,1,1277.48,1,310,9,1.0752,0.947439
Asian,1,Right,18,Male,Yes,English,A,312,0,4,8,0,0,1,1127.55,1,311,9,1.15924,0.985432
Asian,1,Right,18,Male,Yes,English,A,313,1,0,4,180,1,1,545.814,1,312,9,1.09391,0.810896
Asian,1,Right,18,Male,Yes,English,A,314,1,0,16,180,1,1,589.663,1,313,9,1.11088,0.828772
Asian,1,Right,18,Male,Yes,English,A,315,0,0,0,180,1,1,544.179,1,314,9,1.01972,0.814751
Asian,1,Right,18,Male,Yes,English,A,316,0,4,4,180,1,1,503.498,1,315,9,1.19534,0.993212
Asian,1,Right,18,Male,Yes,English,A,317,0,8,16,0,0,1,834.907,1,316,9,1.12206,0.840748
Asian,1,Right,18,Male,Yes,English,A,318,1,16,16,0,0,1,679.495,1,317,9,1.18784,0.838419
Asian,1,Right,18,Male,Yes,English,A,319,0,16,16,180,1,1,1012.69,1,318,9,1.00459,0.908381
Asian,1,Right,18,Male,Yes,English,A,320,1,4,8,0,0,1,950.537,1,319,9,1.02186,0.851668
Asian,1,Right,18,Male,Yes,English,A,321,0,4,4,180,1,1,757.556,1,320,10,1.07581,0.964117
Asian,1,Right,18,Male,Yes,English,A,322,0,16,0,180,1,1,727.146,1,321,10,1.07003,0.832893
Asian,1,Right,18,Male,Yes,English,A,323,1,4,16,180,1,1,692.005,1,322,10,1.08891,0.868874
Asian,1,Right,18,Male,Yes,English,A,324,1,16,4,180,1,1,570.99,1,323,10,1.03686,0.947056
Asian,1,Right,18,Male,Yes,English,A,325,1,0,16,180,1,1,551.979,1,324,10,1.11391,0.924531
Asian,1,Right,18,Male,Yes,English,A,326,0,8,8,180,1,1,933.058,1,325,10,1.13443,0.819481
Asian,1,Right,18,Male,Yes,English,A,327,1,8,0,0,0,1,548.933,1,326,10,1.02523,0.81513
Asian,1,Right,18,Male,Yes,English,A,328,0,8,4,0,0,1,1008.58,1,327,10,1.01345,0.848889
Asian,1,Right,18,Male,Yes,English,A,329,0,0,0,180,1,1,535.679,1,328,10,1.17116,0.822863
Asian,1,Right,18,Male,Yes,English,A,330,0,16,4,180,1,1,968.543,1,329,10,1.06398,0.920471
Asian,1,Right,18,Male,Yes,English,A,331,1,8,8,180,1,1,705.841,1,330,10,1.15381,0.919243
Asian,1,Right,18,Male,Yes,English,A,332,1,4,8,0,0,1,711.913,1,331,10,1.06006,0.825673
Asian,1,Right,18,Male,Yes,English,A,333,0,0,16,0,0,1,665.555,1,332,10,1.05717,0.993502
Asian,1,Right,18,Male,Yes,English,A,334,1,4,0,0,0,1,515.387,1,333,10,1.0932,0.958458
Asian,1,Right,18,Male,Yes,English,A,335,0,16,16,0,0,1,1010.03,1,334,10,1.14644,0.931975
Asian,1,Right,18,Male,Yes,English,A,336,1,8,4,180,1,1,846.68,1,335,10,1.11846,0.903625
Asian,1,Right,18,Male,Yes,English,A,337,0,16,8,0,0,1,1128.4,1,336,10,1.0762,0.977593
Asian,1,Right,18,Male,Yes,English,A,338,1,0,0,180,1,1,485.142,1,337,10,1.15863,0.918233
Asian,1,Right,18,Male,Yes,English,A,339,0,8,0,180,1,1,635.228,1,338,10,1.16287,0.847777
Asian,1,Right,18,Male,Yes,English,A,340,0,8,16,180,1,1,725.467,1,339,10,1.03455,0.932594
Asian,1,Right,18,Male,Yes,English,A,341,1,16,0,0,0,1,721.959,1,340,10,1.00157,0.860068
Asian,1,Right,18,Male,Yes,English,A,342,1,0,4,0,0,1,500.607,1,341,10,1.11374,0.853955
Asian,1,Right,18,Male,Yes,English,A,343,1,0,8,0,0,1,498.771,1,342,10,1.08884,0.982344
Asian,1,Right,18,Male,Yes,English,A,344,1,16,16,180,1,1,450.53,1,343,10,1.16493,0.869967
Asian,1,Right,18,Male,Yes,English,A,345,0,4,16,180,1,1,1202.98,1,344,10,1.11322,0.980701
Asian,1,Right,18,Male,Yes,English,A,346,1,8,16,0,0,1,702.293,1,345,10,1.06635,0.972647
Asian,1,Right,18,Male,Yes,English,A,347,0,0,8,0,0,1,697.368,1,346,10,1.01036,0.926703
Asian,1,Right,18,Male,Yes,English,A,348,1,16,8,0,0,1,564.803,1,347,10,1.08335,0.886548
Asian,1,Right,18,Male,Yes,English,A,349,0,4,0,180,1,1,591.415,1,348,10,1.17022,0.967838
Asian,1,Right,18,Male,Yes,English,A,350,0,4,8,0,0,1,527.121,1,349,10,1.15782,0.805235
Asian,1,Right,18,Male,Yes,English,A,351,0,0,4,0,0,1,640.67,1,350,10,1.15078,0.826384
Asian,1,Right,18,Male,Yes,English,A,352,1,4,4,0,0,1,1111.56,1,351,10,1.12224,0.896324
Asian,1,Right,18,Male,Yes,English,A,353,0,16,8,0,0,1,1456.91,1,352,11,1.1944,0.953025
Asian,1,Right,18,Male,Yes,English,A,354,0,4,16,180,1,1,900.578,1,353,11,1.0074,0.906494
Asian,1,Right,18,Male,Yes,English,A,355,1,16,8,180,1,1,470.722,1,354,11,1.03568,0.811501
Asian,1,Right,18,Male,Yes,English,A,356,0,16,16,180,1,1,786.282,1,355,11,1.01629,0.839293
Asian,1,Right,18,Male,Yes,English,A,357,1,8,4,0,0,1,800.109,1,356,11,1.03665,0.915343
Asian,1,Right,18,Male,Yes,English,A,358,1,8,16,0,0,1,629.791,1,357,11,1.10647,0.961506
Asian,1,Right,18,Male,Yes,English,A,359,0,4,0,0,0,1,695.087,1,358,11,1.09116,0.961056
Asian,1,Right,18,Male,Yes,English,A,360,0,4,4,180,1,1,752.885,1,359,11,1.03304,0.88937
Asian,1,Right,18,Male,Yes,English,A,361,0,16,4,0,0,1,853.538,1,360,11,1.02098,0.826612
Asian,1,Right,18,Male,Yes,English,A,362,0,8,0,180,1,1,705.362,1,361,11,1.14763,0.805532
Asian,1,Right,18,Male,Yes,English,A,363,0,0,0,180,1,1,561.418,1,362,11,1.12345,0.835631
Asian,1,Right,18,Male,Yes,English,A,364,1,16,4,180,1,1,829.976,1,363,11,1.05768,0.800888
Asian,1,Right,18,Male,Yes,English,A,365,0,8,4,180,1,1,529.064,1,364,11,1.05939,0.984427
Asian,1,Right,18,Male,Yes,English,A,366,1,16,16,180,1,1,566.336,1,365,11,1.04617,0.88359
Asian,1,Right,18,Male,Yes,English,A,367,0,8,16,180,1,1,712.716,1,366,11,1.12359,0.82185
Asian,1,Right,18,Male,Yes,English,A,368,1,4,0,0,0,1,621.773,1,367,11,1.08289,0.857926
Asian,1,Right,18,Male,Yes,English,A,369,1,0,16,180,1,1,548.963,1,368,11,1.02014,0.874568
Asian,1,Right,18,Male,Yes,English,A,370,0,0,16,0,0,1,802.314,1,369,11,1.09582,0.886202
Asian,1,Right,18,Male,Yes,English,A,371,1,0,0,0,0,1,555.938,1,370,11,1.0889,0.9672
Asian,1,Right,18,Male,Yes,English,A,372,0,4,8,180,1,1,621.945,1,371,11,1.05935,0.94309
Asian,1,Right,18,Male,Yes,English,A,373,1,0,4,0,0,1,772.529,1,372,11,1.02931,0.932261
Asian,1,Right,18,Male,Yes,English,A,374,0,0,8,180,1,1,715.678,1,373,11,1.01669,0.850761
Asian,1,Right,18,Male,Yes,English,A,375,1,8,8,0,0,1,835.636,1,374,11,1.19378,0.992618
Asian,1,Right,18,Male,Yes,English,A,376,1,4,8,0,0,1,701.458,1,375,11,1.01628,0.897616
Asian,1,Right,18,Male,Yes,English,A,377,1,0,8,0,0,1,848.358,1,376,11,1.12064,0.922359
Asian,1,Right,18,Male,Yes,English,A,378,0,16,0,0,0,1,935.98,1,377,11,1.0293,0.994725
Asian,1,Right,18,Male,Yes,English,A,379,1,8,0,0,0,1,575.038,1,378,11,1.11749,0.976669
Asian,1,Right,18,Male,Yes,English,A,380,1,4,4,0,0,1,514.51,1,379,11,1.05331,0.85974
Asian,1,Right,18,Male,Yes,English,A,381,0,8,8,0,0,1,633.591,1,380,11,1.10516,0.929623
Asian,1,Right,18,Male,Yes,English,A,382,1,16,0,180,1,1,655.072,1,381,11,1.19842,0.961403
Asian,1,Right,18,Male,Yes,English,A,383,0,0,4,180,1,1,684.663,1,382,11,1.18309,0.826273
Asian,1,Right,18,Male,Yes,English,A,384,1,4,16,180,1,1,1027.51,1,383,11,1.14006,0.806843
Asian,1,Right,18,Male,Yes,English,A,385,0,0,8,180,1,1,674.028,1,384,12,1.18277,0.875211
Asian,1,Right,18,Male,Yes,English,A,386,1,4,8,0,0,1,842.613,1,385,12,1.0428,0.963739
Asian,1,Right,18,Male,Yes,English,A,387,1,16,16,180,1,1,544.459,1,386,12,1.16117,0.927724
Asian,1,Right,18,Male,Yes,English,A,388,0,8,4,0,0,1,854.661,1,387,12,1.11496,0.936162
Asian,1,Right,18,Male,Yes,English,A,389,0,8,8,180,1,1,672.891,1,388,12,1.0248,0.981514
Asian,1,Right,18,Male,Yes,English,A,390,1,16,0,0,0,1,728.927,1,389,12,1.12691,0.984676
Asian,1,Right,18,Male,Yes,English,A,391,0,4,16,180,1,1,1246.26,1,390,12,1.17159,0.990307
Asian,1,Right,18,Male,Yes,English,A,392,1,16,4,180,1,1,1035.27,1,391,12,1.06248,0.915448
Asian,1,Right,18,Male,Yes,English,A,393,1,4,16,0,0,1,531.41,1,392,12,1.1241,0.935084
Asian,1,Right,18,Male,Yes,English,A,394,1,4,4,0,0,1,741.944,1,393,12,1.04254,0.907872
Asian,1,Right,18,Male,Yes,English,A,395,0,4,4,0,0,1,894.128,1,394,12,1.08226,0.815438
Asian,1,Right,18,Male,Yes,English,A,396,1,8,16,0,0,1,619.095,1,395,12,1.14631,0.886493
Asian,1,Right,18,Male,Yes,English,A,397,1,0,16,180,1,1,565.803,1,396,12,1.19893,0.854565
Asian,1,Right,18,Male,Yes,English,A,398,0,16,16,0,0,1,1175.16,1,397,12,1.15109,0.977475
Asian,1,Right,18,Male,Yes,English,A,399,0,0,4,180,1,1,926.88,1,398,12,1.16963,0.890984
Asian,1,Right,18,Male,Yes,English,A,400,0,16,4,180,1,1,1258.09,1,399,12,1.16813,0.883849
Asian,1,Right,18,Male,Yes,English,A,401,0,16,0,0,0,1,688.112,1,400,12,1.03948,0.908487
Asian,1,Right,18,Male,Yes,English,A,402,1,8,0,180,1,1,650.399,1,401,12,1.10211,0.975762
Asian,1,Right,18,Male,Yes,English,A,403,0,8,0,0,0,1,828.876,1,402,12,1.01536,0.859416
Asian,1,Right,18,Male,Yes,English,A,404,1,16,8,180,1,1,935.597,1,403,12,1.00893,0.866083
Asian,1,Right,18,Male,Yes,English,A,405,1,0,4,0,0,1,510.739,1,404,12,1.1916,0.861807
Asian,1,Right,18,Male,Yes,English,A,406,0,16,8,0,0,1,701.381,1,405,12,1.13177,0.894691
Asian,1,Right,18,Male,Yes,English,A,407,1,4,0,0,0,1,829.069,1,406,12,1.16617,0.986196
Asian,1,Right,18,Male,Yes,English,A,408,0,8,16,0,0,1,1057.82,1,407,12,1.19423,0.914945
Asian,1,Right,18,Male,Yes,English,A,409,0,0,16,180,1,1,856.252,1,408,12,1.03413,0.947156
Asian,1,Right,18,Male,Yes,English,A,410,1,8,8,180,1,1,562.409,1,409,12,1.09457,0.889244
Asian,1,Right,18,Male,Yes,English,A,411,0,4,0,180,1,1,819.583,1,410,12,1.1136,0.927586
Asian,1,Right,18,Male,Yes,English,A,412,1,0,8,0,0,1,576.08,1,411,12,1.04939,0.837669
Asian,1,Right,18,Male,Yes,English,A,413,0,4,8,180,1,1,876.878,1,412,12,1.01771,0.841474
Asian,1,Right,18,Male,Yes,English,A,414,1,8,4,180,1,1,491.099,1,413,12,1.18611,0.956918
Asian,1,Right,18,Male,Yes,English,A,415,1,0,0,180,1,1,816.569,1,414,12,1.18863,0.845913
Asian,1,Right,18,Male,Yes,English,A,416,0,0,0,0,0,1,617.636,1,415,12,1.00132,0.837003
Asian,1,Right,18,Male,Yes,English,A,417,0,0,0,180,1,1,613.784,1,416,13,1.07934,0.824027
Asian,1,Right,18,Male,Yes,English,A,418,0,0,8,0,0,1,529.379,1,417,13,1.19493,0.825576
Asian,1,Right,18,Male,Yes,English,A,419,0,16,16,180,1,1,810.274,1,418,13,1.1328,0.990767
Asian,1,Right,18,Male,Yes,English,A,420,0,16,8,0,0,1,886.127,1,419,13,1.19921,0.915426
Asian,1,Right,18,Male,Yes,English,A,421,1,8,16,180,1,1,640.299,1,420,13,1.11433,0.89141
Asian,1,Right,18,Male,Yes,English,A,422,1,4,0,0,0,1,743.513,1,421,13,1.14469,0.846225
Asian,1,Right,18,Male,Yes,English,A,423,0,4,0,180,1,1,733.984,1,422,13,1.0849,0.867394
Asian,1,Right,18,Male,Yes,English,A,424,1,0,16,180,1,1,677.321,1,423,13,1.14345,0.833267
Asian,1,Right,18,Male,Yes,English,A,425,0,16,4,0,0,1,997.049,1,424,13,1.02942,0.904856
Asian,1,Right,18,Male,Yes,English,A,426,1,0,8,180,1,1,640.672,1,425,13,1.14246,0.88892
Asian,1,Right,18,Male,Yes,English,A,427,1,8,8,0,0,1,707.937,1,426,13,1.13165,0.966974
Asian,1,Right,18,Male,Yes,English,A,428,1,16,16,0,0,1,651.656,1,427,13,1.12061,0.810317
Asian,1,Right,18,Male,Yes,English,A,429,1,4,16,0,0,1,626.091,1,428,13,1.11647,0.87251
Asian,1,Right,18,Male,Yes,English,A,430,0,0,16,180,1,1,906.294,1,429,13,1.13485,0.860269
Asian,1,Right,18,Male,Yes,English,A,431,1,0,4,0,0,1,572.347,1,430,13,1.1173,0.80025
Asian,1,Right,18,Male,Yes,English,A,432,0,0,4,0,0,1,664.542,1,431,13,1.0803,0.907567
Asian,1,Right,18,Male,Yes,English,A,433,1,16,8,180,1,1,596.955,1,432,13,1.19397,0.850158
Asian,1,Right,18,Male,Yes,English,A,434,0,16,0,0,0,1,1416.98,1,433,13,1.16308,0.945823
Asian,1,Right,18,Male,Yes,English,A,435,1,4,4,0,0,1,945.745,1,434,13,1.12495,0.951223
Asian,1,Right,18,Male,Yes,English,A,436,0,8,8,180,1,1,756.207,1,435,13,1.10859,0.942879
Asian,1,Right,18,Male,Yes,English,A,437,1,8,0,180,1,1,680.497,1,436,13,1.04625,0.837913
Asian,1,Right,18,Male,Yes,English,A,438,0,8,0,180,1,1,781.974,1,437,13,1.04585,0.92282
Asian,1,Right,18,Male,Yes,English,A,439,0,4,8,180,1,1,700.745,1,438,13,1.12667,0.812745
Asian,1,Right,18,Male,Yes,English,A,440,1,4,8,180,1,1,693.246,1,439,13,1.19667,0.841175
Asian,1,Right,18,Male,Yes,English,A,441,0,4,16,0,0,1,661.832,1,440,13,1.16128,0.966561
Asian,1,Right,18,Male,Yes,English,A,442,0,8,16,180,1,1,1234.87,1,441,13,1.09881,0.903792
Asian,1,Right,18,Male,Yes,English,A,443,1,16,4,0,0,1,1244.28,1,442,13,1.01774,0.862926
Asian,1,Right,18,Male,Yes,English,A,444,1,0,0,0,0,1,514.551,1,443,13,1.11626,0.886741
Asian,1,Right,18,Male,Yes,English,A,445,0,8,4,180,1,1,656.125,1,444,13,1.0653,0.884497
Asian,1,Right,18,Male,Yes,English,A,446,1,8,4,180,1,1,545.727,1,445,13,1.03751,0.952093
Asian,1,Right,18,Male,Yes,English,A,447,0,4,4,0,0,1,775.694,1,446,13,1.05253,0.952402
Asian,1,Right,18,Male,Yes,English,A,448,1,16,0,0,0,1,695.687,1,447,13,1.0809,0.906986
Asian,1,Right,18,Male,Yes,English,A,449,0,8,4,0,0,1,697.869,1,448,14,1.02517,0.825479
Asian,1,Right,18,Male,Yes,English,A,450,1,8,4,180,1,1,825.235,1,449,14,1.14813,0.877727
Asian,1,Right,18,Male,Yes,English,A,451,0,8,8,180,1,1,1144.67,1,450,14,1.14645,0.833127
Asian,1,Right,18,Male,Yes,English,A,452,1,16,4,180,1,1,660.476,1,451,14,1.13564,0.828379
Asian,1,Right,18,Male,Yes,English,A,453,0,0,4,180,1,1,680.036,1,452,14,1.09202,0.977845
Asian,1,Right,18,Male,Yes,English,A,454,0,4,0,0,0,1,669.793,1,453,14,1.00813,0.850686
Asian,1,Right,18,Male,Yes,English,A,455,1,4,16,0,0,1,1079.04,1,454,14,1.1315,0.860435
Asian,1,Right,18,Male,Yes,English,A,456,0,4,4,180,1,1,1105.59,1,455,14,1.09615,0.956769
Asian,1,Right,18,Male,Yes,English,A,457,1,0,0,0,0,1,589.566,1,456,14,1.12345,0.888839
Asian,1,Right,18,Male,Yes,English,A,458,1,16,8,0,0,1,690.987,1,457,14,1.16593,0.874408
Asian,1,Right,18,Male,Yes,English,A,459,0,16,0,180,1,1,818.099,1,458,14,1.13945,0.98118
Asian,1,Right,18,Male,Yes,English,A,460,0,4,16,0,0,1,635.507,1,459,14,1.14455,0.850014
Asian,1,Right,18,Male,Yes,English,A,461,0,0,16,0,0,1,682.283,1,460,14,1.15584,0.938245
Asian,1,Right,18,Male,Yes,English,A,462,0,0,8,180,1,1,668.462,1,461,14,1.08562,0.805601
Asian,1,Right,18,Male,Yes,English,A,463,0,4,8,180,1,1,637.666,1,462,14,1.09347,0.983343
Asian,1,Right,18,Male,Yes,English,A,464,1,0,8,0,0,1,688.541,1,463,14,1.01782,0.892479
Asian,1,Right,18,Male,Yes,English,A,465,1,4,4,180,1,1,721.572,1,464,14,1.12398,0.987769
Asian,1,Right,18,Male,Yes,English,A,466,0,8,16,0,0,1,954.818,1,465,14,1.19598,0.888114
Asian,1,Right,18,Male,Yes,English,A,467,0,0,0,0,0,1,595.623,1,466,14,1.03156,0.977647
Asian,1,Right,18,Male,Yes,English,A,468,1,8,0,0,0,1,919.037,1,467,14,1.17068,0.987188
Asian,1,Right,18,Male,Yes,English,A,469,1,16,0,180,1,1,502.338,1,468,14,1.17739,0.8078
Asian,1,Right,18,Male,Yes,English,A,470,1,8,16,180,1,1,720.431,1,469,14,1.10902,0.942415
Asian,1,Right,18,Male,Yes,English,A,471,1,0,4,180,1,1,750.507,1,470,14,1.17042,0.855201
Asian,1,Right,18,Male,Yes,English,A,472,1,0,16,0,0,1,560.143,1,471,14,1.07338,0.887064
Asian,1,Right,18,Male,Yes,English,A,473,0,8,0,0,0,1,583.088,1,472,14,1.15945,0.951286
Asian,1,Right,18,Male,Yes,English,A,474,1,4,0,180,1,1,602.906,1,473,14,1.10701,0.94118
Asian,1,Right,18,Male,Yes,English,A,475,1,4,8,180,1,1,775.471,1,474,14,1.0808,0.947144
Asian,1,Right,18,Male,Yes,English,A,476,1,8,8,0,0,1,601.784,1,475,14,1.16092,0.839289
Asian,1,Right,18,Male,Yes,English,A,477,0,16,4,180,1,1,820.335,1,476,14,1.04911,0.942758
Asian,1,Right,18,Male,Yes,English,A,478,1,16,16,180,1,1,831.11,1,477,14,1.02418,0.93737
Asian,1,Right,18,Male,Yes,English,A,479,0,16,16,0,0,1,1032.6,1,478,14,1.00226,0.930494
Asian,1,Right,18,Male,Yes,English,A,480,0,16,8,0,0,1,766.838,1,479,14,1.10799,0.935005
Asian,1,Right,18,Male,Yes,English,A,481,1,16,4,180,1,1,1060.25,1,480,15,1.06049,0.815129
Asian,1,Right,18,Male,Yes,English,A,482,0,16,4,0,0,1,1135.99,1,481,15,1.16746,0.991932
Asian,1,Right,18,Male,Yes,English,A,483,1,0,4,0,0,1,483.241,1,482,15,1.14438,0.848002
Asian,1,Right,18,Male,Yes,English,A,484,0,8,0,0,0,1,762.573,1,483,15,1.01896,0.817012
Asian,1,Right,18,Male,Yes,English,A,485,1,0,8,180,1,1,652.241,1,484,15,1.13965,0.885494
Asian,1,Right,18,Male,Yes,English,A,486,1,8,16,0,0,1,740.282,1,485,15,1.16935,0.838071
Asian,1,Right,18,Male,Yes,English,A,487,1,4,4,180,1,1,645.129,1,486,15,1.08883,0.966666
Asian,1,Right,18,Male,Yes,English,A,488,1,8,8,0,0,1,455.9,1,487,15,1.1425,0.836628
Asian,1,Right,18,Male,Yes,English,A,489,1,16,0,0,0,1,1034.12,1,488,15,1.07806,0.99207
Asian,1,Right,18,Male,Yes,English,A,490,1,4,16,180,1,1,851.683,1,489,15,1.0912,0.903089
Asian,1,Right,18,Male,Yes,English,A,491,0,4,8,0,0,1,701.385,1,490,15,1.06942,0.883616
Asian,1,Right,18,Male,Yes,English,A,492,1,0,16,0,0,1,465.559,1,491,15,1.08858,0.971097
Asian,1,Right,18,Male,Yes,English,A,493,0,16,16,0,0,1,1212.54,1,492,15,1.1117,0.914784
Asian,1,Right,18,Male,Yes,English,A,494,0,0,16,0,0,1,626.983,1,493,15,1.01968,0.92155
Asian,1,Right,18,Male,Yes,English,A,495,1,8,4,180,1,1,660.015,1,494,15,1.18953,0.889063
Asian,1,Right,18,Male,Yes,English,A,496,1,16,8,0,0,1,583.623,1,495,15,1.1332,0.944197
Asian,1,Right,18,Male,Yes,English,A,497,0,8,4,180,1,1,1007.86,1,496,15,1.11572,0.834778
Asian,1,Right,18,Male,Yes,English,A,498,0,8,16,180,1,1,736.632,1,497,15,1.13574,0.988912
Asian,1,Right,18,Male,Yes,English,A,499,0,4,0,180,1,1,774.254,1,498,15,1.01338,0.80565
Asian,1,Right,18,Male,Yes,English,A,500,0,0,0,180,1,1,624.581,1,499,15,1.05854,0.856583
Asian,1,Right,18,Male,Yes,English,A,501,0,16,8,0,0,1,688.341,1,500,15,1.14065,0.867594
Asian,1,Right,18,Male,Yes,English,A,502,0,0,4,180,1,1,635.6,1,501,15,1.15592,0.869154
Asian,1,Right,18,Male,Yes,English,A,503,1,8,0,180,1,1,594.594,1,502,15,1.13773,0.93842
Asian,1,Right,18,Male,Yes,English,A,504,1,16,16,180,1,1,660.596,1,503,15,1.07119,0.938212
Asian,1,Right,18,Male,Yes,English,A,505,1,0,0,180,1,1,688.99,1,504,15,1.11672,0.918789
Asian,1,Right,18,Male,Yes,English,A,506,1,4,8,0,0,1,511.87,1,505,15,1.04575,0.920784
Asian,1,Right,18,Male,Yes,English,A,507,0,8,8,0,0,1,1101.95,1,506,15,1.11757,0.938621
Asian,1,Right,18,Male,Yes,English,A,508,0,16,0,0,0,1,1212.57,1,507,15,1.071,0.934821
Asian,1,Right,18,Male,Yes,English,A,509,0,4,16,180,1,1,987.667,1,508,15,1.06978,0.950503
Asian,1,Right,18,Male,Yes,English,A,510,1,4,0,180,1,1,625.323,1,509,15,1.13483,0.968049
Asian,1,Right,18,Male,Yes,English,A,511,0,4,4,180,1,1,892.029,1,510,15,1.17556,0.806545
Asian,1,Right,18,Male,Yes,English,A,512,0,0,8,0,0,1,972.002,1,511,15,1.18842,0.89979
Asian,1,Right,18,Male,Yes,English,A,513,1,4,4,180,1,1,983.991,1,512,16,1.12815,0.973061
Asian,1,Right,18,Male,Yes,English,A,514,0,4,0,0,0,1,746.011,1,513,16,1.10107,0.827775
Asian,1,Right,18,Male,Yes,English,A,515,1,8,16,180,1,1,652.037,1,514,16,1.03642,0.825866
Asian,1,Right,18,Male,Yes,English,A,516,1,0,4,0,0,1,1405.82,1,515,16,1.1002,0.87737
Asian,1,Right,18,Male,Yes,English,A,517,0,4,8,180,1,1,1101.44,1,516,16,1.02915,0.917523
Asian,1,Right,18,Male,Yes,English,A,518,0,4,4,180,1,1,680.898,1,517,16,1.0686,0.835878
Asian,1,Right,18,Male,Yes,English,A,519,1,16,4,180,1,1,1075.66,1,518,16,1.09636,0.97439
Asian,1,Right,18,Male,Yes,English,A,520,0,8,8,180,1,1,1395.85,1,519,16,1.07514,0.971509
Asian,1,Right,18,Male,Yes,English,A,521,1,8,0,0,0,1,700.941,1,520,16,1.04489,0.81937
Asian,1,Right,18,Male,Yes,English,A,522,1,4,8,0,0,1,700.858,1,521,16,1.0653,0.89267
Asian,1,Right,18,Male,Yes,English,A,523,1,0,0,180,1,1,703.794,1,522,16,1.13791,0.821533
Asian,1,Right,18,Male,Yes,English,A,524,0,16,4,0,0,1,781.672,1,523,16,1.10136,0.977866
Asian,1,Right,18,Male,Yes,English,A,525,0,8,16,0,0,1,793.625,1,524,16,1.08309,0.887814
Asian,1,Right,18,Male,Yes,English,A,526,0,8,0,180,1,1,702.467,1,525,16,1.07024,0.947241
Asian,1,Right,18,Male,Yes,English,A,527,1,8,8,0,0,1,613.546,1,526,16,1.14692,0.964728
Asian,1,Right,18,Male,Yes,English,A,528,1,4,0,180,1,1,615.897,1,527,16,1.00278,0.844986
Asian,1,Right,18,Male,Yes,English,A,529,1,0,16,180,1,1,710.136,1,528,16,1.0252,0.878972
Asian,1,Right,18,Male,Yes,English,A,530,1,16,16,0,0,1,702.934,1,529,16,1.15469,0.961016
Asian,1,Right,18,Male,Yes,English,A,531,1,16,8,0,0,1,967.668,1,530,16,1.14498,0.943056
Asian,1,Right,18,Male,Yes,English,A,532,0,0,16,0,0,1,554.767,1,531,16,1.10033,0.924299
Asian,1,Right,18,Male,Yes,English,A,533,1,4,16,0,0,1,1085.09,1,532,16,1.12722,0.988552
Asian,1,Right,18,Male,Yes,English,A,534,0,16,8,180,1,1,608.581,1,533,16,1.16558,0.933367
Asian,1,Right,18,Male,Yes,English,A,535,0,16,16,0,0,1,469.52,1,534,16,1.09429,0.944607
Asian,1,Right,18,Male,Yes,English,A,536,1,16,0,180,1,1,873.954,1,535,16,1.14257,0.931715
Asian,1,Right,18,Male,Yes,English,A,537,0,0,0,180,1,1,825.331,1,536,16,1.14925,0.939159
Asian,1,Right,18,Male,Yes,English,A,538,0,8,4,180,1,1,894.222,1,537,16,1.00036,0.854796
Asian,1,Right,18,Male,Yes,English,A,539,0,4,16,180,1,1,720.815,1,538,16,1.01503,0.959062
Asian,1,Right,18,Male,Yes,English,A,540,0,0,4,180,1,1,654.722,1,539,16,1.1183,0.890899
Asian,1,Right,18,Male,Yes,English,A,541,1,0,8,0,0,1,1260.87,1,540,16,1.16444,0.82202
Asian,1,Right,18,Male,Yes,English,A,542,1,8,4,0,0,1,599.203,1,541,16,1.05381,0.86628
Asian,1,Right,18,Male,Yes,English,A,543,0,16,0,0,0,1,1051.45,1,542,16,1.15556,0.886702
Asian,1,Right,18,Male,Yes,English,A,544,0,0,8,0,0,1,862.372,1,543,16,1.02618,0.824136
Asian,1,Right,18,Male,Yes,English,A,545,1,16,16,180,1,1,840.045,1,544,17,1.17569,0.817695
Asian,1,Right,18,Male,Yes,English,A,546,0,4,16,180,1,1,712.346,1,545,17,1.00366,0.941824
Asian,1,Right,18,Male,Yes,English,A,547,0,4,8,0,0,1,676.978,1,546,17,1.10354,0.953744
Asian,1,Right,18,Male,Yes,English,A,548,1,0,4,0,0,1,618.297,1,547,17,1.09311,0.883068
Asian,1,Right,18,Male,Yes,English,A,549,1,8,16,0,0,1,1242.88,1,548,17,1.18143,0.888303
Asian,1,Right,18,Male,Yes,English,A,550,0,8,8,0,0,1,1014.65,1,549,17,1.02303,0.800583
Asian,1,Right,18,Male,Yes,English,A,551,0,8,0,0,0,1,625.915,1,550,17,1.00474,0.864537
Asian,1,Right,18,Male,Yes,English,A,552,1,16,0,180,1,1,1028.78,1,551,17,1.1361,0.999218
Asian,1,Right,18,Male,Yes,English,A,553,1,8,8,0,0,1,531.02,1,552,17,1.04974,0.935973
Asian,1,Right,18,Male,Yes,English,A,554,0,4,0,0,0,1,743.653,1,553,17,1.03482,0.888909
Asian,1,Right,18,Male,Yes,English,A,555,1,0,0,180,1,1,558.003,1,554,17,1.00285,0.925621
Asian,1,Right,18,Male,Yes,English,A,556,0,16,8,180,1,1,1275.29,1,555,17,1.02398,0.875201
Asian,1,Right,18,Male,Yes,English,A,557,0,16,0,0,0,1,660.139,1,556,17,1.17879,0.97605
Asian,1,Right,18,Male,Yes,English,A,558,1,0,16,180,1,1,502.823,1,557,17,1.04824,0.922248
Asian,1,Right,18,Male,Yes,English,A,559,1,0,8,0,0,1,621.464,1,558,17,1.0906,0.875507
Asian,1,Right,18,Male,Yes,English,A,560,0,4,4,0,0,1,713.184,1,559,17,1.11645,0.856623
Asian,1,Right,18,Male,Yes,English,A,561,0,16,16,0,0,1,669.84,1,560,17,1.06769,0.977975
Asian,1,Right,18,Male,Yes,English,A,562,0,16,4,180,1,1,1075.74,1,561,17,1.03389,0.883174
Asian,1,Right,18,Male,Yes,English,A,563,1,16,8,180,1,1,699.203,1,562,17,1.09836,0.838838
Asian,1,Right,18,Male,Yes,English,A,564,0,8,4,0,0,1,752.655,1,563,17,1.0972,0.814019
Asian,1,Right,18,Male,Yes,English,A,565,1,4,8,180,1,1,540.831,1,564,17,1.02269,0.939584
Asian,1,Right,18,Male,Yes,English,A,566,1,16,4,180,1,1,478.124,1,565,17,1.17156,0.839513
Asian,1,Right,18,Male,Yes,English,A,567,1,8,4,180,1,1,527.071,1,566,17,1.15935,0.831284
Asian,1,Right,18,Male,Yes,English,A,568,1,4,4,180,1,1,530.185,1,567,17,1.19443,0.958188
Asian,1,Right,18,Male,Yes,English,A,569,1,8,0,0,0,1,786.558,1,568,17,1.15811,0.879854
Asian,1,Right,18,Male,Yes,English,A,570,1,4,0,0,0,1,611.382,1,569,17,1.17277,0.92698
Asian,1,Right,18,Male,Yes,English,A,571,1,4,16,180,1,1,706.905,1,570,17,1.17855,0.964622
Asian,1,Right,18,Male,Yes,English,A,572,0,0,8,180,1,1,1034.51,1,571,17,1.11889,0.979154
Asian,1,Right,18,Male,Yes,English,A,573,0,8,16,0,0,1,1310.1,1,572,17,1.08743,0.836358
Asian,1,Right,18,Male,Yes,English,A,574,0,0,16,0,0,1,877.002,1,573,17,1.11516,0.830187
Asian,1,Right,18,Male,Yes,English,A,575,0,0,4,180,1,1,935.856,1,574,17,1.08012,0.894967
Asian,1,Right,18,Male,Yes,English,A,576,0,0,0,180,1,1,578.512,1,575,17,1.03294,0.972292
Asian,1,Right,18,Male,Yes,English,A,577,0,8,0,0,0,1,550.427,1,576,18,1.01821,0.902346
Asian,1,Right,18,Male,Yes,English,A,578,1,8,4,180,1,1,1125.6,1,577,18,1.08813,0.871189
Asian,1,Right,18,Male,Yes,English,A,579,0,0,4,180,1,1,700.988,1,578,18,1.08922,0.999538
Asian,1,Right,18,Male,Yes,English,A,580,0,0,16,180,1,1,830.502,1,579,18,1.12584,0.920912
Asian,1,Right,18,Male,Yes,English,A,581,1,0,8,0,0,1,643.467,1,580,18,1.05849,0.884797
Asian,1,Right,18,Male,Yes,English,A,582,1,4,8,0,0,1,984.612,1,581,18,1.06013,0.897792
Asian,1,Right,18,Male,Yes,English,A,583,0,4,8,180,1,1,996.618,1,582,18,1.18305,0.895563
Asian,1,Right,18,Male,Yes,English,A,584,0,8,16,180,1,1,838.46,1,583,18,1.12068,0.839343
Asian,1,Right,18,Male,Yes,English,A,585,1,8,16,180,1,1,697.652,1,584,18,1.18373,0.972589
Asian,1,Right,18,Male,Yes,English,A,586,1,4,16,180,1,1,605.336,1,585,18,1.09724,0.932997
Asian,1,Right,18,Male,Yes,English,A,587,0,16,16,180,1,1,1022.15,1,586,18,1.09089,0.904557
Asian,1,Right,18,Male,Yes,English,A,588,1,16,8,180,1,1,828.611,1,587,18,1.12918,0.874643
Asian,1,Right,18,Male,Yes,English,A,589,1,8,0,180,1,1,720.345,1,588,18,1.01018,0.862073
Asian,1,Right,18,Male,Yes,English,A,590,0,4,16,0,0,1,731.115,1,589,18,1.09042,0.903281
Asian,1,Right,18,Male,Yes,English,A,591,0,4,0,0,0,1,826.709,1,590,18,1.04512,0.900822
Asian,1,Right,18,Male,Yes,English,A,592,1,0,16,180,1,1,789.734,1,591,18,1.02792,0.864606
Asian,1,Right,18,Male,Yes,English,A,593,0,16,8,0,0,1,833.013,1,592,18,1.02999,0.859358
Asian,1,Right,18,Male,Yes,English,A,594,0,0,0,0,0,1,683.829,1,593,18,1.0194,0.972837
Asian,1,Right,18,Male,Yes,English,A,595,0,8,8,0,0,1,755.081,1,594,18,1.04261,0.942962
Asian,1,Right,18,Male,Yes,English,A,596,1,8,8,180,1,1,730.422,1,595,18,1.12305,0.855085
Asian,1,Right,18,Male,Yes,English,A,597,1,0,0,180,1,1,468.358,1,596,18,1.01878,0.885235
Asian,1,Right,18,Male,Yes,English,A,598,0,4,4,180,1,1,1087.12,1,597,18,1.04024,0.834353
Asian,1,Right,18,Male,Yes,English,A,599,0,0,8,0,0,1,665.609,1,598,18,1.0362,0.834269
Asian,1,Right,18,Male,Yes,English,A,600,1,16,0,180,1,1,576.846,1,599,18,1.15246,0.842863
Asian,1,Right,18,Male,Yes,English,A,601,1,16,16,0,0,1,804.196,1,600,18,1.14429,0.85292
Asian,1,Right,18,Male,Yes,English,A,602,1,0,4,0,0,1,710.478,1,601,18,1.02603,0.801031
Asian,1,Right,18,Male,Yes,English,A,603,0,8,4,0,1,0,982.265,1,602,18,1.08289,0.981412
Asian,1,Right,18,Male,Yes,English,A,604,0,16,4,0,0,1,499.187,1,603,18,1.05606,0.91453
Asian,1,Right,18,Male,Yes,English,A,605,1,4,0,0,0,1,524.376,1,604,18,1.08102,0.848716
Asian,1,Right,18,Male,Yes,English,A,606,0,16,0,0,0,1,995.628,1,605,18,1.01118,0.9443
Asian,1,Right,18,Male,Yes,English,A,607,1,16,4,0,0,1,530.664,1,606,18,1.10919,0.922096
Asian,1,Right,18,Male,Yes,English,A,608,1,4,4,180,1,1,502.73,1,607,18,1.08252,0.99627
Asian,1,Right,18,Male,Yes,English,A,609,0,4,4,0,0,1,786.663,1,608,19,1.07515,0.842869
Asian,1,Right,18,Male,Yes,English,A,610,1,16,0,0,0,1,820.977,1,609,19,1.15119,0.837395
Asian,1,Right,18,Male,Yes,English,A,611,0,16,8,180,1,1,673.134,1,610,19,1.19374,0.95599
Asian,1,Right,18,Male,Yes,English,A,612,1,0,16,180,1,1,575.072,1,611,19,1.05856,0.915746
Asian,1,Right,18,Male,Yes,English,A,613,1,16,4,180,1,1,979.487,1,612,19,1.12248,0.803734
Asian,1,Right,18,Male,Yes,English,A,614,0,0,8,0,0,1,802.801,1,613,19,1.11932,0.802911
Asian,1,Right,18,Male,Yes,English,A,615,0,8,4,0,0,1,659.254,1,614,19,1.16935,0.832983
Asian,1,Right,18,Male,Yes,English,A,616,0,16,0,0,0,1,1210.18,1,615,19,1.0471,0.948581
Asian,1,Right,18,Male,Yes,English,A,617,0,16,16,180,1,1,1006.02,1,616,19,1.1737,0.939978
Asian,1,Right,18,Male,Yes,English,A,618,1,4,0,180,1,1,571.31,1,617,19,1.125,0.978414
Asian,1,Right,18,Male,Yes,English,A,619,1,4,8,0,0,1,490.077,1,618,19,1.176,0.882835
Asian,1,Right,18,Male,Yes,English,A,620,0,0,16,180,1,1,612.165,1,619,19,1.16747,0.970501
Asian,1,Right,18,Male,Yes,English,A,621,1,8,4,180,1,1,753.47,1,620,19,1.13206,0.913634
Asian,1,Right,18,Male,Yes,English,A,622,1,8,16,0,0,1,817,1,621,19,1.02894,0.8095
Asian,1,Right,18,Male,Yes,English,A,623,0,8,16,0,0,1,565.954,1,622,19,1.00024,0.873417
Asian,1,Right,18,Male,Yes,English,A,624,1,16,16,180,1,1,655.36,1,623,19,1.055,0.81138
Asian,1,Right,18,Male,Yes,English,A,625,0,8,8,180,1,1,1387.4,1,624,19,1.14022,0.834327
Asian,1,Right,18,Male,Yes,English,A,626,1,16,8,180,1,1,690.063,1,625,19,1.05269,0.86152
Asian,1,Right,18,Male,Yes,English,A,627,0,4,16,0,0,1,682.214,1,626,19,1.04912,0.85753
Asian,1,Right,18,Male,Yes,English,A,628,0,4,8,0,0,1,701.471,1,627,19,1.03972,0.807924
Asian,1,Right,18,Male,Yes,English,A,629,1,0,4,0,0,1,779.046,1,628,19,1.19052,0.926084
Asian,1,Right,18,Male,Yes,English,A,630,1,4,16,0,0,1,599.29,1,629,19,1.128,0.972565
Asian,1,Right,18,Male,Yes,English,A,631,1,8,8,0,0,1,654.721,1,630,19,1.01096,0.867942
Asian,1,Right,18,Male,Yes,English,A,632,1,0,0,180,1,1,582.931,1,631,19,1.17833,0.89321
Asian,1,Right,18,Male,Yes,English,A,633,0,4,0,180,1,1,1095.66,1,632,19,1.17731,0.813915
Asian,1,Right,18,Male,Yes,English,A,634,0,0,0,0,0,1,677.289,1,633,19,1.14082,0.949672
Asian,1,Right,18,Male,Yes,English,A,635,1,8,0,180,1,1,966.394,1,634,19,1.15788,0.872951
Asian,1,Right,18,Male,Yes,English,A,636,0,0,4,0,0,1,787.808,1,635,19,1.18285,0.840281
Asian,1,Right,18,Male,Yes,English,A,637,0,16,4,180,1,1,695.067,1,636,19,1.1192,0.973818
Asian,1,Right,18,Male,Yes,English,A,638,0,8,0,180,1,1,650.461,1,637,19,1.12521,0.835901
Asian,1,Right,18,Male,Yes,English,A,639,1,4,4,0,0,1,960.164,1,638,19,1.19785,0.951818
Asian,1,Right,18,Male,Yes,English,A,640,1,0,8,180,1,1,739.032,1,639,19,1.03019,0.927825
Asian,1,Right,18,Male,Yes,English,A,641,0,4,4,0,0,1,1747.16,1,640,20,1.10347,0.864298
Asian,1,Right,18,Male,Yes,English,A,642,1,16,16,0,0,1,831.004,1,641,20,1.16853,0.963553
Asian,1,Right,18,Male,Yes,English,A,643,1,8,4,180,1,1,594.998,1,642,20,1.03014,0.838417
Asian,1,Right,18,Male,Yes,English,A,644,0,16,8,180,1,1,1039.38,1,643,20,1.0335,0.925396
Asian,1,Right,18,Male,Yes,English,A,645,0,16,4,180,1,1,631.395,1,644,20,1.01337,0.868357
Asian,1,Right,18,Male,Yes,English,A,646,0,8,4,0,0,1,1350.9,1,645,20,1.18821,0.914263
Asian,1,Right,18,Male,Yes,English,A,647,0,16,16,180,1,1,618.623,1,646,20,1.09219,0.952648
Asian,1,Right,18,Male,Yes,English,A,648,1,4,16,180,1,1,531.687,1,647,20,1.14702,0.979406
Asian,1,Right,18,Male,Yes,English,A,649,0,8,8,0,0,1,939.557,1,648,20,1.14435,0.848981
Asian,1,Right,18,Male,Yes,English,A,650,1,8,0,0,0,1,954.189,1,649,20,1.11678,0.825397
Asian,1,Right,18,Male,Yes,English,A,651,1,8,16,180,1,1,774.691,1,650,20,1.04668,0.878673
Asian,1,Right,18,Male,Yes,English,A,652,0,0,4,0,0,1,682.491,1,651,20,1.19954,0.896668
Asian,1,Right,18,Male,Yes,English,A,653,1,0,4,0,0,1,508.84,1,652,20,1.09705,0.961701
Asian,1,Right,18,Male,Yes,English,A,654,0,8,0,0,0,1,907.438,1,653,20,1.00574,0.855987
Asian,1,Right,18,Male,Yes,English,A,655,0,0,16,180,1,1,764.522,1,654,20,1.08605,0.970063
Asian,1,Right,18,Male,Yes,English,A,656,1,8,8,180,1,1,681.675,1,655,20,1.01036,0.934012
Asian,1,Right,18,Male,Yes,English,A,657,1,4,0,180,1,1,938.322,1,656,20,1.17217,0.914531
Asian,1,Right,18,Male,Yes,English,A,658,1,16,0,0,0,1,631.955,1,657,20,1.02205,0.914966
Asian,1,Right,18,Male,Yes,English,A,659,0,16,0,0,0,1,888.913,1,658,20,1.07499,0.935945
Asian,1,Right,18,Male,Yes,English,A,660,0,4,8,0,0,1,766.783,1,659,20,1.09882,0.866754
Asian,1,Right,18,Male,Yes,English,A,661,1,0,0,180,1,1,495.864,1,660,20,1.04619,0.825854
Asian,1,Right,18,Male,Yes,English,A,662,1,4,8,180,1,1,635.949,1,661,20,1.09779,0.933411
Asian,1,Right,18,Male,Yes,English,A,663,1,0,8,0,0,1,541.5,1,662,20,1.08424,0.981604
Asian,1,Right,18,Male,Yes,English,A,664,0,4,0,180,1,1,647.408,1,663,20,1.03318,0.95876
Asian,1,Right,18,Male,Yes,English,A,665,0,0,8,180,1,1,692.511,1,664,20,1.041,0.814022
Asian,1,Right,18,Male,Yes,English,A,666,1,16,4,0,0,1,760.916,1,665,20,1.05993,0.859918
Asian,1,Right,18,Male,Yes,English,A,667,1,4,4,180,1,1,749.076,1,666,20,1.17275,0.971306
Asian,1,Right,18,Male,Yes,English,A,668,0,0,0,180,1,1,536.118,1,667,20,1.12198,0.981533
Asian,1,Right,18,Male,Yes,English,A,669,1,16,8,180,1,1,662.137,1,668,20,1.03233,0.858382
Asian,1,Right,18,Male,Yes,English,A,670,0,8,16,0,1,0,470.546,1,669,20,1.12663,0.896206
Asian,1,Right,18,Male,Yes,English,A,671,0,4,16,0,0,1,633.016,1,670,20,1.17123,0.963172
Asian,1,Right,18,Male,Yes,English,A,672,1,0,16,0,0,1,599.373,1,671,20,1.02571,0.839637
Asian,1,Right,18,Male,Yes,English,A,673,0,4,0,0,0,1,830.051,1,672,21,1.06064,0.87463
Asian,1,Right,18,Male,Yes,English,A,674,0,0,4,180,9999,0,9999,1,673,21,1.01051,0.997055
Asian,1,Right,18,Male,Yes,English,A,675,1,8,0,0,0,1,811.794,1,674,21,1.04593,0.921889
Asian,1,Right,18,Male,Yes,English,A,676,1,16,16,0,0,1,781.557,1,675,21,1.08241,0.957153
Asian,1,Right,18,Male,Yes,English,A,677,0,4,16,180,1,1,593.522,1,676,21,1.02719,0.963905
Asian,1,Right,18,Male,Yes,English,A,678,0,8,4,180,1,1,766.015,1,677,21,1.10817,0.939404
Asian,1,Right,18,Male,Yes,English,A,679,0,4,4,180,1,1,789.039,1,678,21,1.08516,0.861462
Asian,1,Right,18,Male,Yes,English,A,680,0,16,16,0,0,1,875.851,1,679,21,1.13227,0.881469
Asian,1,Right,18,Male,Yes,English,A,681,1,8,16,180,1,1,624.989,1,680,21,1.19641,0.866025
Asian,1,Right,18,Male,Yes,English,A,682,0,8,0,180,1,1,660.077,1,681,21,1.1286,0.869967
Asian,1,Right,18,Male,Yes,English,A,683,0,0,0,0,0,1,522.718,1,682,21,1.06727,0.991613
Asian,1,Right,18,Male,Yes,English,A,684,1,8,4,0,1,0,547.259,1,683,21,1.18074,0.880178
Asian,1,Right,18,Male,Yes,English,A,685,0,0,8,180,1,1,767.426,1,684,21,1.00191,0.813897
Asian,1,Right,18,Male,Yes,English,A,686,1,0,0,0,0,1,561.054,1,685,21,1.00908,0.801442
Asian,1,Right,18,Male,Yes,English,A,687,0,4,8,180,1,1,736.79,1,686,21,1.19604,0.807278
Asian,1,Right,18,Male,Yes,English,A,688,0,0,16,0,0,1,688.426,1,687,21,1.12574,0.890004
Asian,1,Right,18,Male,Yes,English,A,689,0,16,8,180,1,1,876.745,1,688,21,1.07709,0.876671
Asian,1,Right,18,Male,Yes,English,A,690,1,4,4,0,0,1,530.078,1,689,21,1.15767,0.905698
Asian,1,Right,18,Male,Yes,English,A,691,0,16,4,180,1,1,620.618,1,690,21,1.01144,0.819796
Asian,1,Right,18,Male,Yes,English,A,692,1,16,8,0,0,1,1007.46,1,691,21,1.03464,0.825638
Asian,1,Right,18,Male,Yes,English,A,693,1,16,0,180,1,1,456.893,1,692,21,1.18987,0.964594
Asian,1,Right,18,Male,Yes,English,A,694,1,0,4,0,0,1,402.288,1,693,21,1.17151,0.958022
Asian,1,Right,18,Male,Yes,English,A,695,1,4,16,0,0,1,610.477,1,694,21,1.1274,0.818845
Asian,1,Right,18,Male,Yes,English,A,696,0,8,8,180,1,1,923.742,1,695,21,1.17534,0.957514
Asian,1,Right,18,Male,Yes,English,A,697,1,4,0,180,1,1,773.198,1,696,21,1.0335,0.876279
Asian,1,Right,18,Male,Yes,English,A,698,0,8,16,180,1,1,851.046,1,697,21,1.16843,0.866488
Asian,1,Right,18,Male,Yes,English,A,699,1,16,4,180,1,1,921.134,1,698,21,1.01635,0.817295
Asian,1,Right,18,Male,Yes,English,A,700,1,0,16,180,1,1,498.565,1,699,21,1.10152,0.919197
Asian,1,Right,18,Male,Yes,English,A,701,1,0,8,0,0,1,546.883,1,700,21,1.01518,0.907357
Asian,1,Right,18,Male,Yes,English,A,702,1,8,8,0,0,1,655.461,1,701,21,1.14567,0.85066
Asian,1,Right,18,Male,Yes,English,A,703,1,4,8,0,0,1,601.155,1,702,21,1.08657,0.976424
Asian,1,Right,18,Male,Yes,English,A,704,0,16,0,0,0,1,1005.37,1,703,21,1.07464,0.898709
Asian,1,Right,18,Male,Yes,English,A,705,0,8,4,0,0,1,884.077,1,704,22,1.06667,0.842602
Asian,1,Right,18,Male,Yes,English,A,706,1,8,4,0,0,1,663.121,1,705,22,1.11644,0.987342
Asian,1,Right,18,Male,Yes,English,A,707,1,16,4,180,1,1,682.893,1,706,22,1.08165,0.93462
Asian,1,Right,18,Male,Yes,English,A,708,0,0,0,180,1,1,595.595,1,707,22,1.15749,0.804028
Asian,1,Right,18,Male,Yes,English,A,709,1,4,8,180,1,1,776.779,1,708,22,1.01067,0.842883
Asian,1,Right,18,Male,Yes,English,A,710,1,0,0,180,1,1,508.269,1,709,22,1.00053,0.973696
Asian,1,Right,18,Male,Yes,English,A,711,0,4,8,0,0,1,1099.37,1,710,22,1.09069,0.924738
Asian,1,Right,18,Male,Yes,English,A,712,1,16,0,0,0,1,865.856,1,711,22,1.19633,0.921342
Asian,1,Right,18,Male,Yes,English,A,713,0,4,16,0,0,1,592.377,1,712,22,1.17461,0.903413
Asian,1,Right,18,Male,Yes,English,A,714,0,0,8,180,1,1,574.931,1,713,22,1.0137,0.950494
Asian,1,Right,18,Male,Yes,English,A,715,1,16,16,180,1,1,782.454,1,714,22,1.08212,0.851872
Asian,1,Right,18,Male,Yes,English,A,716,1,4,16,0,0,1,569.454,1,715,22,1.12909,0.914657
Asian,1,Right,18,Male,Yes,English,A,717,1,8,0,180,1,1,453.006,1,716,22,1.18715,0.863284
Asian,1,Right,18,Male,Yes,English,A,718,1,8,8,0,0,1,1009.14,1,717,22,1.12293,0.899531
Asian,1,Right,18,Male,Yes,English,A,719,1,0,4,180,1,1,685.073,1,718,22,1.03564,0.846997
Asian,1,Right,18,Male,Yes,English,A,720,1,0,8,180,1,1,584.76,1,719,22,1.08141,0.946729
Asian,1,Right,18,Male,Yes,English,A,721,1,16,8,0,0,1,450.142,1,720,22,1.14053,0.843686
Asian,1,Right,18,Male,Yes,English,A,722,0,16,16,180,1,1,1050.94,1,721,22,1.13394,0.908282
Asian,1,Right,18,Male,Yes,English,A,723,0,16,4,180,1,1,1199.87,1,722,22,1.13662,0.842616
Asian,1,Right,18,Male,Yes,English,A,724,1,4,4,180,1,1,568.22,1,723,22,1.18005,0.917347
Asian,1,Right,18,Male,Yes,English,A,725,0,4,4,180,1,1,546.214,1,724,22,1.19867,0.985066
Asian,1,Right,18,Male,Yes,English,A,726,1,4,0,0,0,1,560.277,1,725,22,1.1671,0.960199
Asian,1,Right,18,Male,Yes,English,A,727,0,4,0,0,0,1,743.297,1,726,22,1.11963,0.81066
Asian,1,Right,18,Male,Yes,English,A,728,0,0,16,180,1,1,1110.38,1,727,22,1.07012,0.815487
Asian,1,Right,18,Male,Yes,English,A,729,0,0,4,180,1,1,514.109,1,728,22,1.02555,0.989779
Asian,1,Right,18,Male,Yes,English,A,730,0,8,16,0,0,1,840.25,1,729,22,1.17039,0.83921
Asian,1,Right,18,Male,Yes,English,A,731,0,8,0,0,0,1,901.806,1,730,22,1.19438,0.956722
Asian,1,Right,18,Male,Yes,English,A,732,0,16,8,0,0,1,674.286,1,731,22,1.13194,0.809776
Asian,1,Right,18,Male,Yes,English,A,733,1,0,16,0,0,1,835.683,1,732,22,1.11162,0.992576
Asian,1,Right,18,Male,Yes,English,A,734,0,16,0,0,0,1,984.122,1,733,22,1.17323,0.803007
Asian,1,Right,18,Male,Yes,English,A,735,0,8,8,180,1,1,872.327,1,734,22,1.03328,0.992824
Asian,1,Right,18,Male,Yes,English,A,736,1,8,16,0,0,1,888.796,1,735,22,1.01495,0.842675
Asian,1,Right,18,Male,Yes,English,A,737,0,4,16,180,1,1,766.142,1,736,23,1.01805,0.858715
Asian,1,Right,18,Male,Yes,English,A,738,1,16,0,180,1,1,914.936,1,737,23,1.16931,0.881474
Asian,1,Right,18,Male,Yes,English,A,739,1,4,16,0,0,1,863.555,1,738,23,1.17494,0.92628
Asian,1,Right,18,Male,Yes,English,A,740,1,4,8,180,1,1,539.672,1,739,23,1.01658,0.808177
Asian,1,Right,18,Male,Yes,English,A,741,0,8,16,0,0,1,1090.65,1,740,23,1.1163,0.807955
Asian,1,Right,18,Male,Yes,English,A,742,0,16,0,0,0,1,903.699,1,741,23,1.09956,0.885367
Asian,1,Right,18,Male,Yes,English,A,743,1,8,16,180,1,1,649.148,1,742,23,1.16606,0.928791
Asian,1,Right,18,Male,Yes,English,A,744,1,8,4,180,1,1,593.012,1,743,23,1.07159,0.907063
Asian,1,Right,18,Male,Yes,English,A,745,0,8,8,0,0,1,892.299,1,744,23,1.15317,0.837386
Asian,1,Right,18,Male,Yes,English,A,746,1,16,8,0,0,1,664.136,1,745,23,1.00946,0.913126
Asian,1,Right,18,Male,Yes,English,A,747,0,16,16,0,0,1,997.896,1,746,23,1.09412,0.833502
Asian,1,Right,18,Male,Yes,English,A,748,0,4,0,0,0,1,792.713,1,747,23,1.09386,0.830297
Asian,1,Right,18,Male,Yes,English,A,749,1,4,4,0,0,1,682.006,1,748,23,1.04722,0.808525
Asian,1,Right,18,Male,Yes,English,A,750,1,4,0,180,1,1,566.712,1,749,23,1.14341,0.834405
Asian,1,Right,18,Male,Yes,English,A,751,0,16,8,0,0,1,1010.04,1,750,23,1.05443,0.965298
Asian,1,Right,18,Male,Yes,English,A,752,0,4,8,0,0,1,1293.56,1,751,23,1.19202,0.895259
Asian,1,Right,18,Male,Yes,English,A,753,1,16,4,180,1,1,539.145,1,752,23,1.05066,0.921828
Asian,1,Right,18,Male,Yes,English,A,754,0,0,16,180,1,1,828.331,1,753,23,1.02017,0.998021
Asian,1,Right,18,Male,Yes,English,A,755,0,8,0,0,0,1,575.14,1,754,23,1.19999,0.831539
Asian,1,Right,18,Male,Yes,English,A,756,1,8,8,180,1,1,615.877,1,755,23,1.07115,0.983075
Asian,1,Right,18,Male,Yes,English,A,757,1,0,4,180,1,1,560.217,1,756,23,1.14613,0.966665
Asian,1,Right,18,Male,Yes,English,A,758,1,0,0,0,0,1,456.995,1,757,23,1.10248,0.824933
Asian,1,Right,18,Male,Yes,English,A,759,0,8,4,180,1,1,1011.12,1,758,23,1.11749,0.931678
Asian,1,Right,18,Male,Yes,English,A,760,0,0,0,180,1,1,567.473,1,759,23,1.14016,0.872343
Asian,1,Right,18,Male,Yes,English,A,761,1,0,8,0,0,1,778.411,1,760,23,1.02976,0.881446
Asian,1,Right,18,Male,Yes,English,A,762,0,4,4,180,1,1,607.47,1,761,23,1.07821,0.880069
Asian,1,Right,18,Male,Yes,English,A,763,0,16,4,0,0,1,1227.95,1,762,23,1.05649,0.87665
Asian,1,Right,18,Male,Yes,English,A,764,1,0,16,180,1,1,466.648,1,763,23,1.15281,0.884324
Asian,1,Right,18,Male,Yes,English,A,765,1,8,0,180,1,1,780.328,1,764,23,1.0313,0.849799
Asian,1,Right,18,Male,Yes,English,A,766,0,0,4,180,1,1,760.359,1,765,23,1.09706,0.832317
Asian,1,Right,18,Male,Yes,English,A,767,0,0,8,0,0,1,1135.37,1,766,23,1.15551,0.877199
Asian,1,Right,18,Male,Yes,English,A,768,1,16,16,0,0,1,533.389,1,767,23,1.19054,0.973368
White,2,Right,18,Male,Yes,English,A,1,0,4,0,0,0,1,931.907,1,0,0,1.16597,0.998168
White,2,Right,18,Male,Yes,English,A,2,0,0,0,180,1,1,618.397,1,1,0,1.11553,0.862858
White,2,Right,18,Male,Yes,English,A,3,1,16,0,0,0,1,1045.78,1,2,0,1.10396,0.971404
White,2,Right,18,Male,Yes,English,A,4,1,8,8,180,1,1,688.402,1,3,0,1.15673,0.909905
White,2,Right,18,Male,Yes,English,A,5,1,16,4,180,1,1,1012.36,1,4,0,1.14713,0.985407
White,2,Right,18,Male,Yes,English,A,6,0,8,8,180,1,1,1012.22,1,5,0,1.05709,0.911218
White,2,Right,18,Male,Yes,English,A,7,1,4,4,180,1,1,648.907,1,6,0,1.08056,0.893688
White,2,Right,18,Male,Yes,English,A,8,0,8,16,0,0,1,891.579,1,7,0,1.05387,0.830557
White,2,Right,18,Male,Yes,English,A,9,0,16,8,180,1,1,777.898,1,8,0,1.07067,0.947159
White,2,Right,18,Male,Yes,English,A,10,0,4,8,180,1,1,624.762,1,9,0,1.08537,0.824037
White,2,Right,18,Male,Yes,English,A,11,0,0,4,180,1,1,916.513,1,10,0,1.03791,0.962505
White,2,Right,18,Male,Yes,English,A,12,0,16,4,180,1,1,694.644,1,11,0,1.06169,0.96099
White,2,Right,18,Male,Yes,English,A,13,1,0,8,180,1,1,784.03,1,12,0,1.07945,0.938498
White,2,Right,18,Male,Yes,English,A,14,1,0,4,0,0,1,659.3,1,13,0,1.19915,0.894367
White,2,Right,18,Male,Yes,English,A,15,0,8,4,0,0,1,684.605,1,14,0,1.16091,0.834367
White,2,Right,18,Male,Yes,English,A,16,1,16,8,180,1,1,783.281,1,15,0,1.14413,0.924726
White,2,Right,18,Male,Yes,English,A,17,1,4,0,0,0,1,789.904,1,16,0,1.18701,0.832404
White,2,Right,18,Male,Yes,English,A,18,1,0,16,180,1,1,624.142,1,17,0,1.11312,0.959306
White,2,Right,18,Male,Yes,English,A,19,1,8,4,0,0,1,655.894,1,18,0,1.08828,0.877793
White,2,Right,18,Male,Yes,English,A,20,1,4,8,0,0,1,779.114,1,19,0,1.15712,0.85783
White,2,Right,18,Male,Yes,English,A,21,0,0,16,0,0,1,1309.09,1,20,0,1.14428,0.839215
White,2,Right,18,Male,Yes,English,A,22,1,16,16,0,0,1,782.442,1,21,0,1.17677,0.922761
White,2,Right,18,Male,Yes,English,A,23,1,8,16,0,0,1,600.426,1,22,0,1.06462,0.904535
White,2,Right,18,Male,Yes,English,A,24,0,8,0,0,0,1,699.111,1,23,0,1.09811,0.849713
White,2,Right,18,Male,Yes,English,A,25,0,4,16,180,1,1,873.898,1,24,0,1.11746,0.874508
White,2,Right,18,Male,Yes,English,A,26,1,8,0,0,0,1,740.57,1,25,0,1.0616,0.864337
White,2,Right,18,Male,Yes,English,A,27,0,4,4,180,1,1,757.43,1,26,0,1.09333,0.922296
White,2,Right,18,Male,Yes,English,A,28,0,16,0,0,0,1,736.629,1,27,0,1.18394,0.891308
White,2,Right,18,Male,Yes,English,A,29,0,16,16,0,0,1,879.465,1,28,0,1.12418,0.94852
White,2,Right,18,Male,Yes,English,A,30,1,4,16,0,0,1,1070.44,1,29,0,1.03951,0.814376
White,2,Right,18,Male,Yes,English,A,31,0,0,8,180,1,1,923.399,1,30,0,1.18613,0.916615
White,2,Right,18,Male,Yes,English,A,32,1,0,0,180,1,1,535.37,1,31,0,1.14241,0.888311
White,2,Right,18,Male,Yes,English,A,33,1,0,0,0,0,1,709.711,1,32,1,1.00048,0.829598
White,2,Right,18,Male,Yes,English,A,34,1,4,16,0,0,1,961.55,1,33,1,1.143,0.802824
White,2,Right,18,Male,Yes,English,A,35,0,4,8,0,0,1,1187.61,1,34,1,1.11013,0.936838
White,2,Right,18,Male,Yes,English,A,36,0,16,8,180,1,1,672.788,1,35,1,1.01441,0.812801
White,2,Right,18,Male,Yes,English,A,37,1,0,4,0,0,1,958.688,1,36,1,1.1906,0.945312
White,2,Right,18,Male,Yes,English,A,38,1,8,16,180,1,1,844.55,1,37,1,1.00482,0.911795
White,2,Right,18,Male,Yes,English,A,39,0,0,4,180,1,1,585.621,1,38,1,1.12168,0.992242
White,2,Right,18,Male,Yes,English,A,40,0,16,0,180,1,1,1055.25,1,39,1,1.13182,0.844324
White,2,Right,18,Male,Yes,English,A,41,0,16,4,180,1,1,918.319,1,40,1,1.03127,0.89823
White,2,Right,18,Male,Yes,English,A,42,0,8,16,0,0,1,711.337,1,41,1,1.04802,0.97304
White,2,Right,18,Male,Yes,English,A,43,1,4,8,180,1,1,522.906,1,42,1,1.10085,0.843238
White,2,Right,18,Male,Yes,English,A,44,1,0,8,0,0,1,776.036,1,43,1,1.15248,0.865883
White,2,Right,18,Male,Yes,English,A,45,0,4,4,180,1,1,848.76,1,44,1,1.01871,0.834358
White,2,Right,18,Male,Yes,English,A,46,0,8,8,0,0,1,733.053,1,45,1,1.10809,0.880973
White,2,Right,18,Male,Yes,English,A,47,1,0,16,0,0,1,790.452,1,46,1,1.04051,0.808628
White,2,Right,18,Male,Yes,English,A,48,0,0,8,180,1,1,689.098,1,47,1,1.13593,0.84006
White,2,Right,18,Male,Yes,English,A,49,1,16,0,180,1,1,704.839,1,48,1,1.12062,0.800179
White,2,Right,18,Male,Yes,English,A,50,1,16,16,180,1,1,650.084,1,49,1,1.03827,0.95182
White,2,Right,18,Male,Yes,English,A,51,0,8,4,180,1,1,846.555,1,50,1,1.16719,0.809559
White,2,Right,18,Male,Yes,English,A,52,0,8,0,0,0,1,1163.08,1,51,1,1.08666,0.991589
White,2,Right,18,Male,Yes,English,A,53,1,4,0,0,0,1,965.362,1,52,1,1.0414,0.900388
White,2,Right,18,Male,Yes,English,A,54,1,4,4,180,1,1,866.716,1,53,1,1.04694,0.887532
White,2,Right,18,Male,Yes,English,A,55,0,0,16,180,1,1,815.778,1,54,1,1.07282,0.823576
White,2,Right,18,Male,Yes,English,A,56,0,4,0,0,0,1,976.649,1,55,1,1.07955,0.84546
White,2,Right,18,Male,Yes,English,A,57,1,8,8,0,0,1,1434.13,1,56,1,1.17416,0.848517
White,2,Right,18,Male,Yes,English,A,58,1,16,4,180,1,1,778.813,1,57,1,1.03473,0.990238
White,2,Right,18,Male,Yes,English,A,59,0,16,16,0,0,1,793.823,1,58,1,1.0721,0.897897
White,2,Right,18,Male,Yes,English,A,60,1,8,4,180,1,1,1054.94,1,59,1,1.12961,0.918803
White,2,Right,18,Male,Yes,English,A,61,0,0,0,0,0,1,660.544,1,60,1,1.00758,0.885265
White,2,Right,18,Male,Yes,English,A,62,1,8,0,180,1,1,854.34,1,61,1,1.03396,0.910707
White,2,Right,18,Male,Yes,English,A,63,1,16,8,0,0,1,773.267,1,62,1,1.19447,0.882771
White,2,Right,18,Male,Yes,English,A,64,0,4,16,0,0,1,856.789,1,63,1,1.13044,0.989115
White,2,Right,18,Male,Yes,English,A,65,0,0,8,0,0,1,938.124,1,64,2,1.06732,0.903403
White,2,Right,18,Male,Yes,English,A,66,0,4,8,0,0,1,1106.14,1,65,2,1.0834,0.985296
White,2,Right,18,Male,Yes,English,A,67,1,16,0,180,1,1,831.918,1,66,2,1.00419,0.972638
White,2,Right,18,Male,Yes,English,A,68,0,4,4,0,0,1,785.362,1,67,2,1.09882,0.879789
White,2,Right,18,Male,Yes,English,A,69,0,8,8,0,0,1,754.852,1,68,2,1.08937,0.959898
White,2,Right,18,Male,Yes,English,A,70,0,8,16,180,1,1,1107.44,1,69,2,1.07125,0.854022
White,2,Right,18,Male,Yes,English,A,71,1,8,0,180,1,1,682.783,1,70,2,1.08359,0.868806
White,2,Right,18,Male,Yes,English,A,72,0,16,16,180,1,1,766.811,1,71,2,1.18076,0.834916
White,2,Right,18,Male,Yes,English,A,73,1,8,8,180,1,1,1141.35,1,72,2,1.0039,0.804934
White,2,Right,18,Male,Yes,English,A,74,0,16,8,0,0,1,761.043,1,73,2,1.08924,0.961645
White,2,Right,18,Male,Yes,English,A,75,0,16,0,180,1,1,726.365,1,74,2,1.05284,0.95041
White,2,Right,18,Male,Yes,English,A,76,1,16,8,0,0,1,1557.51,1,75,2,1.11372,0.802642
White,2,Right,18,Male,Yes,English,A,77,1,16,16,0,0,1,848.029,1,76,2,1.01198,0.922537
White,2,Right,18,Male,Yes,English,A,78,1,0,4,0,0,1,810.106,1,77,2,1.12557,0.974901
White,2,Right,18,Male,Yes,English,A,79,1,8,16,0,0,1,620.916,1,78,2,1.107,0.975272
White,2,Right,18,Male,Yes,English,A,80,0,0,4,180,1,1,827.11,1,79,2,1.05277,0.830373
White,2,Right,18,Male,Yes,English,A,81,0,16,4,0,0,1,978.038,1,80,2,1.10154,0.949732
White,2,Right,18,Male,Yes,English,A,82,1,4,8,0,0,1,1231.74,1,81,2,1.04941,0.886743
White,2,Right,18,Male,Yes,English,A,83,0,8,0,180,1,1,878.917,1,82,2,1.00419,0.961737
White,2,Right,18,Male,Yes,English,A,84,0,0,16,0,0,1,1839.9,1,83,2,1.17951,0.902031
White,2,Right,18,Male,Yes,English,A,85,1,0,16,180,1,1,1311.65,1,84,2,1.06865,0.951953
White,2,Right,18,Male,Yes,English,A,86,0,0,0,0,0,1,626.904,1,85,2,1.19273,0.827727
White,2,Right,18,Male,Yes,English,A,87,1,0,0,180,1,1,662.219,1,86,2,1.08478,0.928834
White,2,Right,18,Male,Yes,English,A,88,0,8,4,180,1,1,816.841,1,87,2,1.17296,0.869963
White,2,Right,18,Male,Yes,English,A,89,1,16,4,180,1,1,795.008,1,88,2,1.15287,0.902363
White,2,Right,18,Male,Yes,English,A,90,0,4,0,180,1,1,915.634,1,89,2,1.16272,0.915229
White,2,Right,18,Male,Yes,English,A,91,1,0,8,180,1,1,704.395,1,90,2,1.09166,0.943946
White,2,Right,18,Male,Yes,English,A,92,1,4,4,0,0,1,616.057,1,91,2,1.11109,0.875359
White,2,Right,18,Male,Yes,English,A,93,1,8,4,0,0,1,481.655,1,92,2,1.03257,0.933946
White,2,Right,18,Male,Yes,English,A,94,1,4,16,180,1,1,1213.48,1,93,2,1.08988,0.954186
White,2,Right,18,Male,Yes,English,A,95,1,4,0,180,1,1,567.055,1,94,2,1.1432,0.814759
White,2,Right,18,Male,Yes,English,A,96,0,4,16,0,0,1,847.428,1,95,2,1.10428,0.983757
White,2,Right,18,Male,Yes,English,A,97,1,8,4,0,0,1,1053.6,1,96,3,1.16211,0.869161
White,2,Right,18,Male,Yes,English,A,98,1,16,4,180,1,1,728.371,1,97,3,1.02128,0.955048
White,2,Right,18,Male,Yes,English,A,99,0,0,8,180,1,1,817.695,1,98,3,1.02271,0.801676
White,2,Right,18,Male,Yes,English,A,100,0,8,4,0,0,1,644.534,1,99,3,1.06124,0.846988
White,2,Right,18,Male,Yes,English,A,101,1,4,16,180,1,1,928.69,1,100,3,1.19876,0.965646
White,2,Right,18,Male,Yes,English,A,102,1,8,8,0,0,1,693.803,1,101,3,1.18929,0.900516
White,2,Right,18,Male,Yes,English,A,103,1,0,8,0,0,1,641.602,1,102,3,1.01732,0.829673
White,2,Right,18,Male,Yes,English,A,104,0,4,16,0,0,1,760.242,1,103,3,1.13463,0.806253
White,2,Right,18,Male,Yes,English,A,105,0,4,4,180,1,1,1253.38,1,104,3,1.00243,0.848394
White,2,Right,18,Male,Yes,English,A,106,0,8,8,0,0,1,802.21,1,105,3,1.13052,0.816064
White,2,Right,18,Male,Yes,English,A,107,0,4,0,180,1,1,1259.72,1,106,3,1.11791,0.823385
White,2,Right,18,Male,Yes,English,A,108,0,8,16,180,1,1,775.484,1,107,3,1.081,0.977124
White,2,Right,18,Male,Yes,English,A,109,1,0,16,180,1,1,850.568,1,108,3,1.13355,0.817
White,2,Right,18,Male,Yes,English,A,110,0,16,16,180,1,1,999.994,1,109,3,1.19265,0.959223
White,2,Right,18,Male,Yes,English,A,111,1,4,8,0,0,1,804.546,1,110,3,1.07519,0.852622
White,2,Right,18,Male,Yes,English,A,112,1,4,0,180,1,1,941.218,1,111,3,1.16061,0.946636
White,2,Right,18,Male,Yes,English,A,113,0,16,0,180,1,1,1066.63,1,112,3,1.07463,0.80299
White,2,Right,18,Male,Yes,English,A,114,1,16,0,180,1,1,527.964,1,113,3,1.08546,0.912127
White,2,Right,18,Male,Yes,English,A,115,1,8,0,0,0,1,719.045,1,114,3,1.06138,0.915398
White,2,Right,18,Male,Yes,English,A,116,0,0,0,180,1,1,590.065,1,115,3,1.09641,0.952188
White,2,Right,18,Male,Yes,English,A,117,0,4,8,0,0,1,772.425,1,116,3,1.0172,0.811518
White,2,Right,18,Male,Yes,English,A,118,0,16,8,0,0,1,751.962,1,117,3,1.10672,0.962716
White,2,Right,18,Male,Yes,English,A,119,1,4,4,0,0,1,909.625,1,118,3,1.04745,0.950292
White,2,Right,18,Male,Yes,English,A,120,0,0,16,180,1,1,841.511,1,119,3,1.08957,0.91536
White,2,Right,18,Male,Yes,English,A,121,1,0,0,0,0,1,610.505,1,120,3,1.07994,0.85827
White,2,Right,18,Male,Yes,English,A,122,0,8,0,0,0,1,1197.84,1,121,3,1.02577,0.861349
White,2,Right,18,Male,Yes,English,A,123,1,0,4,0,0,1,566.17,1,122,3,1.17191,0.866741
White,2,Right,18,Male,Yes,English,A,124,0,16,4,0,0,1,789.096,1,123,3,1.18007,0.885759
White,2,Right,18,Male,Yes,English,A,125,1,16,16,180,1,1,842.001,1,124,3,1.14905,0.981698
White,2,Right,18,Male,Yes,English,A,126,0,0,4,0,0,1,522.16,1,125,3,1.01502,0.905836
White,2,Right,18,Male,Yes,English,A,127,1,16,8,180,1,1,890.043,1,126,3,1.0596,0.922749
White,2,Right,18,Male,Yes,English,A,128,1,8,16,180,1,1,962.713,1,127,3,1.15297,0.847066
White,2,Right,18,Male,Yes,English,A,129,0,0,8,0,0,1,656.845,1,128,4,1.13987,0.96177
White,2,Right,18,Male,Yes,English,A,130,1,16,16,180,1,1,736.748,1,129,4,1.01092,0.817161
White,2,Right,18,Male,Yes,English,A,131,1,8,8,0,0,1,768.245,1,130,4,1.03599,0.850004
White,2,Right,18,Male,Yes,English,A,132,0,4,16,180,1,1,786.651,1,131,4,1.00811,0.845777
White,2,Right,18,Male,Yes,English,A,133,0,0,0,180,1,1,514.402,1,132,4,1.05048,0.978701
White,2,Right,18,Male,Yes,English,A,134,1,4,16,180,1,1,588.091,1,133,4,1.11903,0.851849
White,2,Right,18,Male,Yes,English,A,135,0,8,8,0,0,1,1033.49,1,134,4,1.18767,0.932959
White,2,Right,18,Male,Yes,English,A,136,1,0,0,0,0,1,605.463,1,135,4,1.05388,0.805281
White,2,Right,18,Male,Yes,English,A,137,0,16,8,180,1,1,1371.68,1,136,4,1.04892,0.87921
White,2,Right,18,Male,Yes,English,A,138,0,4,4,180,1,1,679.118,1,137,4,1.09267,0.835517
White,2,Right,18,Male,Yes,English,A,139,0,0,16,0,0,1,1428.27,1,138,4,1.07428,0.87419
White,2,Right,18,Male,Yes,English,A,140,0,4,8,0,0,1,841.062,1,139,4,1.01687,0.867517
White,2,Right,18,Male,Yes,English,A,141,0,16,4,180,1,1,734.096,1,140,4,1.16575,0.92599
White,2,Right,18,Male,Yes,English,A,142,0,8,4,0,0,1,858.894,1,141,4,1.11967,0.818935
White,2,Right,18,Male,Yes,English,A,143,0,4,0,180,1,1,792.888,1,142,4,1.15925,0.804064
White,2,Right,18,Male,Yes,English,A,144,0,8,16,180,1,1,1139.44,1,143,4,1.07186,0.945036
White,2,Right,18,Male,Yes,English,A,145,1,4,0,180,1,1,1073.03,1,144,4,1.0239,0.844732
White,2,Right,18,Male,Yes,English,A,146,0,16,16,0,0,1,773.164,1,145,4,1.13134,0.924391
White,2,Right,18,Male,Yes,English,A,147,0,0,4,180,1,1,688.209,1,146,4,1.0448,0.933306
White,2,Right,18,Male,Yes,English,A,148,0,8,0,0,0,1,648.892,1,147,4,1.14368,0.894187
White,2,Right,18,Male,Yes,English,A,149,1,4,8,180,1,1,948.586,1,148,4,1.19501,0.871618
White,2,Right,18,Male,Yes,English,A,150,1,8,16,0,0,1,615.834,1,149,4,1.16551,0.994951
White,2,Right,18,Male,Yes,English,A,151,1,16,4,180,1,1,748.947,1,150,4,1.09173,0.903666
White,2,Right,18,Male,Yes,English,A,152,1,8,0,0,0,1,531.004,1,151,4,1.05188,0.899054
White,2,Right,18,Male,Yes,English,A,153,1,0,8,0,0,1,823.983,1,152,4,1.08108,0.996454
White,2,Right,18,Male,Yes,English,A,154,1,0,16,0,0,1,726.24,1,153,4,1.06547,0.833373
White,2,Right,18,Male,Yes,English,A,155,1,16,8,180,1,1,749.557,1,154,4,1.08688,0.950452
White,2,Right,18,Male,Yes,English,A,156,1,0,4,180,1,1,618.024,1,155,4,1.04835,0.974524
White,2,Right,18,Male,Yes,English,A,157,1,16,0,0,0,1,595.421,1,156,4,1.11137,0.985466
White,2,Right,18,Male,Yes,English,A,158,1,8,4,0,0,1,629.658,1,157,4,1.17805,0.944237
White,2,Right,18,Male,Yes,English,A,159,1,4,4,180,1,1,689.193,1,158,4,1.02724,0.810417
White,2,Right,18,Male,Yes,English,A,160,0,16,0,0,0,1,724.435,1,159,4,1.0514,0.928183
White,2,Right,18,Male,Yes,English,A,161,0,8,4,0,0,1,1034.41,1,160,5,1.13912,0.907071
White,2,Right,18,Male,Yes,English,A,162,0,8,0,0,0,1,681.678,1,161,5,1.1638,0.975624
White,2,Right,18,Male,Yes,English,A,163,1,0,8,0,0,1,777.379,1,162,5,1.13718,0.916196
White,2,Right,18,Male,Yes,English,A,164,1,0,4,180,1,1,618.306,1,163,5,1.14412,0.924943
White,2,Right,18,Male,Yes,English,A,165,0,0,0,180,1,1,675.956,1,164,5,1.11568,0.95634
White,2,Right,18,Male,Yes,English,A,166,1,4,4,180,1,1,710.551,1,165,5,1.08976,0.876934
White,2,Right,18,Male,Yes,English,A,167,1,16,4,0,0,1,681.385,1,166,5,1.12008,0.820404
White,2,Right,18,Male,Yes,English,A,168,0,0,8,180,1,1,843.477,1,167,5,1.0831,0.924931
White,2,Right,18,Male,Yes,English,A,169,0,4,8,0,0,1,739.932,1,168,5,1.00925,0.974655
White,2,Right,18,Male,Yes,English,A,170,1,0,16,180,1,1,825.66,1,169,5,1.03948,0.968283
White,2,Right,18,Male,Yes,English,A,171,0,0,4,0,0,1,920.034,1,170,5,1.14363,0.885305
White,2,Right,18,Male,Yes,English,A,172,0,8,8,180,1,1,857.951,1,171,5,1.00245,0.868712
White,2,Right,18,Male,Yes,English,A,173,0,4,4,180,1,1,736.045,1,172,5,1.02322,0.867269
White,2,Right,18,Male,Yes,English,A,174,1,4,16,0,0,1,1347.11,1,173,5,1.12976,0.907115
White,2,Right,18,Male,Yes,English,A,175,1,16,0,0,0,1,1088.97,1,174,5,1.01083,0.837073
White,2,Right,18,Male,Yes,English,A,176,0,4,16,180,1,1,946.144,1,175,5,1.07521,0.894592
White,2,Right,18,Male,Yes,English,A,177,1,16,16,180,1,1,594.153,1,176,5,1.17353,0.942003
White,2,Right,18,Male,Yes,English,A,178,1,8,16,0,0,1,1116.86,1,177,5,1.08473,0.893407
White,2,Right,18,Male,Yes,English,A,179,0,4,0,0,0,1,805.708,1,178,5,1.13732,0.820811
White,2,Right,18,Male,Yes,English,A,180,1,8,0,180,1,1,1245.88,1,179,5,1.0132,0.952945
White,2,Right,18,Male,Yes,English,A,181,1,0,0,180,1,1,722.367,1,180,5,1.00759,0.948359
White,2,Right,18,Male,Yes,English,A,182,0,0,16,0,0,1,697.476,1,181,5,1.15091,0.812796
White,2,Right,18,Male,Yes,English,A,183,0,16,0,180,1,1,1143.63,1,182,5,1.06621,0.947953
White,2,Right,18,Male,Yes,English,A,184,0,16,8,0,0,1,765.425,1,183,5,1.14756,0.948554
White,2,Right,18,Male,Yes,English,A,185,1,8,4,180,1,1,652.782,1,184,5,1.02271,0.985011
White,2,Right,18,Male,Yes,English,A,186,1,8,8,180,1,1,1065.09,1,185,5,1.19186,0.830623
White,2,Right,18,Male,Yes,English,A,187,1,4,8,0,0,1,674.24,1,186,5,1.04965,0.837457
White,2,Right,18,Male,Yes,English,A,188,0,16,16,0,0,1,709.076,1,187,5,1.13926,0.932842
White,2,Right,18,Male,Yes,English,A,189,0,16,4,0,0,1,911.852,1,188,5,1.09465,0.920127
White,2,Right,18,Male,Yes,English,A,190,1,16,8,180,1,1,625.911,1,189,5,1.06405,0.905995
White,2,Right,18,Male,Yes,English,A,191,0,8,16,180,1,1,885.725,1,190,5,1.09169,0.974769
White,2,Right,18,Male,Yes,English,A,192,1,4,0,0,0,1,691.666,1,191,5,1.18966,0.906024
White,2,Right,18,Male,Yes,English,A,193,0,16,16,180,1,1,1257.06,1,192,6,1.00061,0.90588
White,2,Right,18,Male,Yes,English,A,194,1,0,16,0,0,1,607.254,1,193,6,1.05368,0.819752
White,2,Right,18,Male,Yes,English,A,195,1,4,8,0,0,1,696.559,1,194,6,1.06701,0.895414
White,2,Right,18,Male,Yes,English,A,196,1,4,0,180,1,1,540.061,1,195,6,1.02852,0.8016
White,2,Right,18,Male,Yes,English,A,197,0,0,0,0,0,1,530.41,1,196,6,1.18583,0.934999
White,2,Right,18,Male,Yes,English,A,198,0,0,4,0,0,1,690.642,1,197,6,1.04988,0.841368
White,2,Right,18,Male,Yes,English,A,199,1,16,16,180,1,1,1257.36,1,198,6,1.03288,0.859017
White,2,Right,18,Male,Yes,English,A,200,0,4,4,180,1,1,668.556,1,199,6,1.09065,0.801301
White,2,Right,18,Male,Yes,English,A,201,1,8,0,180,1,1,609.446,1,200,6,1.15699,0.867774
White,2,Right,18,Male,Yes,English,A,202,1,4,16,180,1,1,683.696,1,201,6,1.04255,0.869959
White,2,Right,18,Male,Yes,English,A,203,0,4,8,180,1,1,1023.15,1,202,6,1.16399,0.938804
White,2,Right,18,Male,Yes,English,A,204,1,8,8,0,0,1,490.73,1,203,6,1.09276,0.853707
White,2,Right,18,Male,Yes,English,A,205,0,16,0,180,1,1,558.785,1,204,6,1.13593,0.862664
White,2,Right,18,Male,Yes,English,A,206,1,16,4,0,0,1,1253.19,1,205,6,1.05795,0.963818
White,2,Right,18,Male,Yes,English,A,207,0,8,4,0,0,1,2191.91,1,206,6,1.03698,0.900018
White,2,Right,18,Male,Yes,English,A,208,1,16,8,180,1,1,711.565,1,207,6,1.11494,0.815496
White,2,Right,18,Male,Yes,English,A,209,0,8,8,0,0,1,732.913,1,208,6,1.19845,0.827408
White,2,Right,18,Male,Yes,English,A,210,0,4,16,0,0,1,804.054,1,209,6,1.00629,0.80811
White,2,Right,18,Male,Yes,English,A,211,1,0,0,0,0,1,596.902,1,210,6,1.18715,0.871652
White,2,Right,18,Male,Yes,English,A,212,0,0,8,180,1,1,684.433,1,211,6,1.12083,0.983947
White,2,Right,18,Male,Yes,English,A,213,0,8,0,0,0,1,855.18,1,212,6,1.15539,0.966147
White,2,Right,18,Male,Yes,English,A,214,1,4,4,0,0,1,1300.74,1,213,6,1.10191,0.902203
White,2,Right,18,Male,Yes,English,A,215,0,8,16,180,1,1,771.989,1,214,6,1.18955,0.983882
White,2,Right,18,Male,Yes,English,A,216,0,16,8,0,0,1,1151.92,1,215,6,1.02585,0.85008
White,2,Right,18,Male,Yes,English,A,217,1,0,8,180,1,1,615.78,1,216,6,1.0278,0.993816
White,2,Right,18,Male,Yes,English,A,218,1,8,4,180,1,1,1091.86,1,217,6,1.07738,0.994109
White,2,Right,18,Male,Yes,English,A,219,1,0,4,180,1,1,725.531,1,218,6,1.0626,0.900658
White,2,Right,18,Male,Yes,English,A,220,0,0,16,0,0,1,756.088,1,219,6,1.15712,0.976445
White,2,Right,18,Male,Yes,English,A,221,1,8,16,0,0,1,611.142,1,220,6,1.19505,0.961099
White,2,Right,18,Male,Yes,English,A,222,0,4,0,180,1,1,779.026,1,221,6,1.06654,0.870695
White,2,Right,18,Male,Yes,English,A,223,0,16,4,0,0,1,926.024,1,222,6,1.04801,0.93032
White,2,Right,18,Male,Yes,English,A,224,1,16,0,180,0,0,749.383,1,223,6,1.00325,0.97676
White,2,Right,18,Male,Yes,English,A,225,1,16,8,180,1,1,791.77,1,224,7,1.12374,0.994226
White,2,Right,18,Male,Yes,English,A,226,1,4,8,0,0,1,744.295,1,225,7,1.04628,0.890198
White,2,Right,18,Male,Yes,English,A,227,1,0,16,180,1,1,639.431,1,226,7,1.18368,0.839274
White,2,Right,18,Male,Yes,English,A,228,1,16,4,0,0,1,947.177,1,227,7,1.1546,0.951116
White,2,Right,18,Male,Yes,English,A,229,0,4,16,0,0,1,837.254,1,228,7,1.04421,0.832221
White,2,Right,18,Male,Yes,English,A,230,0,8,8,0,0,1,994.13,1,229,7,1.04597,0.902987
White,2,Right,18,Male,Yes,English,A,231,0,4,0,180,1,1,753.958,1,230,7,1.1033,0.985939
White,2,Right,18,Male,Yes,English,A,232,1,4,0,180,1,1,1161.02,1,231,7,1.18595,0.888277
White,2,Right,18,Male,Yes,English,A,233,0,4,4,0,0,1,734.578,1,232,7,1.08927,0.825943
White,2,Right,18,Male,Yes,English,A,234,0,16,8,0,0,1,783.097,1,233,7,1.0125,0.879224
White,2,Right,18,Male,Yes,English,A,235,1,8,4,0,0,1,732.851,1,234,7,1.19889,0.825254
White,2,Right,18,Male,Yes,English,A,236,1,0,8,180,1,1,595.792,1,235,7,1.18226,0.943585
White,2,Right,18,Male,Yes,English,A,237,0,8,16,180,1,1,895.437,1,236,7,1.18809,0.9839
White,2,Right,18,Male,Yes,English,A,238,1,8,0,0,0,1,828.664,1,237,7,1.03656,0.956055
White,2,Right,18,Male,Yes,English,A,239,1,0,0,180,1,1,556.377,1,238,7,1.18551,0.817925
White,2,Right,18,Male,Yes,English,A,240,1,0,4,180,1,1,783.324,1,239,7,1.12705,0.991815
White,2,Right,18,Male,Yes,English,A,241,0,0,16,180,1,1,832.366,1,240,7,1.00131,0.884708
White,2,Right,18,Male,Yes,English,A,242,0,0,8,0,0,1,1134.83,1,241,7,1.03828,0.926063
White,2,Right,18,Male,Yes,English,A,243,0,0,0,0,0,1,844.55,1,242,7,1.07181,0.844039
White,2,Right,18,Male,Yes,English,A,244,0,8,4,180,1,1,657.778,1,243,7,1.08494,0.864774
White,2,Right,18,Male,Yes,English,A,245,0,0,4,180,1,1,638.696,1,244,7,1.03239,0.886243
White,2,Right,18,Male,Yes,English,A,246,0,8,0,0,0,1,1006.23,1,245,7,1.06273,0.890195
White,2,Right,18,Male,Yes,English,A,247,1,8,8,180,1,1,857.994,1,246,7,1.17151,0.897214
White,2,Right,18,Male,Yes,English,A,248,0,16,16,0,0,1,1011.25,1,247,7,1.16619,0.85471
White,2,Right,18,Male,Yes,English,A,249,1,16,0,0,0,1,696.954,1,248,7,1.02514,0.978232
White,2,Right,18,Male,Yes,English,A,250,1,8,16,180,1,1,768.36,1,249,7,1.01071,0.967448
White,2,Right,18,Male,Yes,English,A,251,1,16,16,0,0,1,725.899,1,250,7,1.02376,0.949948
White,2,Right,18,Male,Yes,English,A,252,1,4,16,0,0,1,806.158,1,251,7,1.05775,0.986394
White,2,Right,18,Male,Yes,English,A,253,0,16,4,0,0,1,789.901,1,252,7,1.09386,0.806051
White,2,Right,18,Male,Yes,English,A,254,1,4,4,180,1,1,710.891,1,253,7,1.09881,0.846918
White,2,Right,18,Male,Yes,English,A,255,0,4,8,180,1,1,1260.03,1,254,7,1.06341,0.832372
White,2,Right,18,Male,Yes,English,A,256,0,16,0,180,1,1,729.772,1,255,7,1.07695,0.988415
White,2,Right,18,Male,Yes,English,A,257,1,4,16,0,0,1,679.802,1,256,8,1.0571,0.876054
White,2,Right,18,Male,Yes,English,A,258,1,4,4,180,1,1,715.695,1,257,8,1.10795,0.93749
White,2,Right,18,Male,Yes,English,A,259,1,4,0,180,1,1,730.729,1,258,8,1.18007,0.902724
White,2,Right,18,Male,Yes,English,A,260,0,16,8,0,0,1,656.452,1,259,8,1.1139,0.920882
White,2,Right,18,Male,Yes,English,A,261,0,8,16,0,0,1,659.962,1,260,8,1.09537,0.93896
White,2,Right,18,Male,Yes,English,A,262,0,16,16,180,1,1,661.593,1,261,8,1.15344,0.833601
White,2,Right,18,Male,Yes,English,A,263,1,8,16,0,0,1,759.889,1,262,8,1.15563,0.952772
White,2,Right,18,Male,Yes,English,A,264,1,8,8,180,1,1,563.493,1,263,8,1.10132,0.800108
White,2,Right,18,Male,Yes,English,A,265,0,4,8,180,1,1,830.505,1,264,8,1.15573,0.868702
White,2,Right,18,Male,Yes,English,A,266,0,4,0,0,0,1,583.133,1,265,8,1.16934,0.878694
White,2,Right,18,Male,Yes,English,A,267,1,0,16,0,0,1,665.024,1,266,8,1.15725,0.921872
White,2,Right,18,Male,Yes,English,A,268,0,0,16,0,0,1,957.614,1,267,8,1.15215,0.845527
White,2,Right,18,Male,Yes,English,A,269,0,0,8,0,0,1,589.13,1,268,8,1.18632,0.843777
White,2,Right,18,Male,Yes,English,A,270,0,4,4,180,1,1,664.412,1,269,8,1.04253,0.818642
White,2,Right,18,Male,Yes,English,A,271,1,16,16,0,0,1,733.062,1,270,8,1.16018,0.893349
White,2,Right,18,Male,Yes,English,A,272,0,16,0,180,1,1,1127.37,1,271,8,1.16364,0.902651
White,2,Right,18,Male,Yes,English,A,273,1,0,4,180,1,1,822.676,1,272,8,1.16406,0.809202
White,2,Right,18,Male,Yes,English,A,274,0,16,4,180,1,1,1234.44,1,273,8,1.00514,0.97406
White,2,Right,18,Male,Yes,English,A,275,1,4,8,0,0,1,907.766,1,274,8,1.01112,0.902399
White,2,Right,18,Male,Yes,English,A,276,0,0,0,0,0,1,688.773,1,275,8,1.04212,0.816503
White,2,Right,18,Male,Yes,English,A,277,1,16,8,180,1,1,1627.41,1,276,8,1.02673,0.82707
White,2,Right,18,Male,Yes,English,A,278,1,0,0,0,0,1,629.146,1,277,8,1.11388,0.8164
White,2,Right,18,Male,Yes,English,A,279,1,8,0,0,0,1,827.718,1,278,8,1.03478,0.822522
White,2,Right,18,Male,Yes,English,A,280,0,8,8,180,1,1,1065.72,1,279,8,1.16282,0.916993
White,2,Right,18,Male,Yes,English,A,281,0,4,16,180,1,1,1748.54,1,280,8,1.05354,0.897523
White,2,Right,18,Male,Yes,English,A,282,0,0,4,0,0,1,566.961,1,281,8,1.18282,0.855632
White,2,Right,18,Male,Yes,English,A,283,1,8,4,180,1,1,592.43,1,282,8,1.08141,0.909354
White,2,Right,18,Male,Yes,English,A,284,1,0,8,180,1,1,975.182,1,283,8,1.13364,0.994567
White,2,Right,18,Male,Yes,English,A,285,1,16,0,0,0,1,684.628,1,284,8,1.18213,0.940278
White,2,Right,18,Male,Yes,English,A,286,0,8,0,180,1,1,608.911,1,285,8,1.15195,0.877604
White,2,Right,18,Male,Yes,English,A,287,1,16,4,0,0,1,646.666,1,286,8,1.01087,0.802015
White,2,Right,18,Male,Yes,English,A,288,0,8,4,180,1,1,970.681,1,287,8,1.07117,0.968171
White,2,Right,18,Male,Yes,English,A,289,0,8,16,180,1,1,897.027,1,288,9,1.19987,0.807681
White,2,Right,18,Male,Yes,English,A,290,1,4,4,0,0,1,854.646,1,289,9,1.17782,0.862738
White,2,Right,18,Male,Yes,English,A,291,0,16,4,180,1,1,760.009,1,290,9,1.01309,0.907643
White,2,Right,18,Male,Yes,English,A,292,1,4,8,180,1,1,823.636,1,291,9,1.06811,0.985258
White,2,Right,18,Male,Yes,English,A,293,0,4,0,180,1,1,513.398,1,292,9,1.06921,0.887659
White,2,Right,18,Male,Yes,English,A,294,0,16,16,0,0,1,705.717,1,293,9,1.05292,0.850017
White,2,Right,18,Male,Yes,English,A,295,1,0,4,180,1,1,663.226,1,294,9,1.0922,0.843274
White,2,Right,18,Male,Yes,English,A,296,0,0,4,0,0,1,963.865,1,295,9,1.07489,0.819853
White,2,Right,18,Male,Yes,English,A,297,0,0,16,0,0,1,717.297,1,296,9,1.08509,0.953756
White,2,Right,18,Male,Yes,English,A,298,0,4,8,180,1,1,692.382,1,297,9,1.14881,0.883443
White,2,Right,18,Male,Yes,English,A,299,1,16,0,180,1,1,931.647,1,298,9,1.06691,0.850511
White,2,Right,18,Male,Yes,English,A,300,0,8,4,0,0,1,719.94,1,299,9,1.14227,0.950811
White,2,Right,18,Male,Yes,English,A,301,1,0,8,0,0,1,1428.56,1,300,9,1.01064,0.841961
White,2,Right,18,Male,Yes,English,A,302,0,8,8,180,1,1,935.75,1,301,9,1.11207,0.810885
White,2,Right,18,Male,Yes,English,A,303,0,16,8,0,0,1,738.059,1,302,9,1.07302,0.834005
White,2,Right,18,Male,Yes,English,A,304,1,16,8,180,1,1,599.183,1,303,9,1.09833,0.867694
White,2,Right,18,Male,Yes,English,A,305,1,0,16,180,1,1,868.355,1,304,9,1.00967,0.989471
White,2,Right,18,Male,Yes,English,A,306,0,4,16,0,0,1,1005.89,1,305,9,1.00604,0.831871
White,2,Right,18,Male,Yes,English,A,307,1,8,8,0,0,1,736.157,1,306,9,1.11244,0.987781
White,2,Right,18,Male,Yes,English,A,308,0,8,0,0,0,1,893.617,1,307,9,1.1619,0.967016
White,2,Right,18,Male,Yes,English,A,309,1,8,4,180,1,1,861.975,1,308,9,1.04794,0.994933
White,2,Right,18,Male,Yes,English,A,310,1,4,0,180,1,1,1083.52,1,309,9,1.11241,0.848289
White,2,Right,18,Male,Yes,English,A,311,0,4,4,180,1,1,550.674,1,310,9,1.15443,0.896808
White,2,Right,18,Male,Yes,English,A,312,1,0,0,0,0,1,665.097,1,311,9,1.1791,0.89285
White,2,Right,18,Male,Yes,English,A,313,0,0,8,0,0,1,856.289,1,312,9,1.03514,0.80169
White,2,Right,18,Male,Yes,English,A,314,0,16,0,0,0,1,854.131,1,313,9,1.10165,0.879669
White,2,Right,18,Male,Yes,English,A,315,1,16,16,0,0,1,951.401,1,314,9,1.14093,0.823705
White,2,Right,18,Male,Yes,English,A,316,1,16,4,180,1,1,919.866,1,315,9,1.00715,0.951967
White,2,Right,18,Male,Yes,English,A,317,0,0,0,180,1,1,640.95,1,316,9,1.0473,0.818809
White,2,Right,18,Male,Yes,English,A,318,1,4,16,0,0,1,834.027,1,317,9,1.04942,0.841595
White,2,Right,18,Male,Yes,English,A,319,1,8,16,0,0,1,817.005,1,318,9,1.17572,0.829257
White,2,Right,18,Male,Yes,English,A,320,1,8,0,180,1,1,707.582,1,319,9,1.05592,0.979465
White,2,Right,18,Male,Yes,English,A,321,0,4,0,0,0,1,1138.09,1,320,10,1.13074,0.910039
White,2,Right,18,Male,Yes,English,A,322,1,16,16,180,1,1,626.465,1,321,10,1.15682,0.811445
White,2,Right,18,Male,Yes,English,A,323,0,4,16,0,0,1,736.436,1,322,10,1.08736,0.891926
White,2,Right,18,Male,Yes,English,A,324,1,4,4,180,1,1,460.184,1,323,10,1.07012,0.899573
White,2,Right,18,Male,Yes,English,A,325,0,8,0,0,0,1,747.051,1,324,10,1.16731,0.836144
White,2,Right,18,Male,Yes,English,A,326,0,4,4,180,1,1,674.752,1,325,10,1.02795,0.908626
White,2,Right,18,Male,Yes,English,A,327,1,0,0,180,1,1,653.182,1,326,10,1.16673,0.862681
White,2,Right,18,Male,Yes,English,A,328,0,0,0,0,0,1,698.92,1,327,10,1.02697,0.997183
White,2,Right,18,Male,Yes,English,A,329,1,4,8,0,0,1,592.87,1,328,10,1.10685,0.908941
White,2,Right,18,Male,Yes,English,A,330,1,8,0,0,0,1,676.596,1,329,10,1.17556,0.92244
White,2,Right,18,Male,Yes,English,A,331,1,0,4,180,1,1,541.321,1,330,10,1.06124,0.86816
White,2,Right,18,Male,Yes,English,A,332,1,8,16,0,0,1,1031.9,1,331,10,1.15143,0.888752
White,2,Right,18,Male,Yes,English,A,333,1,0,8,180,1,1,687.269,1,332,10,1.17842,0.923508
White,2,Right,18,Male,Yes,English,A,334,0,16,0,0,0,1,803.327,1,333,10,1.01364,0.863467
White,2,Right,18,Male,Yes,English,A,335,1,4,0,0,0,1,774.654,1,334,10,1.16814,0.884575
White,2,Right,18,Male,Yes,English,A,336,1,8,4,0,0,1,789.213,1,335,10,1.12774,0.806074
White,2,Right,18,Male,Yes,English,A,337,1,16,0,0,0,1,751.299,1,336,10,1.14518,0.823439
White,2,Right,18,Male,Yes,English,A,338,0,4,8,180,1,1,747.424,1,337,10,1.15485,0.934589
White,2,Right,18,Male,Yes,English,A,339,1,0,16,180,1,1,736.873,1,338,10,1.06979,0.954348
White,2,Right,18,Male,Yes,English,A,340,0,8,8,180,1,1,1104.86,1,339,10,1.13639,0.92829
White,2,Right,18,Male,Yes,English,A,341,0,8,4,180,1,1,773.144,1,340,10,1.15954,0.90174
White,2,Right,18,Male,Yes,English,A,342,0,16,16,0,0,1,715.183,1,341,10,1.1788,0.989779
White,2,Right,18,Male,Yes,English,A,343,0,16,4,0,0,1,950.41,1,342,10,1.0705,0.884798
White,2,Right,18,Male,Yes,English,A,344,0,0,8,180,1,1,684.239,1,343,10,1.10258,0.941769
White,2,Right,18,Male,Yes,English,A,345,1,16,8,0,0,1,973.244,1,344,10,1.15978,0.929677
White,2,Right,18,Male,Yes,English,A,346,0,16,8,180,1,1,812.357,1,345,10,1.02156,0.949017
White,2,Right,18,Male,Yes,English,A,347,1,8,8,180,1,1,1171.96,1,346,10,1.18073,0.928579
White,2,Right,18,Male,Yes,English,A,348,1,16,4,0,0,1,781.005,1,347,10,1.0421,0.934868
White,2,Right,18,Male,Yes,English,A,349,0,8,16,180,1,1,946.271,1,348,10,1.12504,0.96235
White,2,Right,18,Male,Yes,English,A,350,0,0,16,0,0,1,830.318,1,349,10,1.05905,0.86768
White,2,Right,18,Male,Yes,English,A,351,0,0,4,180,1,1,1617.03,1,350,10,1.18399,0.928177
White,2,Right,18,Male,Yes,English,A,352,1,4,16,180,1,1,608.131,1,351,10,1.09889,0.888666
White,2,Right,18,Male,Yes,English,A,353,1,4,8,180,1,1,834.602,1,352,11,1.02114,0.95499
White,2,Right,18,Male,Yes,English,A,354,0,16,4,0,0,1,1012.32,1,353,11,1.09878,0.801525
White,2,Right,18,Male,Yes,English,A,355,0,0,8,180,1,1,911.829,1,354,11,1.07827,0.936216
White,2,Right,18,Male,Yes,English,A,356,1,8,16,0,0,1,809.349,1,355,11,1.03819,0.952221
White,2,Right,18,Male,Yes,English,A,357,1,16,8,0,0,1,1174.6,1,356,11,1.17434,0.870079
White,2,Right,18,Male,Yes,English,A,358,0,8,16,0,0,1,868.784,1,357,11,1.0778,0.92349
White,2,Right,18,Male,Yes,English,A,359,0,8,0,180,1,1,809.491,1,358,11,1.14617,0.974334
White,2,Right,18,Male,Yes,English,A,360,0,4,4,0,0,1,881.428,1,359,11,1.04923,0.969732
White,2,Right,18,Male,Yes,English,A,361,0,8,4,0,0,1,774.685,1,360,11,1.10745,0.855175
White,2,Right,18,Male,Yes,English,A,362,0,4,16,180,1,1,693.154,1,361,11,1.15241,0.866729
White,2,Right,18,Male,Yes,English,A,363,1,0,0,0,0,1,822.577,1,362,11,1.17695,0.959485
White,2,Right,18,Male,Yes,English,A,364,1,8,4,0,0,1,677.93,1,363,11,1.11498,0.936692
White,2,Right,18,Male,Yes,English,A,365,0,0,4,180,1,1,597.652,1,364,11,1.04077,0.9955
White,2,Right,18,Male,Yes,English,A,366,1,4,16,180,1,1,706.408,1,365,11,1.07536,0.926229
White,2,Right,18,Male,Yes,English,A,367,1,16,4,180,1,1,549.305,1,366,11,1.16794,0.891141
White,2,Right,18,Male,Yes,English,A,368,1,8,0,180,1,1,884.041,1,367,11,1.06306,0.85695
White,2,Right,18,Male,Yes,English,A,369,0,0,16,0,0,1,938.566,1,368,11,1.16823,0.810696
White,2,Right,18,Male,Yes,English,A,370,1,0,16,180,1,1,844.628,1,369,11,1.1619,0.817008
White,2,Right,18,Male,Yes,English,A,371,0,16,16,0,0,1,891.723,1,370,11,1.11406,0.91152
White,2,Right,18,Male,Yes,English,A,372,0,4,0,0,0,1,1166.15,1,371,11,1.01315,0.949365
White,2,Right,18,Male,Yes,English,A,373,1,0,4,0,0,1,813.837,1,372,11,1.02269,0.880973
White,2,Right,18,Male,Yes,English,A,374,1,16,16,0,0,1,884.153,1,373,11,1.13877,0.988385
White,2,Right,18,Male,Yes,English,A,375,1,4,4,180,1,1,688.346,1,374,11,1.18657,0.920611
White,2,Right,18,Male,Yes,English,A,376,1,0,8,0,0,1,841.046,1,375,11,1.0096,0.904687
White,2,Right,18,Male,Yes,English,A,377,0,8,8,180,1,1,1016.49,1,376,11,1.00012,0.860077
White,2,Right,18,Male,Yes,English,A,378,0,4,8,0,0,1,547.229,1,377,11,1.0644,0.903268
White,2,Right,18,Male,Yes,English,A,379,1,16,0,180,1,1,716.04,1,378,11,1.09786,0.966613
White,2,Right,18,Male,Yes,English,A,380,1,8,8,180,1,1,496.692,1,379,11,1.14541,0.848888
White,2,Right,18,Male,Yes,English,A,381,0,16,0,0,0,1,914.025,1,380,11,1.02108,0.807325
White,2,Right,18,Male,Yes,English,A,382,0,0,0,180,1,1,443.55,1,381,11,1.05434,0.835781
White,2,Right,18,Male,Yes,English,A,383,1,4,0,180,1,1,1214.75,1,382,11,1.05219,0.910474
White,2,Right,18,Male,Yes,English,A,384,0,16,8,180,1,1,1136.74,1,383,11,1.141,0.850011
White,2,Right,18,Male,Yes,English,A,385,1,16,16,0,0,1,712.327,1,384,12,1.12214,0.881952
White,2,Right,18,Male,Yes,English,A,386,0,0,0,0,0,1,684.034,1,385,12,1.06329,0.834672
White,2,Right,18,Male,Yes,English,A,387,0,0,4,180,1,1,903.997,1,386,12,1.16929,0.839249
White,2,Right,18,Male,Yes,English,A,388,0,4,0,0,0,1,714.631,1,387,12,1.0275,0.832391
White,2,Right,18,Male,Yes,English,A,389,1,8,16,0,0,1,1067.15,1,388,12,1.12639,0.95361
