Ethnicity,Subject Number,Preferred Hand,Age,Gender,Color blind,First Language,Room,TrialNumber,background,turtles,tortoises,target_id,resp,hit,rt,ran,order,block,iti,fix_duration
White,2,Right,18,Male,Yes,English,A,1,0,4,0,0.0,0.0,1.0,931.907,1.0,0.0,0.0,1.16597,0.998168
White,2,Right,18,Male,Yes,English,A,2,0,0,0,180.0,1.0,1.0,618.397,1.0,1.0,0.0,1.11553,0.862858
White,2,Right,18,Male,Yes,English,A,3,1,16,0,0.0,0.0,1.0,1045.78,1.0,2.0,0.0,1.10396,0.971404
White,2,Right,18,Male,Yes,English,A,4,1,8,8,180.0,1.0,1.0,688.402,1.0,3.0,0.0,1.15673,0.909905
White,2,Right,18,Male,Yes,English,A,5,1,16,4,180.0,1.0,1.0,1012.36,1.0,4.0,0.0,1.14713,0.985407
White,2,Right,18,Male,Yes,English,A,6,0,8,8,180.0,1.0,1.0,1012.22,1.0,5.0,0.0,1.05709,0.911218
White,2,Right,18,Male,Yes,English,A,7,1,4,4,180.0,1.0,1.0,648.907,1.0,6.0,0.0,1.08056,0.893688
White,2,Right,18,Male,Yes,English,A,8,0,8,16,0.0,0.0,1.0,891.579,1.0,7.0,0.0,1.05387,0.830557
White,2,Right,18,Male,Yes,English,A,9,0,16,8,180.0,1.0,1.0,777.898,1.0,8.0,0.0,1.07067,0.947159
White,2,Right,18,Male,Yes,English,A,10,0,4,8,180.0,1.0,1.0,624.762,1.0,9.0,0.0,1.08537,0.824037
White,2,Right,18,Male,Yes,English,A,11,0,0,4,180.0,1.0,1.0,916.513,1.0,10.0,0.0,1.03791,0.962505
White,2,Right,18,Male,Yes,English,A,12,0,16,4,180.0,1.0,1.0,694.644,1.0,11.0,0.0,1.06169,0.96099
White,2,Right,18,Male,Yes,English,A,13,1,0,8,180.0,1.0,1.0,784.03,1.0,12.0,0.0,1.07945,0.938498
White,2,Right,18,Male,Yes,English,A,14,1,0,4,0.0,0.0,1.0,659.3,1.0,13.0,0.0,1.19915,0.894367
White,2,Right,18,Male,Yes,English,A,15,0,8,4,0.0,0.0,1.0,684.605,1.0,14.0,0.0,1.16091,0.834367
White,2,Right,18,Male,Yes,English,A,16,1,16,8,180.0,1.0,1.0,783.281,1.0,15.0,0.0,1.14413,0.924726
White,2,Right,18,Male,Yes,English,A,17,1,4,0,0.0,0.0,1.0,789.904,1.0,16.0,0.0,1.18701,0.832404
White,2,Right,18,Male,Yes,English,A,18,1,0,16,180.0,1.0,1.0,624.142,1.0,17.0,0.0,1.11312,0.959306
White,2,Right,18,Male,Yes,English,A,19,1,8,4,0.0,0.0,1.0,655.894,1.0,18.0,0.0,1.08828,0.877793
White,2,Right,18,Male,Yes,English,A,20,1,4,8,0.0,0.0,1.0,779.114,1.0,19.0,0.0,1.15712,0.85783
White,2,Right,18,Male,Yes,English,A,21,0,0,16,0.0,0.0,1.0,1309.09,1.0,20.0,0.0,1.14428,0.839215
White,2,Right,18,Male,Yes,English,A,22,1,16,16,0.0,0.0,1.0,782.442,1.0,21.0,0.0,1.17677,0.922761
White,2,Right,18,Male,Yes,English,A,23,1,8,16,0.0,0.0,1.0,600.426,1.0,22.0,0.0,1.06462,0.904535
White,2,Right,18,Male,Yes,English,A,24,0,8,0,0.0,0.0,1.0,699.111,1.0,23.0,0.0,1.09811,0.849713
White,2,Right,18,Male,Yes,English,A,25,0,4,16,180.0,1.0,1.0,873.898,1.0,24.0,0.0,1.11746,0.874508
White,2,Right,18,Male,Yes,English,A,26,1,8,0,0.0,0.0,1.0,740.57,1.0,25.0,0.0,1.0616,0.864337
White,2,Right,18,Male,Yes,English,A,27,0,4,4,180.0,1.0,1.0,757.43,1.0,26.0,0.0,1.09333,0.922296
White,2,Right,18,Male,Yes,English,A,28,0,16,0,0.0,0.0,1.0,736.629,1.0,27.0,0.0,1.18394,0.891308
White,2,Right,18,Male,Yes,English,A,29,0,16,16,0.0,0.0,1.0,879.465,1.0,28.0,0.0,1.12418,0.94852
White,2,Right,18,Male,Yes,English,A,30,1,4,16,0.0,0.0,1.0,1070.44,1.0,29.0,0.0,1.03951,0.814376
White,2,Right,18,Male,Yes,English,A,31,0,0,8,180.0,1.0,1.0,923.399,1.0,30.0,0.0,1.18613,0.916615
White,2,Right,18,Male,Yes,English,A,32,1,0,0,180.0,1.0,1.0,535.37,1.0,31.0,0.0,1.14241,0.888311
White,2,Right,18,Male,Yes,English,A,33,1,0,0,0.0,0.0,1.0,709.711,1.0,32.0,1.0,1.00048,0.829598
White,2,Right,18,Male,Yes,English,A,34,1,4,16,0.0,0.0,1.0,961.55,1.0,33.0,1.0,1.143,0.802824
White,2,Right,18,Male,Yes,English,A,35,0,4,8,0.0,0.0,1.0,1187.61,1.0,34.0,1.0,1.11013,0.936838
White,2,Right,18,Male,Yes,English,A,36,0,16,8,180.0,1.0,1.0,672.788,1.0,35.0,1.0,1.01441,0.812801
White,2,Right,18,Male,Yes,English,A,37,1,0,4,0.0,0.0,1.0,958.688,1.0,36.0,1.0,1.1906,0.945312
White,2,Right,18,Male,Yes,English,A,38,1,8,16,180.0,1.0,1.0,844.55,1.0,37.0,1.0,1.00482,0.911795
White,2,Right,18,Male,Yes,English,A,39,0,0,4,180.0,1.0,1.0,585.621,1.0,38.0,1.0,1.12168,0.992242
White,2,Right,18,Male,Yes,English,A,40,0,16,0,180.0,1.0,1.0,1055.25,1.0,39.0,1.0,1.13182,0.844324
White,2,Right,18,Male,Yes,English,A,41,0,16,4,180.0,1.0,1.0,918.319,1.0,40.0,1.0,1.03127,0.89823
White,2,Right,18,Male,Yes,English,A,42,0,8,16,0.0,0.0,1.0,711.337,1.0,41.0,1.0,1.04802,0.97304
White,2,Right,18,Male,Yes,English,A,43,1,4,8,180.0,1.0,1.0,522.906,1.0,42.0,1.0,1.10085,0.843238
White,2,Right,18,Male,Yes,English,A,44,1,0,8,0.0,0.0,1.0,776.036,1.0,43.0,1.0,1.15248,0.865883
White,2,Right,18,Male,Yes,English,A,45,0,4,4,180.0,1.0,1.0,848.76,1.0,44.0,1.0,1.01871,0.834358
White,2,Right,18,Male,Yes,English,A,46,0,8,8,0.0,0.0,1.0,733.053,1.0,45.0,1.0,1.10809,0.880973
White,2,Right,18,Male,Yes,English,A,47,1,0,16,0.0,0.0,1.0,790.452,1.0,46.0,1.0,1.04051,0.808628
White,2,Right,18,Male,Yes,English,A,48,0,0,8,180.0,1.0,1.0,689.098,1.0,47.0,1.0,1.13593,0.84006
White,2,Right,18,Male,Yes,English,A,49,1,16,0,180.0,1.0,1.0,704.839,1.0,48.0,1.0,1.12062,0.800179
White,2,Right,18,Male,Yes,English,A,50,1,16,16,180.0,1.0,1.0,650.084,1.0,49.0,1.0,1.03827,0.95182
White,2,Right,18,Male,Yes,English,A,51,0,8,4,180.0,1.0,1.0,846.555,1.0,50.0,1.0,1.16719,0.809559
White,2,Right,18,Male,Yes,English,A,52,0,8,0,0.0,0.0,1.0,1163.08,1.0,51.0,1.0,1.08666,0.991589
White,2,Right,18,Male,Yes,English,A,53,1,4,0,0.0,0.0,1.0,965.362,1.0,52.0,1.0,1.0414,0.900388
White,2,Right,18,Male,Yes,English,A,54,1,4,4,180.0,1.0,1.0,866.716,1.0,53.0,1.0,1.04694,0.887532
White,2,Right,18,Male,Yes,English,A,55,0,0,16,180.0,1.0,1.0,815.778,1.0,54.0,1.0,1.07282,0.823576
White,2,Right,18,Male,Yes,English,A,56,0,4,0,0.0,0.0,1.0,976.649,1.0,55.0,1.0,1.07955,0.84546
White,2,Right,18,Male,Yes,English,A,57,1,8,8,0.0,0.0,1.0,1434.13,1.0,56.0,1.0,1.17416,0.848517
White,2,Right,18,Male,Yes,English,A,58,1,16,4,180.0,1.0,1.0,778.813,1.0,57.0,1.0,1.03473,0.990238
White,2,Right,18,Male,Yes,English,A,59,0,16,16,0.0,0.0,1.0,793.823,1.0,58.0,1.0,1.0721,0.897897
White,2,Right,18,Male,Yes,English,A,60,1,8,4,180.0,1.0,1.0,1054.94,1.0,59.0,1.0,1.12961,0.918803
White,2,Right,18,Male,Yes,English,A,61,0,0,0,0.0,0.0,1.0,660.544,1.0,60.0,1.0,1.00758,0.885265
White,2,Right,18,Male,Yes,English,A,62,1,8,0,180.0,1.0,1.0,854.34,1.0,61.0,1.0,1.03396,0.910707
White,2,Right,18,Male,Yes,English,A,63,1,16,8,0.0,0.0,1.0,773.267,1.0,62.0,1.0,1.19447,0.882771
White,2,Right,18,Male,Yes,English,A,64,0,4,16,0.0,0.0,1.0,856.789,1.0,63.0,1.0,1.13044,0.989115
White,2,Right,18,Male,Yes,English,A,65,0,0,8,0.0,0.0,1.0,938.124,1.0,64.0,2.0,1.06732,0.903403
White,2,Right,18,Male,Yes,English,A,66,0,4,8,0.0,0.0,1.0,1106.14,1.0,65.0,2.0,1.0834,0.985296
White,2,Right,18,Male,Yes,English,A,67,1,16,0,180.0,1.0,1.0,831.918,1.0,66.0,2.0,1.00419,0.972638
White,2,Right,18,Male,Yes,English,A,68,0,4,4,0.0,0.0,1.0,785.362,1.0,67.0,2.0,1.09882,0.879789
White,2,Right,18,Male,Yes,English,A,69,0,8,8,0.0,0.0,1.0,754.852,1.0,68.0,2.0,1.08937,0.959898
White,2,Right,18,Male,Yes,English,A,70,0,8,16,180.0,1.0,1.0,1107.44,1.0,69.0,2.0,1.07125,0.854022
White,2,Right,18,Male,Yes,English,A,71,1,8,0,180.0,1.0,1.0,682.783,1.0,70.0,2.0,1.08359,0.868806
White,2,Right,18,Male,Yes,English,A,72,0,16,16,180.0,1.0,1.0,766.811,1.0,71.0,2.0,1.18076,0.834916
White,2,Right,18,Male,Yes,English,A,73,1,8,8,180.0,1.0,1.0,1141.35,1.0,72.0,2.0,1.0039,0.804934
White,2,Right,18,Male,Yes,English,A,74,0,16,8,0.0,0.0,1.0,761.043,1.0,73.0,2.0,1.08924,0.961645
White,2,Right,18,Male,Yes,English,A,75,0,16,0,180.0,1.0,1.0,726.365,1.0,74.0,2.0,1.05284,0.95041
White,2,Right,18,Male,Yes,English,A,76,1,16,8,0.0,0.0,1.0,1557.51,1.0,75.0,2.0,1.11372,0.802642
White,2,Right,18,Male,Yes,English,A,77,1,16,16,0.0,0.0,1.0,848.029,1.0,76.0,2.0,1.01198,0.922537
White,2,Right,18,Male,Yes,English,A,78,1,0,4,0.0,0.0,1.0,810.106,1.0,77.0,2.0,1.12557,0.974901
White,2,Right,18,Male,Yes,English,A,79,1,8,16,0.0,0.0,1.0,620.916,1.0,78.0,2.0,1.107,0.975272
White,2,Right,18,Male,Yes,English,A,80,0,0,4,180.0,1.0,1.0,827.11,1.0,79.0,2.0,1.05277,0.830373
White,2,Right,18,Male,Yes,English,A,81,0,16,4,0.0,0.0,1.0,978.038,1.0,80.0,2.0,1.10154,0.949732
White,2,Right,18,Male,Yes,English,A,82,1,4,8,0.0,0.0,1.0,1231.74,1.0,81.0,2.0,1.04941,0.886743
White,2,Right,18,Male,Yes,English,A,83,0,8,0,180.0,1.0,1.0,878.917,1.0,82.0,2.0,1.00419,0.961737
White,2,Right,18,Male,Yes,English,A,84,0,0,16,0.0,0.0,1.0,1839.9,1.0,83.0,2.0,1.17951,0.902031
White,2,Right,18,Male,Yes,English,A,85,1,0,16,180.0,1.0,1.0,1311.65,1.0,84.0,2.0,1.06865,0.951953
White,2,Right,18,Male,Yes,English,A,86,0,0,0,0.0,0.0,1.0,626.904,1.0,85.0,2.0,1.19273,0.827727
White,2,Right,18,Male,Yes,English,A,87,1,0,0,180.0,1.0,1.0,662.219,1.0,86.0,2.0,1.08478,0.928834
White,2,Right,18,Male,Yes,English,A,88,0,8,4,180.0,1.0,1.0,816.841,1.0,87.0,2.0,1.17296,0.869963
White,2,Right,18,Male,Yes,English,A,89,1,16,4,180.0,1.0,1.0,795.008,1.0,88.0,2.0,1.15287,0.902363
White,2,Right,18,Male,Yes,English,A,90,0,4,0,180.0,1.0,1.0,915.634,1.0,89.0,2.0,1.16272,0.915229
White,2,Right,18,Male,Yes,English,A,91,1,0,8,180.0,1.0,1.0,704.395,1.0,90.0,2.0,1.09166,0.943946
White,2,Right,18,Male,Yes,English,A,92,1,4,4,0.0,0.0,1.0,616.057,1.0,91.0,2.0,1.11109,0.875359
White,2,Right,18,Male,Yes,English,A,93,1,8,4,0.0,0.0,1.0,481.655,1.0,92.0,2.0,1.03257,0.933946
White,2,Right,18,Male,Yes,English,A,94,1,4,16,180.0,1.0,1.0,1213.48,1.0,93.0,2.0,1.08988,0.954186
White,2,Right,18,Male,Yes,English,A,95,1,4,0,180.0,1.0,1.0,567.055,1.0,94.0,2.0,1.1432,0.814759
White,2,Right,18,Male,Yes,English,A,96,0,4,16,0.0,0.0,1.0,847.428,1.0,95.0,2.0,1.10428,0.983757
White,2,Right,18,Male,Yes,English,A,97,1,8,4,0.0,0.0,1.0,1053.6,1.0,96.0,3.0,1.16211,0.869161
White,2,Right,18,Male,Yes,English,A,98,1,16,4,180.0,1.0,1.0,728.371,1.0,97.0,3.0,1.02128,0.955048
White,2,Right,18,Male,Yes,English,A,99,0,0,8,180.0,1.0,1.0,817.695,1.0,98.0,3.0,1.02271,0.801676
White,2,Right,18,Male,Yes,English,A,100,0,8,4,0.0,0.0,1.0,644.534,1.0,99.0,3.0,1.06124,0.846988
White,2,Right,18,Male,Yes,English,A,101,1,4,16,180.0,1.0,1.0,928.69,1.0,100.0,3.0,1.19876,0.965646
White,2,Right,18,Male,Yes,English,A,102,1,8,8,0.0,0.0,1.0,693.803,1.0,101.0,3.0,1.18929,0.900516
White,2,Right,18,Male,Yes,English,A,103,1,0,8,0.0,0.0,1.0,641.602,1.0,102.0,3.0,1.01732,0.829673
White,2,Right,18,Male,Yes,English,A,104,0,4,16,0.0,0.0,1.0,760.242,1.0,103.0,3.0,1.13463,0.806253
White,2,Right,18,Male,Yes,English,A,105,0,4,4,180.0,1.0,1.0,1253.38,1.0,104.0,3.0,1.00243,0.848394
White,2,Right,18,Male,Yes,English,A,106,0,8,8,0.0,0.0,1.0,802.21,1.0,105.0,3.0,1.13052,0.816064
White,2,Right,18,Male,Yes,English,A,107,0,4,0,180.0,1.0,1.0,1259.72,1.0,106.0,3.0,1.11791,0.823385
White,2,Right,18,Male,Yes,English,A,108,0,8,16,180.0,1.0,1.0,775.484,1.0,107.0,3.0,1.081,0.977124
White,2,Right,18,Male,Yes,English,A,109,1,0,16,180.0,1.0,1.0,850.568,1.0,108.0,3.0,1.13355,0.817
White,2,Right,18,Male,Yes,English,A,110,0,16,16,180.0,1.0,1.0,999.994,1.0,109.0,3.0,1.19265,0.959223
White,2,Right,18,Male,Yes,English,A,111,1,4,8,0.0,0.0,1.0,804.546,1.0,110.0,3.0,1.07519,0.852622
White,2,Right,18,Male,Yes,English,A,112,1,4,0,180.0,1.0,1.0,941.218,1.0,111.0,3.0,1.16061,0.946636
White,2,Right,18,Male,Yes,English,A,113,0,16,0,180.0,1.0,1.0,1066.63,1.0,112.0,3.0,1.07463,0.80299
White,2,Right,18,Male,Yes,English,A,114,1,16,0,180.0,1.0,1.0,527.964,1.0,113.0,3.0,1.08546,0.912127
White,2,Right,18,Male,Yes,English,A,115,1,8,0,0.0,0.0,1.0,719.045,1.0,114.0,3.0,1.06138,0.915398
White,2,Right,18,Male,Yes,English,A,116,0,0,0,180.0,1.0,1.0,590.065,1.0,115.0,3.0,1.09641,0.952188
White,2,Right,18,Male,Yes,English,A,117,0,4,8,0.0,0.0,1.0,772.425,1.0,116.0,3.0,1.0172,0.811518
White,2,Right,18,Male,Yes,English,A,118,0,16,8,0.0,0.0,1.0,751.962,1.0,117.0,3.0,1.10672,0.962716
White,2,Right,18,Male,Yes,English,A,119,1,4,4,0.0,0.0,1.0,909.625,1.0,118.0,3.0,1.04745,0.950292
White,2,Right,18,Male,Yes,English,A,120,0,0,16,180.0,1.0,1.0,841.511,1.0,119.0,3.0,1.08957,0.91536
White,2,Right,18,Male,Yes,English,A,121,1,0,0,0.0,0.0,1.0,610.505,1.0,120.0,3.0,1.07994,0.85827
White,2,Right,18,Male,Yes,English,A,122,0,8,0,0.0,0.0,1.0,1197.84,1.0,121.0,3.0,1.02577,0.861349
White,2,Right,18,Male,Yes,English,A,123,1,0,4,0.0,0.0,1.0,566.17,1.0,122.0,3.0,1.17191,0.866741
White,2,Right,18,Male,Yes,English,A,124,0,16,4,0.0,0.0,1.0,789.096,1.0,123.0,3.0,1.18007,0.885759
White,2,Right,18,Male,Yes,English,A,125,1,16,16,180.0,1.0,1.0,842.001,1.0,124.0,3.0,1.14905,0.981698
White,2,Right,18,Male,Yes,English,A,126,0,0,4,0.0,0.0,1.0,522.16,1.0,125.0,3.0,1.01502,0.905836
White,2,Right,18,Male,Yes,English,A,127,1,16,8,180.0,1.0,1.0,890.043,1.0,126.0,3.0,1.0596,0.922749
White,2,Right,18,Male,Yes,English,A,128,1,8,16,180.0,1.0,1.0,962.713,1.0,127.0,3.0,1.15297,0.847066
White,2,Right,18,Male,Yes,English,A,129,0,0,8,0.0,0.0,1.0,656.845,1.0,128.0,4.0,1.13987,0.96177
White,2,Right,18,Male,Yes,English,A,130,1,16,16,180.0,1.0,1.0,736.748,1.0,129.0,4.0,1.01092,0.817161
White,2,Right,18,Male,Yes,English,A,131,1,8,8,0.0,0.0,1.0,768.245,1.0,130.0,4.0,1.03599,0.850004
White,2,Right,18,Male,Yes,English,A,132,0,4,16,180.0,1.0,1.0,786.651,1.0,131.0,4.0,1.00811,0.845777
White,2,Right,18,Male,Yes,English,A,133,0,0,0,180.0,1.0,1.0,514.402,1.0,132.0,4.0,1.05048,0.978701
White,2,Right,18,Male,Yes,English,A,134,1,4,16,180.0,1.0,1.0,588.091,1.0,133.0,4.0,1.11903,0.851849
White,2,Right,18,Male,Yes,English,A,135,0,8,8,0.0,0.0,1.0,1033.49,1.0,134.0,4.0,1.18767,0.932959
White,2,Right,18,Male,Yes,English,A,136,1,0,0,0.0,0.0,1.0,605.463,1.0,135.0,4.0,1.05388,0.805281
White,2,Right,18,Male,Yes,English,A,137,0,16,8,180.0,1.0,1.0,1371.68,1.0,136.0,4.0,1.04892,0.87921
White,2,Right,18,Male,Yes,English,A,138,0,4,4,180.0,1.0,1.0,679.118,1.0,137.0,4.0,1.09267,0.835517
White,2,Right,18,Male,Yes,English,A,139,0,0,16,0.0,0.0,1.0,1428.27,1.0,138.0,4.0,1.07428,0.87419
White,2,Right,18,Male,Yes,English,A,140,0,4,8,0.0,0.0,1.0,841.062,1.0,139.0,4.0,1.01687,0.867517
White,2,Right,18,Male,Yes,English,A,141,0,16,4,180.0,1.0,1.0,734.096,1.0,140.0,4.0,1.16575,0.92599
White,2,Right,18,Male,Yes,English,A,142,0,8,4,0.0,0.0,1.0,858.894,1.0,141.0,4.0,1.11967,0.818935
White,2,Right,18,Male,Yes,English,A,143,0,4,0,180.0,1.0,1.0,792.888,1.0,142.0,4.0,1.15925,0.804064
White,2,Right,18,Male,Yes,English,A,144,0,8,16,180.0,1.0,1.0,1139.44,1.0,143.0,4.0,1.07186,0.945036
White,2,Right,18,Male,Yes,English,A,145,1,4,0,180.0,1.0,1.0,1073.03,1.0,144.0,4.0,1.0239,0.844732
White,2,Right,18,Male,Yes,English,A,146,0,16,16,0.0,0.0,1.0,773.164,1.0,145.0,4.0,1.13134,0.924391
White,2,Right,18,Male,Yes,English,A,147,0,0,4,180.0,1.0,1.0,688.209,1.0,146.0,4.0,1.0448,0.933306
White,2,Right,18,Male,Yes,English,A,148,0,8,0,0.0,0.0,1.0,648.892,1.0,147.0,4.0,1.14368,0.894187
White,2,Right,18,Male,Yes,English,A,149,1,4,8,180.0,1.0,1.0,948.586,1.0,148.0,4.0,1.19501,0.871618
White,2,Right,18,Male,Yes,English,A,150,1,8,16,0.0,0.0,1.0,615.834,1.0,149.0,4.0,1.16551,0.994951
White,2,Right,18,Male,Yes,English,A,151,1,16,4,180.0,1.0,1.0,748.947,1.0,150.0,4.0,1.09173,0.903666
White,2,Right,18,Male,Yes,English,A,152,1,8,0,0.0,0.0,1.0,531.004,1.0,151.0,4.0,1.05188,0.899054
White,2,Right,18,Male,Yes,English,A,153,1,0,8,0.0,0.0,1.0,823.983,1.0,152.0,4.0,1.08108,0.996454
White,2,Right,18,Male,Yes,English,A,154,1,0,16,0.0,0.0,1.0,726.24,1.0,153.0,4.0,1.06547,0.833373
White,2,Right,18,Male,Yes,English,A,155,1,16,8,180.0,1.0,1.0,749.557,1.0,154.0,4.0,1.08688,0.950452
White,2,Right,18,Male,Yes,English,A,156,1,0,4,180.0,1.0,1.0,618.024,1.0,155.0,4.0,1.04835,0.974524
White,2,Right,18,Male,Yes,English,A,157,1,16,0,0.0,0.0,1.0,595.421,1.0,156.0,4.0,1.11137,0.985466
White,2,Right,18,Male,Yes,English,A,158,1,8,4,0.0,0.0,1.0,629.658,1.0,157.0,4.0,1.17805,0.944237
White,2,Right,18,Male,Yes,English,A,159,1,4,4,180.0,1.0,1.0,689.193,1.0,158.0,4.0,1.02724,0.810417
White,2,Right,18,Male,Yes,English,A,160,0,16,0,0.0,0.0,1.0,724.435,1.0,159.0,4.0,1.0514,0.928183
White,2,Right,18,Male,Yes,English,A,161,0,8,4,0.0,0.0,1.0,1034.41,1.0,160.0,5.0,1.13912,0.907071
White,2,Right,18,Male,Yes,English,A,162,0,8,0,0.0,0.0,1.0,681.678,1.0,161.0,5.0,1.1638,0.975624
White,2,Right,18,Male,Yes,English,A,163,1,0,8,0.0,0.0,1.0,777.379,1.0,162.0,5.0,1.13718,0.916196
White,2,Right,18,Male,Yes,English,A,164,1,0,4,180.0,1.0,1.0,618.306,1.0,163.0,5.0,1.14412,0.924943
White,2,Right,18,Male,Yes,English,A,165,0,0,0,180.0,1.0,1.0,675.956,1.0,164.0,5.0,1.11568,0.95634
White,2,Right,18,Male,Yes,English,A,166,1,4,4,180.0,1.0,1.0,710.551,1.0,165.0,5.0,1.08976,0.876934
White,2,Right,18,Male,Yes,English,A,167,1,16,4,0.0,0.0,1.0,681.385,1.0,166.0,5.0,1.12008,0.820404
White,2,Right,18,Male,Yes,English,A,168,0,0,8,180.0,1.0,1.0,843.477,1.0,167.0,5.0,1.0831,0.924931
White,2,Right,18,Male,Yes,English,A,169,0,4,8,0.0,0.0,1.0,739.932,1.0,168.0,5.0,1.00925,0.974655
White,2,Right,18,Male,Yes,English,A,170,1,0,16,180.0,1.0,1.0,825.66,1.0,169.0,5.0,1.03948,0.968283
White,2,Right,18,Male,Yes,English,A,171,0,0,4,0.0,0.0,1.0,920.034,1.0,170.0,5.0,1.14363,0.885305
White,2,Right,18,Male,Yes,English,A,172,0,8,8,180.0,1.0,1.0,857.951,1.0,171.0,5.0,1.00245,0.868712
White,2,Right,18,Male,Yes,English,A,173,0,4,4,180.0,1.0,1.0,736.045,1.0,172.0,5.0,1.02322,0.867269
White,2,Right,18,Male,Yes,English,A,174,1,4,16,0.0,0.0,1.0,1347.11,1.0,173.0,5.0,1.12976,0.907115
White,2,Right,18,Male,Yes,English,A,175,1,16,0,0.0,0.0,1.0,1088.97,1.0,174.0,5.0,1.01083,0.837073
White,2,Right,18,Male,Yes,English,A,176,0,4,16,180.0,1.0,1.0,946.144,1.0,175.0,5.0,1.07521,0.894592
White,2,Right,18,Male,Yes,English,A,177,1,16,16,180.0,1.0,1.0,594.153,1.0,176.0,5.0,1.17353,0.942003
White,2,Right,18,Male,Yes,English,A,178,1,8,16,0.0,0.0,1.0,1116.86,1.0,177.0,5.0,1.08473,0.893407
White,2,Right,18,Male,Yes,English,A,179,0,4,0,0.0,0.0,1.0,805.708,1.0,178.0,5.0,1.13732,0.820811
White,2,Right,18,Male,Yes,English,A,180,1,8,0,180.0,1.0,1.0,1245.88,1.0,179.0,5.0,1.0132,0.952945
White,2,Right,18,Male,Yes,English,A,181,1,0,0,180.0,1.0,1.0,722.367,1.0,180.0,5.0,1.00759,0.948359
White,2,Right,18,Male,Yes,English,A,182,0,0,16,0.0,0.0,1.0,697.476,1.0,181.0,5.0,1.15091,0.812796
White,2,Right,18,Male,Yes,English,A,183,0,16,0,180.0,1.0,1.0,1143.63,1.0,182.0,5.0,1.06621,0.947953
White,2,Right,18,Male,Yes,English,A,184,0,16,8,0.0,0.0,1.0,765.425,1.0,183.0,5.0,1.14756,0.948554
White,2,Right,18,Male,Yes,English,A,185,1,8,4,180.0,1.0,1.0,652.782,1.0,184.0,5.0,1.02271,0.985011
White,2,Right,18,Male,Yes,English,A,186,1,8,8,180.0,1.0,1.0,1065.09,1.0,185.0,5.0,1.19186,0.830623
White,2,Right,18,Male,Yes,English,A,187,1,4,8,0.0,0.0,1.0,674.24,1.0,186.0,5.0,1.04965,0.837457
White,2,Right,18,Male,Yes,English,A,188,0,16,16,0.0,0.0,1.0,709.076,1.0,187.0,5.0,1.13926,0.932842
White,2,Right,18,Male,Yes,English,A,189,0,16,4,0.0,0.0,1.0,911.852,1.0,188.0,5.0,1.09465,0.920127
White,2,Right,18,Male,Yes,English,A,190,1,16,8,180.0,1.0,1.0,625.911,1.0,189.0,5.0,1.06405,0.905995
White,2,Right,18,Male,Yes,English,A,191,0,8,16,180.0,1.0,1.0,885.725,1.0,190.0,5.0,1.09169,0.974769
White,2,Right,18,Male,Yes,English,A,192,1,4,0,0.0,0.0,1.0,691.666,1.0,191.0,5.0,1.18966,0.906024
White,2,Right,18,Male,Yes,English,A,193,0,16,16,180.0,1.0,1.0,1257.06,1.0,192.0,6.0,1.00061,0.90588
White,2,Right,18,Male,Yes,English,A,194,1,0,16,0.0,0.0,1.0,607.254,1.0,193.0,6.0,1.05368,0.819752
White,2,Right,18,Male,Yes,English,A,195,1,4,8,0.0,0.0,1.0,696.559,1.0,194.0,6.0,1.06701,0.895414
White,2,Right,18,Male,Yes,English,A,196,1,4,0,180.0,1.0,1.0,540.061,1.0,195.0,6.0,1.02852,0.8016
White,2,Right,18,Male,Yes,English,A,197,0,0,0,0.0,0.0,1.0,530.41,1.0,196.0,6.0,1.18583,0.934999
White,2,Right,18,Male,Yes,English,A,198,0,0,4,0.0,0.0,1.0,690.642,1.0,197.0,6.0,1.04988,0.841368
White,2,Right,18,Male,Yes,English,A,199,1,16,16,180.0,1.0,1.0,1257.36,1.0,198.0,6.0,1.03288,0.859017
White,2,Right,18,Male,Yes,English,A,200,0,4,4,180.0,1.0,1.0,668.556,1.0,199.0,6.0,1.09065,0.801301
White,2,Right,18,Male,Yes,English,A,201,1,8,0,180.0,1.0,1.0,609.446,1.0,200.0,6.0,1.15699,0.867774
White,2,Right,18,Male,Yes,English,A,202,1,4,16,180.0,1.0,1.0,683.696,1.0,201.0,6.0,1.04255,0.869959
White,2,Right,18,Male,Yes,English,A,203,0,4,8,180.0,1.0,1.0,1023.15,1.0,202.0,6.0,1.16399,0.938804
White,2,Right,18,Male,Yes,English,A,204,1,8,8,0.0,0.0,1.0,490.73,1.0,203.0,6.0,1.09276,0.853707
White,2,Right,18,Male,Yes,English,A,205,0,16,0,180.0,1.0,1.0,558.785,1.0,204.0,6.0,1.13593,0.862664
White,2,Right,18,Male,Yes,English,A,206,1,16,4,0.0,0.0,1.0,1253.19,1.0,205.0,6.0,1.05795,0.963818
White,2,Right,18,Male,Yes,English,A,207,0,8,4,0.0,0.0,1.0,2191.91,1.0,206.0,6.0,1.03698,0.900018
White,2,Right,18,Male,Yes,English,A,208,1,16,8,180.0,1.0,1.0,711.565,1.0,207.0,6.0,1.11494,0.815496
White,2,Right,18,Male,Yes,English,A,209,0,8,8,0.0,0.0,1.0,732.913,1.0,208.0,6.0,1.19845,0.827408
White,2,Right,18,Male,Yes,English,A,210,0,4,16,0.0,0.0,1.0,804.054,1.0,209.0,6.0,1.00629,0.80811
White,2,Right,18,Male,Yes,English,A,211,1,0,0,0.0,0.0,1.0,596.902,1.0,210.0,6.0,1.18715,0.871652
White,2,Right,18,Male,Yes,English,A,212,0,0,8,180.0,1.0,1.0,684.433,1.0,211.0,6.0,1.12083,0.983947
White,2,Right,18,Male,Yes,English,A,213,0,8,0,0.0,0.0,1.0,855.18,1.0,212.0,6.0,1.15539,0.966147
White,2,Right,18,Male,Yes,English,A,214,1,4,4,0.0,0.0,1.0,1300.74,1.0,213.0,6.0,1.10191,0.902203
White,2,Right,18,Male,Yes,English,A,215,0,8,16,180.0,1.0,1.0,771.989,1.0,214.0,6.0,1.18955,0.983882
White,2,Right,18,Male,Yes,English,A,216,0,16,8,0.0,0.0,1.0,1151.92,1.0,215.0,6.0,1.02585,0.85008
White,2,Right,18,Male,Yes,English,A,217,1,0,8,180.0,1.0,1.0,615.78,1.0,216.0,6.0,1.0278,0.993816
White,2,Right,18,Male,Yes,English,A,218,1,8,4,180.0,1.0,1.0,1091.86,1.0,217.0,6.0,1.07738,0.994109
White,2,Right,18,Male,Yes,English,A,219,1,0,4,180.0,1.0,1.0,725.531,1.0,218.0,6.0,1.0626,0.900658
White,2,Right,18,Male,Yes,English,A,220,0,0,16,0.0,0.0,1.0,756.088,1.0,219.0,6.0,1.15712,0.976445
White,2,Right,18,Male,Yes,English,A,221,1,8,16,0.0,0.0,1.0,611.142,1.0,220.0,6.0,1.19505,0.961099
White,2,Right,18,Male,Yes,English,A,222,0,4,0,180.0,1.0,1.0,779.026,1.0,221.0,6.0,1.06654,0.870695
White,2,Right,18,Male,Yes,English,A,223,0,16,4,0.0,0.0,1.0,926.024,1.0,222.0,6.0,1.04801,0.93032
White,2,Right,18,Male,Yes,English,A,224,1,16,0,180.0,0.0,0.0,749.383,1.0,223.0,6.0,1.00325,0.97676
White,2,Right,18,Male,Yes,English,A,225,1,16,8,180.0,1.0,1.0,791.77,1.0,224.0,7.0,1.12374,0.994226
White,2,Right,18,Male,Yes,English,A,226,1,4,8,0.0,0.0,1.0,744.295,1.0,225.0,7.0,1.04628,0.890198
White,2,Right,18,Male,Yes,English,A,227,1,0,16,180.0,1.0,1.0,639.431,1.0,226.0,7.0,1.18368,0.839274
White,2,Right,18,Male,Yes,English,A,228,1,16,4,0.0,0.0,1.0,947.177,1.0,227.0,7.0,1.1546,0.951116
White,2,Right,18,Male,Yes,English,A,229,0,4,16,0.0,0.0,1.0,837.254,1.0,228.0,7.0,1.04421,0.832221
White,2,Right,18,Male,Yes,English,A,230,0,8,8,0.0,0.0,1.0,994.13,1.0,229.0,7.0,1.04597,0.902987
White,2,Right,18,Male,Yes,English,A,231,0,4,0,180.0,1.0,1.0,753.958,1.0,230.0,7.0,1.1033,0.985939
White,2,Right,18,Male,Yes,English,A,232,1,4,0,180.0,1.0,1.0,1161.02,1.0,231.0,7.0,1.18595,0.888277
White,2,Right,18,Male,Yes,English,A,233,0,4,4,0.0,0.0,1.0,734.578,1.0,232.0,7.0,1.08927,0.825943
White,2,Right,18,Male,Yes,English,A,234,0,16,8,0.0,0.0,1.0,783.097,1.0,233.0,7.0,1.0125,0.879224
White,2,Right,18,Male,Yes,English,A,235,1,8,4,0.0,0.0,1.0,732.851,1.0,234.0,7.0,1.19889,0.825254
White,2,Right,18,Male,Yes,English,A,236,1,0,8,180.0,1.0,1.0,595.792,1.0,235.0,7.0,1.18226,0.943585
White,2,Right,18,Male,Yes,English,A,237,0,8,16,180.0,1.0,1.0,895.437,1.0,236.0,7.0,1.18809,0.9839
White,2,Right,18,Male,Yes,English,A,238,1,8,0,0.0,0.0,1.0,828.664,1.0,237.0,7.0,1.03656,0.956055
White,2,Right,18,Male,Yes,English,A,239,1,0,0,180.0,1.0,1.0,556.377,1.0,238.0,7.0,1.18551,0.817925
White,2,Right,18,Male,Yes,English,A,240,1,0,4,180.0,1.0,1.0,783.324,1.0,239.0,7.0,1.12705,0.991815
White,2,Right,18,Male,Yes,English,A,241,0,0,16,180.0,1.0,1.0,832.366,1.0,240.0,7.0,1.00131,0.884708
White,2,Right,18,Male,Yes,English,A,242,0,0,8,0.0,0.0,1.0,1134.83,1.0,241.0,7.0,1.03828,0.926063
White,2,Right,18,Male,Yes,English,A,243,0,0,0,0.0,0.0,1.0,844.55,1.0,242.0,7.0,1.07181,0.844039
White,2,Right,18,Male,Yes,English,A,244,0,8,4,180.0,1.0,1.0,657.778,1.0,243.0,7.0,1.08494,0.864774
White,2,Right,18,Male,Yes,English,A,245,0,0,4,180.0,1.0,1.0,638.696,1.0,244.0,7.0,1.03239,0.886243
White,2,Right,18,Male,Yes,English,A,246,0,8,0,0.0,0.0,1.0,1006.23,1.0,245.0,7.0,1.06273,0.890195
White,2,Right,18,Male,Yes,English,A,247,1,8,8,180.0,1.0,1.0,857.994,1.0,246.0,7.0,1.17151,0.897214
White,2,Right,18,Male,Yes,English,A,248,0,16,16,0.0,0.0,1.0,1011.25,1.0,247.0,7.0,1.16619,0.85471
White,2,Right,18,Male,Yes,English,A,249,1,16,0,0.0,0.0,1.0,696.954,1.0,248.0,7.0,1.02514,0.978232
White,2,Right,18,Male,Yes,English,A,250,1,8,16,180.0,1.0,1.0,768.36,1.0,249.0,7.0,1.01071,0.967448
White,2,Right,18,Male,Yes,English,A,251,1,16,16,0.0,0.0,1.0,725.899,1.0,250.0,7.0,1.02376,0.949948
White,2,Right,18,Male,Yes,English,A,252,1,4,16,0.0,0.0,1.0,806.158,1.0,251.0,7.0,1.05775,0.986394
White,2,Right,18,Male,Yes,English,A,253,0,16,4,0.0,0.0,1.0,789.901,1.0,252.0,7.0,1.09386,0.806051
White,2,Right,18,Male,Yes,English,A,254,1,4,4,180.0,1.0,1.0,710.891,1.0,253.0,7.0,1.09881,0.846918
White,2,Right,18,Male,Yes,English,A,255,0,4,8,180.0,1.0,1.0,1260.03,1.0,254.0,7.0,1.06341,0.832372
White,2,Right,18,Male,Yes,English,A,256,0,16,0,180.0,1.0,1.0,729.772,1.0,255.0,7.0,1.07695,0.988415
White,2,Right,18,Male,Yes,English,A,257,1,4,16,0.0,0.0,1.0,679.802,1.0,256.0,8.0,1.0571,0.876054
White,2,Right,18,Male,Yes,English,A,258,1,4,4,180.0,1.0,1.0,715.695,1.0,257.0,8.0,1.10795,0.93749
White,2,Right,18,Male,Yes,English,A,259,1,4,0,180.0,1.0,1.0,730.729,1.0,258.0,8.0,1.18007,0.902724
White,2,Right,18,Male,Yes,English,A,260,0,16,8,0.0,0.0,1.0,656.452,1.0,259.0,8.0,1.1139,0.920882
White,2,Right,18,Male,Yes,English,A,261,0,8,16,0.0,0.0,1.0,659.962,1.0,260.0,8.0,1.09537,0.93896
White,2,Right,18,Male,Yes,English,A,262,0,16,16,180.0,1.0,1.0,661.593,1.0,261.0,8.0,1.15344,0.833601
White,2,Right,18,Male,Yes,English,A,263,1,8,16,0.0,0.0,1.0,759.889,1.0,262.0,8.0,1.15563,0.952772
White,2,Right,18,Male,Yes,English,A,264,1,8,8,180.0,1.0,1.0,563.493,1.0,263.0,8.0,1.10132,0.800108
White,2,Right,18,Male,Yes,English,A,265,0,4,8,180.0,1.0,1.0,830.505,1.0,264.0,8.0,1.15573,0.868702
White,2,Right,18,Male,Yes,English,A,266,0,4,0,0.0,0.0,1.0,583.133,1.0,265.0,8.0,1.16934,0.878694
White,2,Right,18,Male,Yes,English,A,267,1,0,16,0.0,0.0,1.0,665.024,1.0,266.0,8.0,1.15725,0.921872
White,2,Right,18,Male,Yes,English,A,268,0,0,16,0.0,0.0,1.0,957.614,1.0,267.0,8.0,1.15215,0.845527
White,2,Right,18,Male,Yes,English,A,269,0,0,8,0.0,0.0,1.0,589.13,1.0,268.0,8.0,1.18632,0.843777
White,2,Right,18,Male,Yes,English,A,270,0,4,4,180.0,1.0,1.0,664.412,1.0,269.0,8.0,1.04253,0.818642
White,2,Right,18,Male,Yes,English,A,271,1,16,16,0.0,0.0,1.0,733.062,1.0,270.0,8.0,1.16018,0.893349
White,2,Right,18,Male,Yes,English,A,272,0,16,0,180.0,1.0,1.0,1127.37,1.0,271.0,8.0,1.16364,0.902651
White,2,Right,18,Male,Yes,English,A,273,1,0,4,180.0,1.0,1.0,822.676,1.0,272.0,8.0,1.16406,0.809202
White,2,Right,18,Male,Yes,English,A,274,0,16,4,180.0,1.0,1.0,1234.44,1.0,273.0,8.0,1.00514,0.97406
White,2,Right,18,Male,Yes,English,A,275,1,4,8,0.0,0.0,1.0,907.766,1.0,274.0,8.0,1.01112,0.902399
White,2,Right,18,Male,Yes,English,A,276,0,0,0,0.0,0.0,1.0,688.773,1.0,275.0,8.0,1.04212,0.816503
White,2,Right,18,Male,Yes,English,A,277,1,16,8,180.0,1.0,1.0,1627.41,1.0,276.0,8.0,1.02673,0.82707
White,2,Right,18,Male,Yes,English,A,278,1,0,0,0.0,0.0,1.0,629.146,1.0,277.0,8.0,1.11388,0.8164
White,2,Right,18,Male,Yes,English,A,279,1,8,0,0.0,0.0,1.0,827.718,1.0,278.0,8.0,1.03478,0.822522
White,2,Right,18,Male,Yes,English,A,280,0,8,8,180.0,1.0,1.0,1065.72,1.0,279.0,8.0,1.16282,0.916993
White,2,Right,18,Male,Yes,English,A,281,0,4,16,180.0,1.0,1.0,1748.54,1.0,280.0,8.0,1.05354,0.897523
White,2,Right,18,Male,Yes,English,A,282,0,0,4,0.0,0.0,1.0,566.961,1.0,281.0,8.0,1.18282,0.855632
White,2,Right,18,Male,Yes,English,A,283,1,8,4,180.0,1.0,1.0,592.43,1.0,282.0,8.0,1.08141,0.909354
White,2,Right,18,Male,Yes,English,A,284,1,0,8,180.0,1.0,1.0,975.182,1.0,283.0,8.0,1.13364,0.994567
White,2,Right,18,Male,Yes,English,A,285,1,16,0,0.0,0.0,1.0,684.628,1.0,284.0,8.0,1.18213,0.940278
White,2,Right,18,Male,Yes,English,A,286,0,8,0,180.0,1.0,1.0,608.911,1.0,285.0,8.0,1.15195,0.877604
White,2,Right,18,Male,Yes,English,A,287,1,16,4,0.0,0.0,1.0,646.666,1.0,286.0,8.0,1.01087,0.802015
White,2,Right,18,Male,Yes,English,A,288,0,8,4,180.0,1.0,1.0,970.681,1.0,287.0,8.0,1.07117,0.968171
White,2,Right,18,Male,Yes,English,A,289,0,8,16,180.0,1.0,1.0,897.027,1.0,288.0,9.0,1.19987,0.807681
White,2,Right,18,Male,Yes,English,A,290,1,4,4,0.0,0.0,1.0,854.646,1.0,289.0,9.0,1.17782,0.862738
White,2,Right,18,Male,Yes,English,A,291,0,16,4,180.0,1.0,1.0,760.009,1.0,290.0,9.0,1.01309,0.907643
White,2,Right,18,Male,Yes,English,A,292,1,4,8,180.0,1.0,1.0,823.636,1.0,291.0,9.0,1.06811,0.985258
White,2,Right,18,Male,Yes,English,A,293,0,4,0,180.0,1.0,1.0,513.398,1.0,292.0,9.0,1.06921,0.887659
White,2,Right,18,Male,Yes,English,A,294,0,16,16,0.0,0.0,1.0,705.717,1.0,293.0,9.0,1.05292,0.850017
White,2,Right,18,Male,Yes,English,A,295,1,0,4,180.0,1.0,1.0,663.226,1.0,294.0,9.0,1.0922,0.843274
White,2,Right,18,Male,Yes,English,A,296,0,0,4,0.0,0.0,1.0,963.865,1.0,295.0,9.0,1.07489,0.819853
White,2,Right,18,Male,Yes,English,A,297,0,0,16,0.0,0.0,1.0,717.297,1.0,296.0,9.0,1.08509,0.953756
White,2,Right,18,Male,Yes,English,A,298,0,4,8,180.0,1.0,1.0,692.382,1.0,297.0,9.0,1.14881,0.883443
White,2,Right,18,Male,Yes,English,A,299,1,16,0,180.0,1.0,1.0,931.647,1.0,298.0,9.0,1.06691,0.850511
White,2,Right,18,Male,Yes,English,A,300,0,8,4,0.0,0.0,1.0,719.94,1.0,299.0,9.0,1.14227,0.950811
White,2,Right,18,Male,Yes,English,A,301,1,0,8,0.0,0.0,1.0,1428.56,1.0,300.0,9.0,1.01064,0.841961
White,2,Right,18,Male,Yes,English,A,302,0,8,8,180.0,1.0,1.0,935.75,1.0,301.0,9.0,1.11207,0.810885
White,2,Right,18,Male,Yes,English,A,303,0,16,8,0.0,0.0,1.0,738.059,1.0,302.0,9.0,1.07302,0.834005
White,2,Right,18,Male,Yes,English,A,304,1,16,8,180.0,1.0,1.0,599.183,1.0,303.0,9.0,1.09833,0.867694
White,2,Right,18,Male,Yes,English,A,305,1,0,16,180.0,1.0,1.0,868.355,1.0,304.0,9.0,1.00967,0.989471
White,2,Right,18,Male,Yes,English,A,306,0,4,16,0.0,0.0,1.0,1005.89,1.0,305.0,9.0,1.00604,0.831871
White,2,Right,18,Male,Yes,English,A,307,1,8,8,0.0,0.0,1.0,736.157,1.0,306.0,9.0,1.11244,0.987781
White,2,Right,18,Male,Yes,English,A,308,0,8,0,0.0,0.0,1.0,893.617,1.0,307.0,9.0,1.1619,0.967016
White,2,Right,18,Male,Yes,English,A,309,1,8,4,180.0,1.0,1.0,861.975,1.0,308.0,9.0,1.04794,0.994933
White,2,Right,18,Male,Yes,English,A,310,1,4,0,180.0,1.0,1.0,1083.52,1.0,309.0,9.0,1.11241,0.848289
White,2,Right,18,Male,Yes,English,A,311,0,4,4,180.0,1.0,1.0,550.674,1.0,310.0,9.0,1.15443,0.896808
White,2,Right,18,Male,Yes,English,A,312,1,0,0,0.0,0.0,1.0,665.097,1.0,311.0,9.0,1.1791,0.89285
White,2,Right,18,Male,Yes,English,A,313,0,0,8,0.0,0.0,1.0,856.289,1.0,312.0,9.0,1.03514,0.80169
White,2,Right,18,Male,Yes,English,A,314,0,16,0,0.0,0.0,1.0,854.131,1.0,313.0,9.0,1.10165,0.879669
White,2,Right,18,Male,Yes,English,A,315,1,16,16,0.0,0.0,1.0,951.401,1.0,314.0,9.0,1.14093,0.823705
White,2,Right,18,Male,Yes,English,A,316,1,16,4,180.0,1.0,1.0,919.866,1.0,315.0,9.0,1.00715,0.951967
White,2,Right,18,Male,Yes,English,A,317,0,0,0,180.0,1.0,1.0,640.95,1.0,316.0,9.0,1.0473,0.818809
White,2,Right,18,Male,Yes,English,A,318,1,4,16,0.0,0.0,1.0,834.027,1.0,317.0,9.0,1.04942,0.841595
White,2,Right,18,Male,Yes,English,A,319,1,8,16,0.0,0.0,1.0,817.005,1.0,318.0,9.0,1.17572,0.829257
White,2,Right,18,Male,Yes,English,A,320,1,8,0,180.0,1.0,1.0,707.582,1.0,319.0,9.0,1.05592,0.979465
White,2,Right,18,Male,Yes,English,A,321,0,4,0,0.0,0.0,1.0,1138.09,1.0,320.0,10.0,1.13074,0.910039
White,2,Right,18,Male,Yes,English,A,322,1,16,16,180.0,1.0,1.0,626.465,1.0,321.0,10.0,1.15682,0.811445
White,2,Right,18,Male,Yes,English,A,323,0,4,16,0.0,0.0,1.0,736.436,1.0,322.0,10.0,1.08736,0.891926
White,2,Right,18,Male,Yes,English,A,324,1,4,4,180.0,1.0,1.0,460.184,1.0,323.0,10.0,1.07012,0.899573
White,2,Right,18,Male,Yes,English,A,325,0,8,0,0.0,0.0,1.0,747.051,1.0,324.0,10.0,1.16731,0.836144
White,2,Right,18,Male,Yes,English,A,326,0,4,4,180.0,1.0,1.0,674.752,1.0,325.0,10.0,1.02795,0.908626
White,2,Right,18,Male,Yes,English,A,327,1,0,0,180.0,1.0,1.0,653.182,1.0,326.0,10.0,1.16673,0.862681
White,2,Right,18,Male,Yes,English,A,328,0,0,0,0.0,0.0,1.0,698.92,1.0,327.0,10.0,1.02697,0.997183
White,2,Right,18,Male,Yes,English,A,329,1,4,8,0.0,0.0,1.0,592.87,1.0,328.0,10.0,1.10685,0.908941
White,2,Right,18,Male,Yes,English,A,330,1,8,0,0.0,0.0,1.0,676.596,1.0,329.0,10.0,1.17556,0.92244
White,2,Right,18,Male,Yes,English,A,331,1,0,4,180.0,1.0,1.0,541.321,1.0,330.0,10.0,1.06124,0.86816
White,2,Right,18,Male,Yes,English,A,332,1,8,16,0.0,0.0,1.0,1031.9,1.0,331.0,10.0,1.15143,0.888752
White,2,Right,18,Male,Yes,English,A,333,1,0,8,180.0,1.0,1.0,687.269,1.0,332.0,10.0,1.17842,0.923508
White,2,Right,18,Male,Yes,English,A,334,0,16,0,0.0,0.0,1.0,803.327,1.0,333.0,10.0,1.01364,0.863467
White,2,Right,18,Male,Yes,English,A,335,1,4,0,0.0,0.0,1.0,774.654,1.0,334.0,10.0,1.16814,0.884575
White,2,Right,18,Male,Yes,English,A,336,1,8,4,0.0,0.0,1.0,789.213,1.0,335.0,10.0,1.12774,0.806074
White,2,Right,18,Male,Yes,English,A,337,1,16,0,0.0,0.0,1.0,751.299,1.0,336.0,10.0,1.14518,0.823439
White,2,Right,18,Male,Yes,English,A,338,0,4,8,180.0,1.0,1.0,747.424,1.0,337.0,10.0,1.15485,0.934589
White,2,Right,18,Male,Yes,English,A,339,1,0,16,180.0,1.0,1.0,736.873,1.0,338.0,10.0,1.06979,0.954348
White,2,Right,18,Male,Yes,English,A,340,0,8,8,180.0,1.0,1.0,1104.86,1.0,339.0,10.0,1.13639,0.92829
White,2,Right,18,Male,Yes,English,A,341,0,8,4,180.0,1.0,1.0,773.144,1.0,340.0,10.0,1.15954,0.90174
White,2,Right,18,Male,Yes,English,A,342,0,16,16,0.0,0.0,1.0,715.183,1.0,341.0,10.0,1.1788,0.989779
White,2,Right,18,Male,Yes,English,A,343,0,16,4,0.0,0.0,1.0,950.41,1.0,342.0,10.0,1.0705,0.884798
White,2,Right,18,Male,Yes,English,A,344,0,0,8,180.0,1.0,1.0,684.239,1.0,343.0,10.0,1.10258,0.941769
White,2,Right,18,Male,Yes,English,A,345,1,16,8,0.0,0.0,1.0,973.244,1.0,344.0,10.0,1.15978,0.929677
White,2,Right,18,Male,Yes,English,A,346,0,16,8,180.0,1.0,1.0,812.357,1.0,345.0,10.0,1.02156,0.949017
White,2,Right,18,Male,Yes,English,A,347,1,8,8,180.0,1.0,1.0,1171.96,1.0,346.0,10.0,1.18073,0.928579
White,2,Right,18,Male,Yes,English,A,348,1,16,4,0.0,0.0,1.0,781.005,1.0,347.0,10.0,1.0421,0.934868
White,2,Right,18,Male,Yes,English,A,349,0,8,16,180.0,1.0,1.0,946.271,1.0,348.0,10.0,1.12504,0.96235
White,2,Right,18,Male,Yes,English,A,350,0,0,16,0.0,0.0,1.0,830.318,1.0,349.0,10.0,1.05905,0.86768
White,2,Right,18,Male,Yes,English,A,351,0,0,4,180.0,1.0,1.0,1617.03,1.0,350.0,10.0,1.18399,0.928177
White,2,Right,18,Male,Yes,English,A,352,1,4,16,180.0,1.0,1.0,608.131,1.0,351.0,10.0,1.09889,0.888666
White,2,Right,18,Male,Yes,English,A,353,1,4,8,180.0,1.0,1.0,834.602,1.0,352.0,11.0,1.02114,0.95499
White,2,Right,18,Male,Yes,English,A,354,0,16,4,0.0,0.0,1.0,1012.32,1.0,353.0,11.0,1.09878,0.801525
White,2,Right,18,Male,Yes,English,A,355,0,0,8,180.0,1.0,1.0,911.829,1.0,354.0,11.0,1.07827,0.936216
White,2,Right,18,Male,Yes,English,A,356,1,8,16,0.0,0.0,1.0,809.349,1.0,355.0,11.0,1.03819,0.952221
White,2,Right,18,Male,Yes,English,A,357,1,16,8,0.0,0.0,1.0,1174.6,1.0,356.0,11.0,1.17434,0.870079
White,2,Right,18,Male,Yes,English,A,358,0,8,16,0.0,0.0,1.0,868.784,1.0,357.0,11.0,1.0778,0.92349
White,2,Right,18,Male,Yes,English,A,359,0,8,0,180.0,1.0,1.0,809.491,1.0,358.0,11.0,1.14617,0.974334
White,2,Right,18,Male,Yes,English,A,360,0,4,4,0.0,0.0,1.0,881.428,1.0,359.0,11.0,1.04923,0.969732
White,2,Right,18,Male,Yes,English,A,361,0,8,4,0.0,0.0,1.0,774.685,1.0,360.0,11.0,1.10745,0.855175
White,2,Right,18,Male,Yes,English,A,362,0,4,16,180.0,1.0,1.0,693.154,1.0,361.0,11.0,1.15241,0.866729
White,2,Right,18,Male,Yes,English,A,363,1,0,0,0.0,0.0,1.0,822.577,1.0,362.0,11.0,1.17695,0.959485
White,2,Right,18,Male,Yes,English,A,364,1,8,4,0.0,0.0,1.0,677.93,1.0,363.0,11.0,1.11498,0.936692
White,2,Right,18,Male,Yes,English,A,365,0,0,4,180.0,1.0,1.0,597.652,1.0,364.0,11.0,1.04077,0.9955
White,2,Right,18,Male,Yes,English,A,366,1,4,16,180.0,1.0,1.0,706.408,1.0,365.0,11.0,1.07536,0.926229
White,2,Right,18,Male,Yes,English,A,367,1,16,4,180.0,1.0,1.0,549.305,1.0,366.0,11.0,1.16794,0.891141
White,2,Right,18,Male,Yes,English,A,368,1,8,0,180.0,1.0,1.0,884.041,1.0,367.0,11.0,1.06306,0.85695
White,2,Right,18,Male,Yes,English,A,369,0,0,16,0.0,0.0,1.0,938.566,1.0,368.0,11.0,1.16823,0.810696
White,2,Right,18,Male,Yes,English,A,370,1,0,16,180.0,1.0,1.0,844.628,1.0,369.0,11.0,1.1619,0.817008
White,2,Right,18,Male,Yes,English,A,371,0,16,16,0.0,0.0,1.0,891.723,1.0,370.0,11.0,1.11406,0.91152
White,2,Right,18,Male,Yes,English,A,372,0,4,0,0.0,0.0,1.0,1166.15,1.0,371.0,11.0,1.01315,0.949365
White,2,Right,18,Male,Yes,English,A,373,1,0,4,0.0,0.0,1.0,813.837,1.0,372.0,11.0,1.02269,0.880973
White,2,Right,18,Male,Yes,English,A,374,1,16,16,0.0,0.0,1.0,884.153,1.0,373.0,11.0,1.13877,0.988385
White,2,Right,18,Male,Yes,English,A,375,1,4,4,180.0,1.0,1.0,688.346,1.0,374.0,11.0,1.18657,0.920611
White,2,Right,18,Male,Yes,English,A,376,1,0,8,0.0,0.0,1.0,841.046,1.0,375.0,11.0,1.0096,0.904687
White,2,Right,18,Male,Yes,English,A,377,0,8,8,180.0,1.0,1.0,1016.49,1.0,376.0,11.0,1.00012,0.860077
White,2,Right,18,Male,Yes,English,A,378,0,4,8,0.0,0.0,1.0,547.229,1.0,377.0,11.0,1.0644,0.903268
White,2,Right,18,Male,Yes,English,A,379,1,16,0,180.0,1.0,1.0,716.04,1.0,378.0,11.0,1.09786,0.966613
White,2,Right,18,Male,Yes,English,A,380,1,8,8,180.0,1.0,1.0,496.692,1.0,379.0,11.0,1.14541,0.848888
White,2,Right,18,Male,Yes,English,A,381,0,16,0,0.0,0.0,1.0,914.025,1.0,380.0,11.0,1.02108,0.807325
White,2,Right,18,Male,Yes,English,A,382,0,0,0,180.0,1.0,1.0,443.55,1.0,381.0,11.0,1.05434,0.835781
White,2,Right,18,Male,Yes,English,A,383,1,4,0,180.0,1.0,1.0,1214.75,1.0,382.0,11.0,1.05219,0.910474
White,2,Right,18,Male,Yes,English,A,384,0,16,8,180.0,1.0,1.0,1136.74,1.0,383.0,11.0,1.141,0.850011
White,2,Right,18,Male,Yes,English,A,385,1,16,16,0.0,0.0,1.0,712.327,1.0,384.0,12.0,1.12214,0.881952
White,2,Right,18,Male,Yes,English,A,386,0,0,0,0.0,0.0,1.0,684.034,1.0,385.0,12.0,1.06329,0.834672
White,2,Right,18,Male,Yes,English,A,387,0,0,4,180.0,1.0,1.0,903.997,1.0,386.0,12.0,1.16929,0.839249
White,2,Right,18,Male,Yes,English,A,388,0,4,0,0.0,0.0,1.0,714.631,1.0,387.0,12.0,1.0275,0.832391
White,2,Right,18,Male,Yes,English,A,389,1,8,16,0.0,0.0,1.0,1067.15,1.0,388.0,12.0,1.12639,0.95361
White,2,Right,18,Male,Yes,English,A,390,1,4,0,0.0,0.0,1.0,663.732,1.0,389.0,12.0,1.16524,0.973544
White,2,Right,18,Male,Yes,English,A,391,0,0,16,0.0,0.0,1.0,705.94,1.0,390.0,12.0,1.1761,0.961478
White,2,Right,18,Male,Yes,English,A,392,1,4,4,180.0,1.0,1.0,802.286,1.0,391.0,12.0,1.18005,0.811633
White,2,Right,18,Male,Yes,English,A,393,1,0,8,0.0,0.0,1.0,599.636,1.0,392.0,12.0,1.10808,0.965057
White,2,Right,18,Male,Yes,English,A,394,0,8,16,180.0,1.0,1.0,710.015,1.0,393.0,12.0,1.18047,0.923424
White,2,Right,18,Male,Yes,English,A,395,0,16,8,180.0,1.0,1.0,655.032,1.0,394.0,12.0,1.05162,0.82309
White,2,Right,18,Male,Yes,English,A,396,1,8,8,0.0,0.0,1.0,844.989,1.0,395.0,12.0,1.12976,0.928756
White,2,Right,18,Male,Yes,English,A,397,0,4,4,180.0,1.0,1.0,691.979,1.0,396.0,12.0,1.00936,0.996575
White,2,Right,18,Male,Yes,English,A,398,0,8,8,0.0,0.0,1.0,1060.37,1.0,397.0,12.0,1.06459,0.949259
White,2,Right,18,Male,Yes,English,A,399,1,8,0,180.0,1.0,1.0,925.083,1.0,398.0,12.0,1.0058,0.88963
White,2,Right,18,Male,Yes,English,A,400,0,4,8,180.0,1.0,1.0,1036.9,1.0,399.0,12.0,1.10067,0.994751
White,2,Right,18,Male,Yes,English,A,401,1,16,4,180.0,1.0,1.0,681.001,1.0,400.0,12.0,1.075,0.93289
White,2,Right,18,Male,Yes,English,A,402,1,0,0,180.0,1.0,1.0,652.277,1.0,401.0,12.0,1.02416,0.993789
White,2,Right,18,Male,Yes,English,A,403,0,16,16,180.0,1.0,1.0,659.472,1.0,402.0,12.0,1.1604,0.853446
White,2,Right,18,Male,Yes,English,A,404,0,8,4,180.0,1.0,1.0,755.092,1.0,403.0,12.0,1.14168,0.938599
White,2,Right,18,Male,Yes,English,A,405,0,0,8,180.0,1.0,1.0,1549.72,1.0,404.0,12.0,1.12089,0.8151
White,2,Right,18,Male,Yes,English,A,406,1,0,4,0.0,0.0,1.0,682.277,1.0,405.0,12.0,1.04023,0.843628
White,2,Right,18,Male,Yes,English,A,407,0,8,0,0.0,0.0,1.0,966.478,1.0,406.0,12.0,1.09287,0.918739
White,2,Right,18,Male,Yes,English,A,408,1,4,8,180.0,1.0,1.0,694.79,1.0,407.0,12.0,1.19542,0.842139
White,2,Right,18,Male,Yes,English,A,409,0,16,4,180.0,1.0,1.0,682.895,1.0,408.0,12.0,1.08092,0.996537
White,2,Right,18,Male,Yes,English,A,410,1,0,16,180.0,1.0,1.0,793.055,1.0,409.0,12.0,1.16522,0.929703
White,2,Right,18,Male,Yes,English,A,411,1,4,16,0.0,0.0,1.0,786.976,1.0,410.0,12.0,1.0036,0.860733
White,2,Right,18,Male,Yes,English,A,412,1,16,0,180.0,1.0,1.0,592.252,1.0,411.0,12.0,1.1338,0.946915
White,2,Right,18,Male,Yes,English,A,413,0,16,0,0.0,0.0,1.0,840.992,1.0,412.0,12.0,1.10584,0.839242
White,2,Right,18,Male,Yes,English,A,414,0,4,16,0.0,1.0,0.0,661.818,1.0,413.0,12.0,1.14541,0.967997
White,2,Right,18,Male,Yes,English,A,415,1,16,8,0.0,0.0,1.0,1469.37,1.0,414.0,12.0,1.05218,0.889648
White,2,Right,18,Male,Yes,English,A,416,1,8,4,0.0,0.0,1.0,588.158,1.0,415.0,12.0,1.13196,0.849229
White,2,Right,18,Male,Yes,English,A,417,0,0,0,180.0,1.0,1.0,660.147,1.0,416.0,13.0,1.10763,0.814477
White,2,Right,18,Male,Yes,English,A,418,1,0,0,0.0,0.0,1.0,669.8,1.0,417.0,13.0,1.12062,0.944866
White,2,Right,18,Male,Yes,English,A,419,1,0,16,0.0,0.0,1.0,671.602,1.0,418.0,13.0,1.11186,0.920492
White,2,Right,18,Male,Yes,English,A,420,1,16,0,0.0,0.0,1.0,757.052,1.0,419.0,13.0,1.17647,0.819876
White,2,Right,18,Male,Yes,English,A,421,1,4,16,0.0,0.0,1.0,698.548,1.0,420.0,13.0,1.00919,0.865679
White,2,Right,18,Male,Yes,English,A,422,0,4,4,0.0,0.0,1.0,839.485,1.0,421.0,13.0,1.10825,0.925851
White,2,Right,18,Male,Yes,English,A,423,0,0,16,180.0,1.0,1.0,930.109,1.0,422.0,13.0,1.13993,0.864103
White,2,Right,18,Male,Yes,English,A,424,0,8,4,0.0,0.0,1.0,1263.67,1.0,423.0,13.0,1.10831,0.940425
White,2,Right,18,Male,Yes,English,A,425,0,0,8,0.0,0.0,1.0,1131.38,1.0,424.0,13.0,1.0853,0.851094
White,2,Right,18,Male,Yes,English,A,426,0,0,4,0.0,0.0,1.0,670.026,1.0,425.0,13.0,1.011,0.847596
White,2,Right,18,Male,Yes,English,A,427,1,8,4,180.0,1.0,1.0,970.916,1.0,426.0,13.0,1.19858,0.987505
White,2,Right,18,Male,Yes,English,A,428,1,8,16,180.0,1.0,1.0,763.119,1.0,427.0,13.0,1.06048,0.819912
White,2,Right,18,Male,Yes,English,A,429,0,4,0,180.0,1.0,1.0,629.44,1.0,428.0,13.0,1.19832,0.874267
White,2,Right,18,Male,Yes,English,A,430,1,4,8,180.0,1.0,1.0,562.808,1.0,429.0,13.0,1.18728,0.874145
White,2,Right,18,Male,Yes,English,A,431,0,8,8,180.0,1.0,1.0,1362.87,1.0,430.0,13.0,1.15754,0.924212
White,2,Right,18,Male,Yes,English,A,432,0,4,16,180.0,1.0,1.0,995.446,1.0,431.0,13.0,1.09852,0.824004
White,2,Right,18,Male,Yes,English,A,433,1,4,4,180.0,1.0,1.0,1152.62,1.0,432.0,13.0,1.16422,0.950344
White,2,Right,18,Male,Yes,English,A,434,1,0,4,180.0,1.0,1.0,699.551,1.0,433.0,13.0,1.14843,0.909562
White,2,Right,18,Male,Yes,English,A,435,1,16,16,0.0,0.0,1.0,1373.27,1.0,434.0,13.0,1.19817,0.908616
White,2,Right,18,Male,Yes,English,A,436,0,4,8,0.0,0.0,1.0,546.181,1.0,435.0,13.0,1.15704,0.954786
White,2,Right,18,Male,Yes,English,A,437,0,16,8,0.0,0.0,1.0,819.837,1.0,436.0,13.0,1.01718,0.900464
White,2,Right,18,Male,Yes,English,A,438,1,8,8,0.0,0.0,1.0,811.763,1.0,437.0,13.0,1.03072,0.848792
White,2,Right,18,Male,Yes,English,A,439,1,4,0,180.0,1.0,1.0,762.442,1.0,438.0,13.0,1.01638,0.934575
White,2,Right,18,Male,Yes,English,A,440,0,16,0,180.0,1.0,1.0,780.111,1.0,439.0,13.0,1.02728,0.876763
White,2,Right,18,Male,Yes,English,A,441,1,8,0,180.0,1.0,1.0,743.665,1.0,440.0,13.0,1.03762,0.956118
White,2,Right,18,Male,Yes,English,A,442,0,8,0,180.0,0.0,0.0,10.4625,1.0,441.0,13.0,1.07514,0.889862
White,2,Right,18,Male,Yes,English,A,443,0,8,16,0.0,0.0,1.0,734.639,1.0,442.0,13.0,1.0726,0.929046
White,2,Right,18,Male,Yes,English,A,444,1,16,4,0.0,0.0,1.0,682.017,1.0,443.0,13.0,1.19453,0.873621
White,2,Right,18,Male,Yes,English,A,445,1,16,8,0.0,0.0,1.0,1064.63,1.0,444.0,13.0,1.07123,0.974384
White,2,Right,18,Male,Yes,English,A,446,0,16,4,180.0,1.0,1.0,619.272,1.0,445.0,13.0,1.16563,0.926559
White,2,Right,18,Male,Yes,English,A,447,1,0,8,180.0,1.0,1.0,621.804,1.0,446.0,13.0,1.05648,0.970703
White,2,Right,18,Male,Yes,English,A,448,0,16,16,0.0,0.0,1.0,760.529,1.0,447.0,13.0,1.05361,0.875552
White,2,Right,18,Male,Yes,English,A,449,1,4,16,180.0,1.0,1.0,1027.99,1.0,448.0,14.0,1.16455,0.843669
White,2,Right,18,Male,Yes,English,A,450,0,8,8,180.0,1.0,1.0,782.084,1.0,449.0,14.0,1.01279,0.891862
White,2,Right,18,Male,Yes,English,A,451,0,4,0,0.0,0.0,1.0,717.555,1.0,450.0,14.0,1.08865,0.80785
White,2,Right,18,Male,Yes,English,A,452,0,0,0,180.0,1.0,1.0,133.444,1.0,451.0,14.0,1.07522,0.824038
White,2,Right,18,Male,Yes,English,A,453,0,4,16,0.0,0.0,1.0,703.144,1.0,452.0,14.0,1.18009,0.805582
White,2,Right,18,Male,Yes,English,A,454,0,4,4,0.0,0.0,1.0,569.957,1.0,453.0,14.0,1.11093,0.876919
White,2,Right,18,Male,Yes,English,A,455,1,8,0,0.0,0.0,1.0,655.739,1.0,454.0,14.0,1.0104,0.841218
White,2,Right,18,Male,Yes,English,A,456,0,8,16,180.0,1.0,1.0,704.675,1.0,455.0,14.0,1.02679,0.905087
White,2,Right,18,Male,Yes,English,A,457,0,16,16,180.0,1.0,1.0,1357.46,1.0,456.0,14.0,1.1086,0.815775
White,2,Right,18,Male,Yes,English,A,458,0,8,4,0.0,0.0,1.0,1021.3,1.0,457.0,14.0,1.07542,0.908152
White,2,Right,18,Male,Yes,English,A,459,0,0,16,0.0,0.0,1.0,656.497,1.0,458.0,14.0,1.06343,0.989976
White,2,Right,18,Male,Yes,English,A,460,1,16,0,0.0,0.0,1.0,744.085,1.0,459.0,14.0,1.17071,0.941032
White,2,Right,18,Male,Yes,English,A,461,1,4,4,180.0,1.0,1.0,920.697,1.0,460.0,14.0,1.14915,0.955426
White,2,Right,18,Male,Yes,English,A,462,0,4,8,180.0,1.0,1.0,652.518,1.0,461.0,14.0,1.07352,0.805965
White,2,Right,18,Male,Yes,English,A,463,1,0,0,180.0,1.0,1.0,694.421,1.0,462.0,14.0,1.02753,0.855042
White,2,Right,18,Male,Yes,English,A,464,0,16,0,180.0,1.0,1.0,1247.25,1.0,463.0,14.0,1.0748,0.943603
White,2,Right,18,Male,Yes,English,A,465,1,8,8,0.0,0.0,1.0,856.286,1.0,464.0,14.0,1.06478,0.958398
White,2,Right,18,Male,Yes,English,A,466,0,8,0,180.0,1.0,1.0,997.164,1.0,465.0,14.0,1.03993,0.957259
White,2,Right,18,Male,Yes,English,A,467,1,16,16,0.0,0.0,1.0,1051.33,1.0,466.0,14.0,1.12981,0.935734
White,2,Right,18,Male,Yes,English,A,468,1,8,4,180.0,1.0,1.0,1513.96,1.0,467.0,14.0,1.03578,0.92514
White,2,Right,18,Male,Yes,English,A,469,1,4,0,180.0,1.0,1.0,906.141,1.0,468.0,14.0,1.18655,0.894167
White,2,Right,18,Male,Yes,English,A,470,1,16,8,0.0,0.0,1.0,1073.82,1.0,469.0,14.0,1.13547,0.916628
White,2,Right,18,Male,Yes,English,A,471,1,0,8,180.0,1.0,1.0,571.306,1.0,470.0,14.0,1.01406,0.997986
White,2,Right,18,Male,Yes,English,A,472,1,8,16,0.0,0.0,1.0,1183.27,1.0,471.0,14.0,1.0371,0.828461
White,2,Right,18,Male,Yes,English,A,473,1,16,4,0.0,0.0,1.0,555.335,1.0,472.0,14.0,1.12156,0.908188
White,2,Right,18,Male,Yes,English,A,474,0,0,8,0.0,0.0,1.0,1318.73,1.0,473.0,14.0,1.09225,0.978673
White,2,Right,18,Male,Yes,English,A,475,0,0,4,180.0,1.0,1.0,762.206,1.0,474.0,14.0,1.1531,0.802246
White,2,Right,18,Male,Yes,English,A,476,0,16,8,0.0,0.0,1.0,976.477,1.0,475.0,14.0,1.03158,0.999743
White,2,Right,18,Male,Yes,English,A,477,1,4,8,0.0,0.0,1.0,1063.04,1.0,476.0,14.0,1.04398,0.948496
White,2,Right,18,Male,Yes,English,A,478,0,16,4,180.0,1.0,1.0,876.736,1.0,477.0,14.0,1.00995,0.910587
White,2,Right,18,Male,Yes,English,A,479,1,0,16,180.0,1.0,1.0,1331.06,1.0,478.0,14.0,1.19554,0.822644
White,2,Right,18,Male,Yes,English,A,480,1,0,4,0.0,0.0,1.0,938.289,1.0,479.0,14.0,1.06523,0.871281
White,2,Right,18,Male,Yes,English,A,481,1,8,16,180.0,1.0,1.0,610.448,1.0,480.0,15.0,1.06149,0.97804
White,2,Right,18,Male,Yes,English,A,482,0,4,16,0.0,0.0,1.0,703.184,1.0,481.0,15.0,1.0839,0.98789
White,2,Right,18,Male,Yes,English,A,483,1,16,16,0.0,0.0,1.0,700.487,1.0,482.0,15.0,1.11663,0.831499
White,2,Right,18,Male,Yes,English,A,484,1,0,16,180.0,1.0,1.0,905.521,1.0,483.0,15.0,1.13248,0.817839
White,2,Right,18,Male,Yes,English,A,485,1,8,4,180.0,1.0,1.0,834.574,1.0,484.0,15.0,1.04688,0.989894
White,2,Right,18,Male,Yes,English,A,486,1,0,0,0.0,0.0,1.0,739.876,1.0,485.0,15.0,1.05677,0.969748
White,2,Right,18,Male,Yes,English,A,487,1,16,4,180.0,1.0,1.0,1046.12,1.0,486.0,15.0,1.16683,0.946747
White,2,Right,18,Male,Yes,English,A,488,0,0,0,180.0,1.0,1.0,572.13,1.0,487.0,15.0,1.19681,0.96309
White,2,Right,18,Male,Yes,English,A,489,0,16,16,0.0,0.0,1.0,1107.24,1.0,488.0,15.0,1.11376,0.860135
White,2,Right,18,Male,Yes,English,A,490,0,16,4,0.0,0.0,1.0,1023.63,1.0,489.0,15.0,1.00636,0.922246
White,2,Right,18,Male,Yes,English,A,491,1,8,8,0.0,0.0,1.0,1167.58,1.0,490.0,15.0,1.13183,0.994274
White,2,Right,18,Male,Yes,English,A,492,0,8,16,0.0,0.0,1.0,786.688,1.0,491.0,15.0,1.10292,0.965867
White,2,Right,18,Male,Yes,English,A,493,1,4,16,180.0,1.0,1.0,566.221,1.0,492.0,15.0,1.00132,0.862092
White,2,Right,18,Male,Yes,English,A,494,1,0,4,180.0,1.0,1.0,499.02,1.0,493.0,15.0,1.04511,0.951725
White,2,Right,18,Male,Yes,English,A,495,1,8,0,0.0,0.0,1.0,1125.41,1.0,494.0,15.0,1.06009,0.916412
White,2,Right,18,Male,Yes,English,A,496,0,4,8,180.0,1.0,1.0,976.135,1.0,495.0,15.0,1.00716,0.933683
White,2,Right,18,Male,Yes,English,A,497,1,0,8,0.0,0.0,1.0,678.833,1.0,496.0,15.0,1.03215,0.979626
White,2,Right,18,Male,Yes,English,A,498,0,8,0,180.0,1.0,1.0,956.335,1.0,497.0,15.0,1.07146,0.862176
White,2,Right,18,Male,Yes,English,A,499,0,0,8,180.0,1.0,1.0,751.051,1.0,498.0,15.0,1.03202,0.990393
White,2,Right,18,Male,Yes,English,A,500,1,4,0,180.0,1.0,1.0,572.835,1.0,499.0,15.0,1.16651,0.941185
White,2,Right,18,Male,Yes,English,A,501,0,16,8,180.0,1.0,1.0,1237.07,1.0,500.0,15.0,1.09496,0.997851
White,2,Right,18,Male,Yes,English,A,502,0,0,4,0.0,0.0,1.0,998.019,1.0,501.0,15.0,1.10521,0.896501
White,2,Right,18,Male,Yes,English,A,503,1,4,4,0.0,0.0,1.0,1101.52,1.0,502.0,15.0,1.02451,0.89066
White,2,Right,18,Male,Yes,English,A,504,0,16,0,0.0,0.0,1.0,898.146,1.0,503.0,15.0,1.00153,0.892953
White,2,Right,18,Male,Yes,English,A,505,0,8,4,0.0,0.0,1.0,1199.15,1.0,504.0,15.0,1.0949,0.88207
White,2,Right,18,Male,Yes,English,A,506,0,4,4,180.0,1.0,1.0,1057.1,1.0,505.0,15.0,1.00977,0.827752
White,2,Right,18,Male,Yes,English,A,507,1,4,8,0.0,0.0,1.0,865.706,1.0,506.0,15.0,1.05177,0.946528
White,2,Right,18,Male,Yes,English,A,508,0,4,0,0.0,0.0,1.0,795.826,1.0,507.0,15.0,1.11926,0.980158
White,2,Right,18,Male,Yes,English,A,509,0,0,16,180.0,1.0,1.0,1262.32,1.0,508.0,15.0,1.1508,0.890999
White,2,Right,18,Male,Yes,English,A,510,1,16,8,180.0,1.0,1.0,670.311,1.0,509.0,15.0,1.02811,0.954421
White,2,Right,18,Male,Yes,English,A,511,1,16,0,0.0,0.0,1.0,848.927,1.0,510.0,15.0,1.12942,0.803931
White,2,Right,18,Male,Yes,English,A,512,0,8,8,180.0,1.0,1.0,740.33,1.0,511.0,15.0,1.04998,0.861764
White,2,Right,18,Male,Yes,English,A,513,0,4,16,180.0,1.0,1.0,1306.89,1.0,512.0,16.0,1.17271,0.909191
White,2,Right,18,Male,Yes,English,A,514,1,0,16,180.0,1.0,1.0,1034.97,1.0,513.0,16.0,1.12925,0.859042
White,2,Right,18,Male,Yes,English,A,515,1,16,4,0.0,0.0,1.0,1041.4,1.0,514.0,16.0,1.0392,0.83224
White,2,Right,18,Male,Yes,English,A,516,0,4,0,180.0,1.0,1.0,959.936,1.0,515.0,16.0,1.03269,0.880738
White,2,Right,18,Male,Yes,English,A,517,0,8,0,180.0,1.0,1.0,693.706,1.0,516.0,16.0,1.06762,0.984662
White,2,Right,18,Male,Yes,English,A,518,0,16,8,180.0,1.0,1.0,1205.75,1.0,517.0,16.0,1.01334,0.959323
White,2,Right,18,Male,Yes,English,A,519,1,8,16,180.0,1.0,1.0,861.217,1.0,518.0,16.0,1.07708,0.968933
White,2,Right,18,Male,Yes,English,A,520,1,4,8,0.0,0.0,1.0,997.062,1.0,519.0,16.0,1.06347,0.93525
White,2,Right,18,Male,Yes,English,A,521,1,4,16,0.0,0.0,1.0,572.708,1.0,520.0,16.0,1.1458,0.852149
White,2,Right,18,Male,Yes,English,A,522,0,16,0,0.0,0.0,1.0,1143.58,1.0,521.0,16.0,1.05277,0.915646
White,2,Right,18,Male,Yes,English,A,523,0,0,0,180.0,1.0,1.0,610.939,1.0,522.0,16.0,1.10984,0.951906
White,2,Right,18,Male,Yes,English,A,524,1,8,8,180.0,1.0,1.0,1073.52,1.0,523.0,16.0,1.12384,0.934419
White,2,Right,18,Male,Yes,English,A,525,1,4,0,180.0,1.0,1.0,940.206,1.0,524.0,16.0,1.06358,0.872075
White,2,Right,18,Male,Yes,English,A,526,0,4,4,0.0,0.0,1.0,822.654,1.0,525.0,16.0,1.18902,0.997264
White,2,Right,18,Male,Yes,English,A,527,0,16,16,0.0,0.0,1.0,1302.66,1.0,526.0,16.0,1.17583,0.900992
White,2,Right,18,Male,Yes,English,A,528,1,0,4,180.0,1.0,1.0,796.751,1.0,527.0,16.0,1.09729,0.920016
White,2,Right,18,Male,Yes,English,A,529,1,8,0,0.0,0.0,1.0,680.377,1.0,528.0,16.0,1.03862,0.970515
White,2,Right,18,Male,Yes,English,A,530,1,16,16,0.0,0.0,1.0,990.676,1.0,529.0,16.0,1.08655,0.846509
White,2,Right,18,Male,Yes,English,A,531,0,8,16,0.0,0.0,1.0,1029.32,1.0,530.0,16.0,1.02857,0.906505
White,2,Right,18,Male,Yes,English,A,532,1,16,8,180.0,1.0,1.0,505.344,1.0,531.0,16.0,1.07253,0.907484
White,2,Right,18,Male,Yes,English,A,533,1,4,4,0.0,0.0,1.0,843.659,1.0,532.0,16.0,1.0475,0.864613
White,2,Right,18,Male,Yes,English,A,534,0,0,16,0.0,0.0,1.0,1363.36,1.0,533.0,16.0,1.16376,0.968015
White,2,Right,18,Male,Yes,English,A,535,1,16,0,180.0,1.0,1.0,689.539,1.0,534.0,16.0,1.11874,0.916531
White,2,Right,18,Male,Yes,English,A,536,0,16,4,180.0,1.0,1.0,716.792,1.0,535.0,16.0,1.06391,0.925916
White,2,Right,18,Male,Yes,English,A,537,0,4,8,0.0,0.0,1.0,801.227,1.0,536.0,16.0,1.09919,0.920053
White,2,Right,18,Male,Yes,English,A,538,0,0,8,0.0,0.0,1.0,664.723,1.0,537.0,16.0,1.08036,0.813751
White,2,Right,18,Male,Yes,English,A,539,1,0,0,180.0,1.0,1.0,1050.44,1.0,538.0,16.0,1.09388,0.887484
White,2,Right,18,Male,Yes,English,A,540,0,8,4,0.0,0.0,1.0,1111.25,1.0,539.0,16.0,1.14287,0.974088
White,2,Right,18,Male,Yes,English,A,541,0,0,4,180.0,1.0,1.0,696.089,1.0,540.0,16.0,1.19166,0.824965
White,2,Right,18,Male,Yes,English,A,542,1,8,4,0.0,0.0,1.0,750.386,1.0,541.0,16.0,1.08376,0.905048
White,2,Right,18,Male,Yes,English,A,543,1,0,8,0.0,0.0,1.0,732.028,1.0,542.0,16.0,1.10084,0.923317
White,2,Right,18,Male,Yes,English,A,544,0,8,8,180.0,1.0,1.0,769.417,1.0,543.0,16.0,1.13133,0.965653
White,2,Right,18,Male,Yes,English,A,545,1,16,16,0.0,0.0,1.0,1156.08,1.0,544.0,17.0,1.09542,0.845652
White,2,Right,18,Male,Yes,English,A,546,1,8,4,180.0,1.0,1.0,624.612,1.0,545.0,17.0,1.19385,0.950679
White,2,Right,18,Male,Yes,English,A,547,0,0,16,0.0,0.0,1.0,1110.37,1.0,546.0,17.0,1.1274,0.800571
White,2,Right,18,Male,Yes,English,A,548,0,4,8,180.0,1.0,1.0,671.12,1.0,547.0,17.0,1.1618,0.895256
White,2,Right,18,Male,Yes,English,A,549,0,8,8,0.0,0.0,1.0,1295.04,1.0,548.0,17.0,1.10483,0.993509
White,2,Right,18,Male,Yes,English,A,550,1,8,0,0.0,1.0,0.0,1009.72,1.0,549.0,17.0,1.13038,0.921947
White,2,Right,18,Male,Yes,English,A,551,0,4,4,180.0,1.0,1.0,1208.71,1.0,550.0,17.0,1.05278,0.98472
White,2,Right,18,Male,Yes,English,A,552,1,16,8,180.0,1.0,1.0,508.575,1.0,551.0,17.0,1.16013,0.808707
White,2,Right,18,Male,Yes,English,A,553,0,0,0,0.0,0.0,1.0,791.823,1.0,552.0,17.0,1.17798,0.929625
White,2,Right,18,Male,Yes,English,A,554,1,0,8,0.0,0.0,1.0,1067.04,1.0,553.0,17.0,1.09232,0.875374
White,2,Right,18,Male,Yes,English,A,555,1,16,4,180.0,1.0,1.0,1495.82,1.0,554.0,17.0,1.16978,0.965001
White,2,Right,18,Male,Yes,English,A,556,1,8,8,180.0,1.0,1.0,571.358,1.0,555.0,17.0,1.00476,0.941445
White,2,Right,18,Male,Yes,English,A,557,1,8,16,180.0,1.0,1.0,1042.16,1.0,556.0,17.0,1.15662,0.892658
White,2,Right,18,Male,Yes,English,A,558,0,16,16,180.0,1.0,1.0,2463.53,1.0,557.0,17.0,1.12287,0.988035
White,2,Right,18,Male,Yes,English,A,559,1,0,16,0.0,0.0,1.0,957.739,1.0,558.0,17.0,1.1808,0.999683
White,2,Right,18,Male,Yes,English,A,560,0,16,0,180.0,1.0,1.0,1072.12,1.0,559.0,17.0,1.12117,0.871555
White,2,Right,18,Male,Yes,English,A,561,1,4,16,180.0,1.0,1.0,871.542,1.0,560.0,17.0,1.07319,0.850661
White,2,Right,18,Male,Yes,English,A,562,0,4,0,0.0,0.0,1.0,1380.99,1.0,561.0,17.0,1.03658,0.865959
White,2,Right,18,Male,Yes,English,A,563,0,8,4,180.0,1.0,1.0,1251.23,1.0,562.0,17.0,1.09404,0.972732
White,2,Right,18,Male,Yes,English,A,564,0,0,8,0.0,9999.0,0.0,9999.0,1.0,563.0,17.0,1.09528,0.806524
White,2,Right,18,Male,Yes,English,A,565,1,16,0,0.0,0.0,1.0,539.88,1.0,564.0,17.0,1.0773,0.885417
White,2,Right,18,Male,Yes,English,A,566,1,0,0,0.0,0.0,1.0,716.795,1.0,565.0,17.0,1.19231,0.971574
White,2,Right,18,Male,Yes,English,A,567,1,4,8,180.0,1.0,1.0,545.88,1.0,566.0,17.0,1.08998,0.86507
White,2,Right,18,Male,Yes,English,A,568,0,16,4,0.0,0.0,1.0,1022.05,1.0,567.0,17.0,1.18274,0.955417
White,2,Right,18,Male,Yes,English,A,569,0,8,0,180.0,1.0,1.0,493.548,1.0,568.0,17.0,1.1242,0.897017
White,2,Right,18,Male,Yes,English,A,570,1,4,4,0.0,0.0,1.0,586.277,1.0,569.0,17.0,1.16274,0.903615
White,2,Right,18,Male,Yes,English,A,571,1,4,0,180.0,1.0,1.0,699.958,1.0,570.0,17.0,1.03983,0.9133
White,2,Right,18,Male,Yes,English,A,572,0,16,8,0.0,0.0,1.0,720.53,1.0,571.0,17.0,1.02329,0.963921
White,2,Right,18,Male,Yes,English,A,573,0,8,16,0.0,0.0,1.0,906.36,1.0,572.0,17.0,1.17495,0.963465
White,2,Right,18,Male,Yes,English,A,574,0,0,4,180.0,1.0,1.0,988.055,1.0,573.0,17.0,1.1067,0.898999
White,2,Right,18,Male,Yes,English,A,575,0,4,16,180.0,1.0,1.0,558.877,1.0,574.0,17.0,1.15292,0.868738
White,2,Right,18,Male,Yes,English,A,576,1,0,4,0.0,0.0,1.0,1087.88,1.0,575.0,17.0,1.12256,0.82443
White,2,Right,18,Male,Yes,English,A,577,0,16,16,0.0,0.0,1.0,1665.6,1.0,576.0,18.0,1.15187,0.957163
White,2,Right,18,Male,Yes,English,A,578,0,0,16,180.0,1.0,1.0,626.764,1.0,577.0,18.0,1.05555,0.914062
White,2,Right,18,Male,Yes,English,A,579,1,8,8,0.0,0.0,1.0,1077.35,1.0,578.0,18.0,1.0723,0.827803
White,2,Right,18,Male,Yes,English,A,580,0,16,8,180.0,1.0,1.0,1054.5,1.0,579.0,18.0,1.07012,0.827124
White,2,Right,18,Male,Yes,English,A,581,1,4,4,180.0,1.0,1.0,671.378,1.0,580.0,18.0,1.16316,0.997249
White,2,Right,18,Male,Yes,English,A,582,1,16,4,180.0,1.0,1.0,1021.25,1.0,581.0,18.0,1.15496,0.905028
White,2,Right,18,Male,Yes,English,A,583,1,8,0,0.0,0.0,1.0,661.453,1.0,582.0,18.0,1.01901,0.997418
White,2,Right,18,Male,Yes,English,A,584,0,0,0,180.0,1.0,1.0,599.776,1.0,583.0,18.0,1.1336,0.824755
White,2,Right,18,Male,Yes,English,A,585,0,4,0,0.0,0.0,1.0,1272.75,1.0,584.0,18.0,1.15008,0.852619
White,2,Right,18,Male,Yes,English,A,586,1,4,16,180.0,1.0,1.0,547.136,1.0,585.0,18.0,1.0513,0.880362
White,2,Right,18,Male,Yes,English,A,587,1,16,8,0.0,0.0,1.0,825.866,1.0,586.0,18.0,1.13956,0.953312
White,2,Right,18,Male,Yes,English,A,588,0,4,4,0.0,0.0,1.0,780.648,1.0,587.0,18.0,1.10588,0.806941
White,2,Right,18,Male,Yes,English,A,589,0,8,0,0.0,0.0,1.0,1187.91,1.0,588.0,18.0,1.08457,0.810519
White,2,Right,18,Male,Yes,English,A,590,1,8,4,180.0,1.0,1.0,520.443,1.0,589.0,18.0,1.15221,0.932939
White,2,Right,18,Male,Yes,English,A,591,1,16,0,180.0,1.0,1.0,1406.62,1.0,590.0,18.0,1.07682,0.957478
White,2,Right,18,Male,Yes,English,A,592,1,0,0,0.0,0.0,1.0,634.88,1.0,591.0,18.0,1.06804,0.924142
White,2,Right,18,Male,Yes,English,A,593,0,16,0,0.0,0.0,1.0,1145.45,1.0,592.0,18.0,1.18521,0.805491
White,2,Right,18,Male,Yes,English,A,594,0,8,16,180.0,1.0,1.0,1997.41,1.0,593.0,18.0,1.03616,0.839687
White,2,Right,18,Male,Yes,English,A,595,0,16,4,180.0,1.0,1.0,1023.41,1.0,594.0,18.0,1.06466,0.985734
White,2,Right,18,Male,Yes,English,A,596,0,8,4,180.0,1.0,1.0,1046.84,1.0,595.0,18.0,1.13571,0.917414
White,2,Right,18,Male,Yes,English,A,597,0,4,16,0.0,0.0,1.0,2091.68,1.0,596.0,18.0,1.00785,0.934108
White,2,Right,18,Male,Yes,English,A,598,1,4,0,0.0,0.0,1.0,1052.87,1.0,597.0,18.0,1.1613,0.938433
White,2,Right,18,Male,Yes,English,A,599,0,4,8,0.0,0.0,1.0,702.931,1.0,598.0,18.0,1.16676,0.980399
White,2,Right,18,Male,Yes,English,A,600,0,0,8,0.0,0.0,1.0,1450.76,1.0,599.0,18.0,1.02511,0.806755
White,2,Right,18,Male,Yes,English,A,601,1,0,8,0.0,0.0,1.0,1301.49,1.0,600.0,18.0,1.0506,0.844314
White,2,Right,18,Male,Yes,English,A,602,1,0,16,180.0,1.0,1.0,1178.48,1.0,601.0,18.0,1.0744,0.924718
White,2,Right,18,Male,Yes,English,A,603,1,0,4,180.0,1.0,1.0,646.17,1.0,602.0,18.0,1.05902,0.971501
White,2,Right,18,Male,Yes,English,A,604,1,4,8,0.0,0.0,1.0,913.354,1.0,603.0,18.0,1.19491,0.9235
White,2,Right,18,Male,Yes,English,A,605,1,16,16,0.0,0.0,1.0,1264.75,1.0,604.0,18.0,1.12809,0.885513
White,2,Right,18,Male,Yes,English,A,606,0,8,8,180.0,1.0,1.0,1601.84,1.0,605.0,18.0,1.08812,0.835235
White,2,Right,18,Male,Yes,English,A,607,1,8,16,180.0,1.0,1.0,597.368,1.0,606.0,18.0,1.06443,0.952647
White,2,Right,18,Male,Yes,English,A,608,0,0,4,180.0,1.0,1.0,1071.25,1.0,607.0,18.0,1.18892,0.865568
White,2,Right,18,Male,Yes,English,A,609,0,8,4,180.0,1.0,1.0,1200.34,1.0,608.0,19.0,1.03563,0.819952
White,2,Right,18,Male,Yes,English,A,610,0,8,8,0.0,0.0,1.0,657.324,1.0,609.0,19.0,1.14033,0.989355
White,2,Right,18,Male,Yes,English,A,611,1,16,8,180.0,1.0,1.0,695.613,1.0,610.0,19.0,1.01546,0.869847
White,2,Right,18,Male,Yes,English,A,612,1,8,16,0.0,0.0,1.0,1053.03,1.0,611.0,19.0,1.02117,0.872203
White,2,Right,18,Male,Yes,English,A,613,1,8,8,180.0,1.0,1.0,798.56,1.0,612.0,19.0,1.0287,0.938447
White,2,Right,18,Male,Yes,English,A,614,0,4,0,0.0,0.0,1.0,640.679,1.0,613.0,19.0,1.10196,0.858253
White,2,Right,18,Male,Yes,English,A,615,1,0,0,0.0,0.0,1.0,689.383,1.0,614.0,19.0,1.17153,0.887308
White,2,Right,18,Male,Yes,English,A,616,0,0,0,180.0,1.0,1.0,521.67,1.0,615.0,19.0,1.09541,0.902071
White,2,Right,18,Male,Yes,English,A,617,0,0,4,0.0,0.0,1.0,687.821,1.0,616.0,19.0,1.14118,0.826979
White,2,Right,18,Male,Yes,English,A,618,1,8,0,180.0,1.0,1.0,633.686,1.0,617.0,19.0,1.07048,0.894751
White,2,Right,18,Male,Yes,English,A,619,1,4,16,180.0,1.0,1.0,1084.13,1.0,618.0,19.0,1.18766,0.83963
White,2,Right,18,Male,Yes,English,A,620,0,16,8,0.0,0.0,1.0,808.649,1.0,619.0,19.0,1.05828,0.915822
White,2,Right,18,Male,Yes,English,A,621,0,16,4,0.0,0.0,1.0,1267.27,1.0,620.0,19.0,1.09087,0.990554
White,2,Right,18,Male,Yes,English,A,622,1,16,0,180.0,1.0,1.0,1178.75,1.0,621.0,19.0,1.12485,0.857399
White,2,Right,18,Male,Yes,English,A,623,0,0,16,0.0,0.0,1.0,1725.55,1.0,622.0,19.0,1.12862,0.817291
White,2,Right,18,Male,Yes,English,A,624,0,16,16,180.0,1.0,1.0,505.478,1.0,623.0,19.0,1.13171,0.953923
White,2,Right,18,Male,Yes,English,A,625,0,4,16,0.0,0.0,1.0,635.446,1.0,624.0,19.0,1.13666,0.981874
White,2,Right,18,Male,Yes,English,A,626,1,4,0,180.0,1.0,1.0,1069.03,1.0,625.0,19.0,1.06598,0.894345
White,2,Right,18,Male,Yes,English,A,627,0,4,8,0.0,0.0,1.0,868.156,1.0,626.0,19.0,1.11249,0.897192
White,2,Right,18,Male,Yes,English,A,628,0,4,4,180.0,1.0,1.0,820.417,1.0,627.0,19.0,1.00289,0.911306
White,2,Right,18,Male,Yes,English,A,629,1,0,4,0.0,0.0,1.0,491.46,1.0,628.0,19.0,1.16967,0.922146
White,2,Right,18,Male,Yes,English,A,630,1,16,16,0.0,0.0,1.0,756.188,1.0,629.0,19.0,1.13821,0.836371
White,2,Right,18,Male,Yes,English,A,631,0,0,8,180.0,1.0,1.0,649.17,1.0,630.0,19.0,1.06131,0.99127
White,2,Right,18,Male,Yes,English,A,632,1,0,8,180.0,1.0,1.0,667.786,1.0,631.0,19.0,1.14321,0.907192
White,2,Right,18,Male,Yes,English,A,633,1,4,8,180.0,1.0,1.0,856.04,1.0,632.0,19.0,1.08408,0.968336
White,2,Right,18,Male,Yes,English,A,634,0,8,0,180.0,1.0,1.0,746.656,1.0,633.0,19.0,1.17386,0.95997
White,2,Right,18,Male,Yes,English,A,635,1,0,16,0.0,0.0,1.0,1587.31,1.0,634.0,19.0,1.17082,0.802406
White,2,Right,18,Male,Yes,English,A,636,1,8,4,0.0,0.0,1.0,1152.82,1.0,635.0,19.0,1.03405,0.898433
White,2,Right,18,Male,Yes,English,A,637,1,16,4,180.0,1.0,1.0,836.548,1.0,636.0,19.0,1.17732,0.865053
White,2,Right,18,Male,Yes,English,A,638,1,4,4,0.0,0.0,1.0,1323.81,1.0,637.0,19.0,1.14576,0.926205
White,2,Right,18,Male,Yes,English,A,639,0,16,0,0.0,0.0,1.0,866.814,1.0,638.0,19.0,1.07091,0.910629
White,2,Right,18,Male,Yes,English,A,640,0,8,16,180.0,1.0,1.0,1224.23,1.0,639.0,19.0,1.0167,0.897261
White,2,Right,18,Male,Yes,English,A,641,0,0,4,0.0,0.0,1.0,1004.06,1.0,640.0,20.0,1.18706,0.834814
White,2,Right,18,Male,Yes,English,A,642,1,4,4,0.0,0.0,1.0,879.043,1.0,641.0,20.0,1.09066,0.832911
White,2,Right,18,Male,Yes,English,A,643,1,8,16,180.0,1.0,1.0,518.517,1.0,642.0,20.0,1.15905,0.829845
White,2,Right,18,Male,Yes,English,A,644,1,4,16,180.0,1.0,1.0,1003.53,1.0,643.0,20.0,1.17568,0.903182
White,2,Right,18,Male,Yes,English,A,645,1,16,8,0.0,0.0,1.0,1658.06,1.0,644.0,20.0,1.17011,0.957708
White,2,Right,18,Male,Yes,English,A,646,0,8,16,0.0,0.0,1.0,1943.94,1.0,645.0,20.0,1.11822,0.825289
White,2,Right,18,Male,Yes,English,A,647,1,4,0,180.0,1.0,1.0,595.424,1.0,646.0,20.0,1.19206,0.937949
White,2,Right,18,Male,Yes,English,A,648,0,8,4,180.0,1.0,1.0,1043.93,1.0,647.0,20.0,1.05244,0.817176
White,2,Right,18,Male,Yes,English,A,649,1,0,16,0.0,0.0,1.0,2086.41,1.0,648.0,20.0,1.12123,0.862892
White,2,Right,18,Male,Yes,English,A,650,1,16,0,180.0,1.0,1.0,1211.71,1.0,649.0,20.0,1.04884,0.988761
White,2,Right,18,Male,Yes,English,A,651,0,4,8,180.0,0.0,0.0,959.969,1.0,650.0,20.0,1.10841,0.93056
White,2,Right,18,Male,Yes,English,A,652,1,8,8,180.0,1.0,1.0,1142.53,1.0,651.0,20.0,1.12705,0.997146
White,2,Right,18,Male,Yes,English,A,653,0,4,0,0.0,0.0,1.0,767.728,1.0,652.0,20.0,1.14824,0.976877
White,2,Right,18,Male,Yes,English,A,654,0,8,0,180.0,1.0,1.0,1013.73,1.0,653.0,20.0,1.16707,0.869543
White,2,Right,18,Male,Yes,English,A,655,0,4,4,0.0,0.0,1.0,2025.07,1.0,654.0,20.0,1.1688,0.91721
White,2,Right,18,Male,Yes,English,A,656,1,16,4,180.0,1.0,1.0,1670.55,1.0,655.0,20.0,1.02723,0.806778
White,2,Right,18,Male,Yes,English,A,657,0,16,4,180.0,1.0,1.0,832.072,1.0,656.0,20.0,1.14535,0.85567
White,2,Right,18,Male,Yes,English,A,658,0,8,8,0.0,0.0,1.0,2313.13,1.0,657.0,20.0,1.06086,0.962722
White,2,Right,18,Male,Yes,English,A,659,1,0,0,0.0,0.0,1.0,1325.93,1.0,658.0,20.0,1.13873,0.845622
White,2,Right,18,Male,Yes,English,A,660,1,0,4,0.0,0.0,1.0,1632.29,1.0,659.0,20.0,1.19734,0.802806
White,2,Right,18,Male,Yes,English,A,661,1,4,8,180.0,9999.0,0.0,9999.0,1.0,660.0,20.0,1.16232,0.905659
White,2,Right,18,Male,Yes,English,A,662,1,8,4,0.0,0.0,1.0,845.637,1.0,661.0,20.0,1.07724,0.853012
White,2,Right,18,Male,Yes,English,A,663,0,0,16,0.0,0.0,1.0,900.298,1.0,662.0,20.0,1.10182,0.980647
White,2,Right,18,Male,Yes,English,A,664,0,16,16,180.0,1.0,1.0,740.887,1.0,663.0,20.0,1.18465,0.891443
White,2,Right,18,Male,Yes,English,A,665,0,0,0,180.0,1.0,1.0,549.681,1.0,664.0,20.0,1.19003,0.845137
White,2,Right,18,Male,Yes,English,A,666,0,16,0,180.0,1.0,1.0,934.945,1.0,665.0,20.0,1.1623,0.905587
White,2,Right,18,Male,Yes,English,A,667,1,0,8,0.0,0.0,1.0,1573.51,1.0,666.0,20.0,1.14147,0.828304
White,2,Right,18,Male,Yes,English,A,668,1,16,16,0.0,1.0,0.0,747.84,1.0,667.0,20.0,1.1888,0.828543
White,2,Right,18,Male,Yes,English,A,669,0,4,16,0.0,0.0,1.0,894.819,1.0,668.0,20.0,1.17587,0.977595
White,2,Right,18,Male,Yes,English,A,670,1,8,0,180.0,1.0,1.0,1229.61,1.0,669.0,20.0,1.19913,0.89835
White,2,Right,18,Male,Yes,English,A,671,0,0,8,180.0,1.0,1.0,621.461,1.0,670.0,20.0,1.09866,0.847358
White,2,Right,18,Male,Yes,English,A,672,0,16,8,0.0,0.0,1.0,896.347,1.0,671.0,20.0,1.01424,0.891293
White,2,Right,18,Male,Yes,English,A,673,0,8,0,0.0,0.0,1.0,992.397,1.0,672.0,21.0,1.14028,0.916701
White,2,Right,18,Male,Yes,English,A,674,1,4,8,180.0,1.0,1.0,750.096,1.0,673.0,21.0,1.0992,0.883514
White,2,Right,18,Male,Yes,English,A,675,1,4,16,180.0,1.0,1.0,620.945,1.0,674.0,21.0,1.05085,0.881623
White,2,Right,18,Male,Yes,English,A,676,1,16,4,0.0,0.0,1.0,1146.51,1.0,675.0,21.0,1.16581,0.826448
White,2,Right,18,Male,Yes,English,A,677,1,8,8,0.0,0.0,1.0,1625.93,1.0,676.0,21.0,1.00474,0.833777
White,2,Right,18,Male,Yes,English,A,678,1,4,0,180.0,1.0,1.0,745.036,1.0,677.0,21.0,1.04246,0.815928
White,2,Right,18,Male,Yes,English,A,679,1,16,16,0.0,0.0,1.0,662.315,1.0,678.0,21.0,1.12379,0.845467
White,2,Right,18,Male,Yes,English,A,680,1,0,0,0.0,0.0,1.0,605.322,1.0,679.0,21.0,1.12437,0.851009
White,2,Right,18,Male,Yes,English,A,681,0,4,8,180.0,1.0,1.0,1044.54,1.0,680.0,21.0,1.19367,0.863938
White,2,Right,18,Male,Yes,English,A,682,0,8,8,0.0,0.0,1.0,1335.93,1.0,681.0,21.0,1.07828,0.805093
White,2,Right,18,Male,Yes,English,A,683,1,0,8,0.0,0.0,1.0,1226.96,1.0,682.0,21.0,1.04868,0.826578
White,2,Right,18,Male,Yes,English,A,684,1,16,8,180.0,1.0,1.0,1601.29,1.0,683.0,21.0,1.07658,0.810481
White,2,Right,18,Male,Yes,English,A,685,0,8,16,180.0,1.0,1.0,1167.14,1.0,684.0,21.0,1.17342,0.980587
White,2,Right,18,Male,Yes,English,A,686,0,4,16,180.0,1.0,1.0,1580.0,1.0,685.0,21.0,1.02221,0.940249
White,2,Right,18,Male,Yes,English,A,687,0,0,0,180.0,1.0,1.0,676.334,1.0,686.0,21.0,1.02895,0.948264
White,2,Right,18,Male,Yes,English,A,688,0,4,4,180.0,1.0,1.0,779.513,1.0,687.0,21.0,1.00221,0.988105
White,2,Right,18,Male,Yes,English,A,689,0,16,16,180.0,1.0,1.0,1500.4,1.0,688.0,21.0,1.19514,0.931679
White,2,Right,18,Male,Yes,English,A,690,1,0,16,0.0,0.0,1.0,1378.48,1.0,689.0,21.0,1.00623,0.89007
White,2,Right,18,Male,Yes,English,A,691,0,0,4,0.0,0.0,1.0,626.818,1.0,690.0,21.0,1.17326,0.96194
White,2,Right,18,Male,Yes,English,A,692,0,8,4,0.0,0.0,1.0,769.141,1.0,691.0,21.0,1.03151,0.901153
White,2,Right,18,Male,Yes,English,A,693,0,16,0,0.0,0.0,1.0,1415.88,1.0,692.0,21.0,1.10771,0.975437
White,2,Right,18,Male,Yes,English,A,694,1,8,0,0.0,0.0,1.0,1080.51,1.0,693.0,21.0,1.12798,0.836128
White,2,Right,18,Male,Yes,English,A,695,1,8,4,180.0,1.0,1.0,1262.6,1.0,694.0,21.0,1.07404,0.828575
White,2,Right,18,Male,Yes,English,A,696,1,16,0,180.0,1.0,1.0,1147.09,1.0,695.0,21.0,1.13959,0.862547
White,2,Right,18,Male,Yes,English,A,697,0,0,16,180.0,1.0,1.0,1732.13,1.0,696.0,21.0,1.06168,0.900786
White,2,Right,18,Male,Yes,English,A,698,0,0,8,0.0,0.0,1.0,1430.73,1.0,697.0,21.0,1.10759,0.911675
White,2,Right,18,Male,Yes,English,A,699,0,16,4,180.0,1.0,1.0,1150.98,1.0,698.0,21.0,1.07442,0.80059
White,2,Right,18,Male,Yes,English,A,700,1,4,4,180.0,1.0,1.0,857.612,1.0,699.0,21.0,1.17836,0.931237
White,2,Right,18,Male,Yes,English,A,701,1,0,4,0.0,0.0,1.0,992.758,1.0,700.0,21.0,1.08223,0.949029
White,2,Right,18,Male,Yes,English,A,702,1,8,16,180.0,1.0,1.0,911.518,1.0,701.0,21.0,1.06099,0.871821
White,2,Right,18,Male,Yes,English,A,703,0,16,8,0.0,0.0,1.0,953.877,1.0,702.0,21.0,1.00486,0.911932
White,2,Right,18,Male,Yes,English,A,704,0,4,0,0.0,0.0,1.0,662.642,1.0,703.0,21.0,1.13839,0.814488
White,2,Right,18,Male,Yes,English,A,705,1,0,8,180.0,1.0,1.0,1714.39,1.0,704.0,22.0,1.09204,0.82498
White,2,Right,18,Male,Yes,English,A,706,0,4,8,0.0,0.0,1.0,1036.71,1.0,705.0,22.0,1.01871,0.853222
White,2,Right,18,Male,Yes,English,A,707,0,16,16,0.0,0.0,1.0,1187.14,1.0,706.0,22.0,1.1126,0.925308
White,2,Right,18,Male,Yes,English,A,708,0,8,0,0.0,0.0,1.0,673.806,1.0,707.0,22.0,1.10702,0.863596
White,2,Right,18,Male,Yes,English,A,709,1,16,8,0.0,0.0,1.0,1396.38,1.0,708.0,22.0,1.04918,0.858953
White,2,Right,18,Male,Yes,English,A,710,1,8,16,180.0,1.0,1.0,1042.06,1.0,709.0,22.0,1.06045,0.801278
White,2,Right,18,Male,Yes,English,A,711,1,16,4,0.0,0.0,1.0,1010.47,1.0,710.0,22.0,1.04387,0.951606
White,2,Right,18,Male,Yes,English,A,712,0,0,0,180.0,1.0,1.0,633.14,1.0,711.0,22.0,1.14288,0.970713
White,2,Right,18,Male,Yes,English,A,713,0,0,4,0.0,0.0,1.0,641.944,1.0,712.0,22.0,1.02221,0.994112
White,2,Right,18,Male,Yes,English,A,714,1,4,0,0.0,0.0,1.0,499.723,1.0,713.0,22.0,1.1431,0.869624
White,2,Right,18,Male,Yes,English,A,715,0,4,4,0.0,0.0,1.0,859.329,1.0,714.0,22.0,1.08426,0.866179
White,2,Right,18,Male,Yes,English,A,716,0,4,0,0.0,0.0,1.0,832.719,1.0,715.0,22.0,1.17824,0.901961
White,2,Right,18,Male,Yes,English,A,717,1,4,16,180.0,1.0,1.0,793.591,1.0,716.0,22.0,1.05068,0.856678
White,2,Right,18,Male,Yes,English,A,718,1,16,16,0.0,0.0,1.0,979.134,1.0,717.0,22.0,1.12395,0.805724
White,2,Right,18,Male,Yes,English,A,719,1,0,0,180.0,1.0,1.0,641.167,1.0,718.0,22.0,1.10456,0.890552
White,2,Right,18,Male,Yes,English,A,720,0,0,16,0.0,0.0,1.0,730.16,1.0,719.0,22.0,1.07053,0.889491
White,2,Right,18,Male,Yes,English,A,721,0,0,8,180.0,1.0,1.0,1518.38,1.0,720.0,22.0,1.11904,0.838211
White,2,Right,18,Male,Yes,English,A,722,1,4,4,180.0,1.0,1.0,449.774,1.0,721.0,22.0,1.09923,0.812603
White,2,Right,18,Male,Yes,English,A,723,0,8,16,0.0,0.0,1.0,852.877,1.0,722.0,22.0,1.06,0.873726
White,2,Right,18,Male,Yes,English,A,724,1,8,8,0.0,0.0,1.0,1390.83,1.0,723.0,22.0,1.18618,0.965854
White,2,Right,18,Male,Yes,English,A,725,1,0,4,180.0,1.0,1.0,543.669,1.0,724.0,22.0,1.11064,0.904983
White,2,Right,18,Male,Yes,English,A,726,0,8,4,0.0,0.0,1.0,776.776,1.0,725.0,22.0,1.15703,0.985088
White,2,Right,18,Male,Yes,English,A,727,0,8,8,180.0,1.0,1.0,1393.96,1.0,726.0,22.0,1.102,0.944976
White,2,Right,18,Male,Yes,English,A,728,0,16,0,180.0,1.0,1.0,814.517,1.0,727.0,22.0,1.02659,0.916322
White,2,Right,18,Male,Yes,English,A,729,0,4,16,180.0,1.0,1.0,1315.23,1.0,728.0,22.0,1.1895,0.807869
White,2,Right,18,Male,Yes,English,A,730,1,16,0,180.0,1.0,1.0,1158.01,1.0,729.0,22.0,1.18169,0.965549
White,2,Right,18,Male,Yes,English,A,731,1,4,8,0.0,0.0,1.0,850.744,1.0,730.0,22.0,1.02406,0.831814
White,2,Right,18,Male,Yes,English,A,732,1,8,4,180.0,1.0,1.0,1126.14,1.0,731.0,22.0,1.00439,0.922888
White,2,Right,18,Male,Yes,English,A,733,0,16,8,180.0,1.0,1.0,666.277,1.0,732.0,22.0,1.14956,0.942349
White,2,Right,18,Male,Yes,English,A,734,0,16,4,180.0,1.0,1.0,771.656,1.0,733.0,22.0,1.07339,0.883558
White,2,Right,18,Male,Yes,English,A,735,1,0,16,180.0,1.0,1.0,1332.82,1.0,734.0,22.0,1.12036,0.991576
White,2,Right,18,Male,Yes,English,A,736,1,8,0,0.0,0.0,1.0,1084.88,1.0,735.0,22.0,1.02138,0.879883
White,2,Right,18,Male,Yes,English,A,737,0,0,8,0.0,0.0,1.0,1476.47,1.0,736.0,23.0,1.04894,0.863293
White,2,Right,18,Male,Yes,English,A,738,1,4,8,0.0,0.0,1.0,600.991,1.0,737.0,23.0,1.0784,0.835716
White,2,Right,18,Male,Yes,English,A,739,0,4,4,0.0,0.0,1.0,761.178,1.0,738.0,23.0,1.02038,0.918829
White,2,Right,18,Male,Yes,English,A,740,1,8,0,180.0,1.0,1.0,574.422,1.0,739.0,23.0,1.02375,0.823205
White,2,Right,18,Male,Yes,English,A,741,1,0,16,0.0,0.0,1.0,812.603,1.0,740.0,23.0,1.0157,0.986756
White,2,Right,18,Male,Yes,English,A,742,0,4,8,180.0,1.0,1.0,1109.65,1.0,741.0,23.0,1.17019,0.905781
White,2,Right,18,Male,Yes,English,A,743,0,8,4,180.0,1.0,1.0,1127.22,1.0,742.0,23.0,1.0929,0.828943
White,2,Right,18,Male,Yes,English,A,744,1,4,4,180.0,1.0,1.0,1149.28,1.0,743.0,23.0,1.02368,0.961084
White,2,Right,18,Male,Yes,English,A,745,0,8,0,0.0,0.0,1.0,1092.05,1.0,744.0,23.0,1.04521,0.851344
White,2,Right,18,Male,Yes,English,A,746,1,4,16,0.0,0.0,1.0,1524.67,1.0,745.0,23.0,1.11989,0.965893
White,2,Right,18,Male,Yes,English,A,747,0,8,8,180.0,1.0,1.0,615.511,1.0,746.0,23.0,1.02378,0.969973
White,2,Right,18,Male,Yes,English,A,748,0,16,0,180.0,1.0,1.0,1322.94,1.0,747.0,23.0,1.13925,0.963971
White,2,Right,18,Male,Yes,English,A,749,0,4,0,180.0,1.0,1.0,645.991,1.0,748.0,23.0,1.16012,0.926428
White,2,Right,18,Male,Yes,English,A,750,1,16,0,0.0,0.0,1.0,708.796,1.0,749.0,23.0,1.17016,0.911173
White,2,Right,18,Male,Yes,English,A,751,1,16,8,180.0,1.0,1.0,965.297,1.0,750.0,23.0,1.14256,0.857547
White,2,Right,18,Male,Yes,English,A,752,0,4,16,0.0,0.0,1.0,2314.16,1.0,751.0,23.0,1.19825,0.955469
White,2,Right,18,Male,Yes,English,A,753,0,16,8,180.0,1.0,1.0,1283.96,1.0,752.0,23.0,1.13543,0.997047
White,2,Right,18,Male,Yes,English,A,754,1,8,16,180.0,1.0,1.0,1252.74,1.0,753.0,23.0,1.04092,0.881123
White,2,Right,18,Male,Yes,English,A,755,1,4,0,0.0,0.0,1.0,781.739,1.0,754.0,23.0,1.11851,0.986782
White,2,Right,18,Male,Yes,English,A,756,0,0,0,0.0,0.0,1.0,752.997,1.0,755.0,23.0,1.07873,0.896462
White,2,Right,18,Male,Yes,English,A,757,1,0,0,0.0,0.0,1.0,845.35,1.0,756.0,23.0,1.08846,0.875165
White,2,Right,18,Male,Yes,English,A,758,1,0,8,180.0,1.0,1.0,634.917,1.0,757.0,23.0,1.18392,0.826956
White,2,Right,18,Male,Yes,English,A,759,0,16,4,0.0,0.0,1.0,1100.14,1.0,758.0,23.0,1.16609,0.925167
White,2,Right,18,Male,Yes,English,A,760,1,16,16,180.0,1.0,1.0,565.836,1.0,759.0,23.0,1.0408,0.930147
White,2,Right,18,Male,Yes,English,A,761,0,8,16,0.0,0.0,1.0,1702.99,1.0,760.0,23.0,1.06047,0.973623
White,2,Right,18,Male,Yes,English,A,762,1,8,4,0.0,0.0,1.0,1184.1,1.0,761.0,23.0,1.16778,0.860196
White,2,Right,18,Male,Yes,English,A,763,0,16,16,0.0,0.0,1.0,1285.64,1.0,762.0,23.0,1.05332,0.890593
White,2,Right,18,Male,Yes,English,A,764,1,0,4,180.0,1.0,1.0,632.773,1.0,763.0,23.0,1.11247,0.806541
White,2,Right,18,Male,Yes,English,A,765,0,0,16,180.0,1.0,1.0,988.135,1.0,764.0,23.0,1.03057,0.899422
White,2,Right,18,Male,Yes,English,A,766,0,0,4,180.0,1.0,1.0,574.398,1.0,765.0,23.0,1.02404,0.820514
White,2,Right,18,Male,Yes,English,A,767,1,8,8,0.0,0.0,1.0,933.641,1.0,766.0,23.0,1.18967,0.941819
White,2,Right,18,Male,Yes,English,A,768,1,16,4,180.0,1.0,1.0,1086.62,1.0,767.0,23.0,1.01931,0.852677
