Ethnicity,Subject Number,Preferred Hand,Age,Gender,Color blind,First Language,Room,TrialNumber,background,turtles,tortoises,target_id,resp,hit,rt,ran,order,block,iti,fix_duration
White,17,Right,19,Male,No,English,D,1,0,4,0,180.0,1.0,1.0,701.81,1.0,0.0,0.0,1.09841,0.936768
White,17,Right,19,Male,No,English,D,2,0,8,0,180.0,1.0,1.0,962.342,1.0,1.0,0.0,1.0214,0.912316
White,17,Right,19,Male,No,English,D,3,0,0,0,0.0,0.0,1.0,595.602,1.0,2.0,0.0,1.12351,0.81936
White,17,Right,19,Male,No,English,D,4,1,4,16,0.0,0.0,1.0,729.964,1.0,3.0,0.0,1.03178,0.999522
White,17,Right,19,Male,No,English,D,5,0,16,4,0.0,0.0,1.0,1301.6,1.0,4.0,0.0,1.07717,0.847589
White,17,Right,19,Male,No,English,D,6,0,16,8,0.0,0.0,1.0,1029.38,1.0,5.0,0.0,1.17044,0.984191
White,17,Right,19,Male,No,English,D,7,0,0,8,180.0,1.0,1.0,877.286,1.0,6.0,0.0,1.14734,0.883338
White,17,Right,19,Male,No,English,D,8,0,8,16,180.0,1.0,1.0,846.09,1.0,7.0,0.0,1.09066,0.88226
White,17,Right,19,Male,No,English,D,9,1,16,8,180.0,1.0,1.0,734.496,1.0,8.0,0.0,1.14968,0.852567
White,17,Right,19,Male,No,English,D,10,1,16,16,180.0,1.0,1.0,1141.64,1.0,9.0,0.0,1.18106,0.942872
White,17,Right,19,Male,No,English,D,11,0,0,4,0.0,0.0,1.0,1002.06,1.0,10.0,0.0,1.13309,0.972831
White,17,Right,19,Male,No,English,D,12,1,8,8,180.0,1.0,1.0,928.915,1.0,11.0,0.0,1.04873,0.93158
White,17,Right,19,Male,No,English,D,13,1,4,4,0.0,0.0,1.0,851.582,1.0,12.0,0.0,1.0383,0.929162
White,17,Right,19,Male,No,English,D,14,1,4,8,180.0,1.0,1.0,643.878,1.0,13.0,0.0,1.1892,0.8602
White,17,Right,19,Male,No,English,D,15,1,4,0,180.0,1.0,1.0,843.807,1.0,14.0,0.0,1.03101,0.951297
White,17,Right,19,Male,No,English,D,16,0,16,16,0.0,0.0,1.0,912.188,1.0,15.0,0.0,1.04958,0.913041
White,17,Right,19,Male,No,English,D,17,1,8,4,0.0,0.0,1.0,586.89,1.0,16.0,0.0,1.05891,0.908582
White,17,Right,19,Male,No,English,D,18,1,0,16,180.0,1.0,1.0,1181.59,1.0,17.0,0.0,1.15787,0.9079
White,17,Right,19,Male,No,English,D,19,0,8,8,0.0,0.0,1.0,814.544,1.0,18.0,0.0,1.10606,0.845148
White,17,Right,19,Male,No,English,D,20,1,16,0,0.0,1.0,0.0,724.81,1.0,19.0,0.0,1.11662,0.913456
White,17,Right,19,Male,No,English,D,21,1,0,8,180.0,1.0,1.0,725.444,1.0,20.0,0.0,1.04771,0.830146
White,17,Right,19,Male,No,English,D,22,0,16,0,0.0,0.0,1.0,702.914,1.0,21.0,0.0,1.00897,0.986587
White,17,Right,19,Male,No,English,D,23,0,4,4,0.0,0.0,1.0,1166.9,1.0,22.0,0.0,1.10384,0.93195
White,17,Right,19,Male,No,English,D,24,0,0,16,180.0,1.0,1.0,993.881,1.0,23.0,0.0,1.11899,0.916133
White,17,Right,19,Male,No,English,D,25,1,0,4,0.0,0.0,1.0,759.963,1.0,24.0,0.0,1.16622,0.976598
White,17,Right,19,Male,No,English,D,26,0,4,16,180.0,1.0,1.0,973.678,1.0,25.0,0.0,1.00308,0.928418
White,17,Right,19,Male,No,English,D,27,0,4,8,180.0,1.0,1.0,1164.11,1.0,26.0,0.0,1.18784,0.823473
White,17,Right,19,Male,No,English,D,28,0,8,4,180.0,1.0,1.0,1371.11,1.0,27.0,0.0,1.12177,0.979188
White,17,Right,19,Male,No,English,D,29,1,8,0,0.0,0.0,1.0,773.153,1.0,28.0,0.0,1.13892,0.945785
White,17,Right,19,Male,No,English,D,30,1,16,4,0.0,0.0,1.0,946.957,1.0,29.0,0.0,1.02193,0.968893
White,17,Right,19,Male,No,English,D,31,1,0,0,0.0,0.0,1.0,824.915,1.0,30.0,0.0,1.08905,0.871127
White,17,Right,19,Male,No,English,D,32,1,8,16,180.0,1.0,1.0,475.197,1.0,31.0,0.0,1.17131,0.81172
White,17,Right,19,Male,No,English,D,33,1,0,16,0.0,0.0,1.0,580.562,1.0,32.0,1.0,1.03555,0.86708
White,17,Right,19,Male,No,English,D,34,1,0,4,0.0,0.0,1.0,636.561,1.0,33.0,1.0,1.04085,0.949143
White,17,Right,19,Male,No,English,D,35,0,16,8,0.0,0.0,1.0,751.509,1.0,34.0,1.0,1.1938,0.882475
White,17,Right,19,Male,No,English,D,36,0,0,16,0.0,0.0,1.0,934.921,1.0,35.0,1.0,1.09466,0.901241
White,17,Right,19,Male,No,English,D,37,1,4,4,180.0,1.0,1.0,1207.55,1.0,36.0,1.0,1.07943,0.882361
White,17,Right,19,Male,No,English,D,38,0,4,4,0.0,0.0,1.0,1085.86,1.0,37.0,1.0,1.02333,0.972575
White,17,Right,19,Male,No,English,D,39,0,0,0,180.0,1.0,1.0,632.202,1.0,38.0,1.0,1.14319,0.994078
White,17,Right,19,Male,No,English,D,40,0,4,0,0.0,0.0,1.0,732.252,1.0,39.0,1.0,1.14964,0.809386
White,17,Right,19,Male,No,English,D,41,1,0,8,0.0,0.0,1.0,847.463,1.0,40.0,1.0,1.19702,0.9136
White,17,Right,19,Male,No,English,D,42,0,0,4,0.0,0.0,1.0,781.799,1.0,41.0,1.0,1.171,0.965532
White,17,Right,19,Male,No,English,D,43,0,4,8,0.0,0.0,1.0,753.46,1.0,42.0,1.0,1.01934,0.807493
White,17,Right,19,Male,No,English,D,44,1,8,8,180.0,1.0,1.0,773.292,1.0,43.0,1.0,1.03511,0.903689
White,17,Right,19,Male,No,English,D,45,1,16,8,180.0,1.0,1.0,1248.61,1.0,44.0,1.0,1.19533,0.872711
White,17,Right,19,Male,No,English,D,46,1,0,0,180.0,1.0,1.0,791.607,1.0,45.0,1.0,1.04815,0.948428
White,17,Right,19,Male,No,English,D,47,0,16,0,0.0,0.0,1.0,1463.64,1.0,46.0,1.0,1.16697,0.933962
White,17,Right,19,Male,No,English,D,48,1,16,16,180.0,1.0,1.0,1052.01,1.0,47.0,1.0,1.19283,0.996712
White,17,Right,19,Male,No,English,D,49,1,8,4,0.0,0.0,1.0,763.911,1.0,48.0,1.0,1.19179,0.830655
White,17,Right,19,Male,No,English,D,50,1,4,8,180.0,1.0,1.0,634.02,1.0,49.0,1.0,1.19544,0.917615
White,17,Right,19,Male,No,English,D,51,0,0,8,180.0,1.0,1.0,1149.68,1.0,50.0,1.0,1.13088,0.888008
White,17,Right,19,Male,No,English,D,52,0,8,8,180.0,1.0,1.0,810.329,1.0,51.0,1.0,1.02043,0.933632
White,17,Right,19,Male,No,English,D,53,1,8,16,0.0,0.0,1.0,889.557,1.0,52.0,1.0,1.10438,0.942941
White,17,Right,19,Male,No,English,D,54,1,16,0,0.0,0.0,1.0,886.628,1.0,53.0,1.0,1.13116,0.940284
White,17,Right,19,Male,No,English,D,55,1,4,16,0.0,0.0,1.0,694.791,1.0,54.0,1.0,1.06656,0.863771
White,17,Right,19,Male,No,English,D,56,0,16,4,180.0,1.0,1.0,759.467,1.0,55.0,1.0,1.19453,0.995321
White,17,Right,19,Male,No,English,D,57,0,4,16,180.0,1.0,1.0,926.044,1.0,56.0,1.0,1.0464,0.954508
White,17,Right,19,Male,No,English,D,58,0,8,16,0.0,0.0,1.0,699.801,1.0,57.0,1.0,1.0169,0.982247
White,17,Right,19,Male,No,English,D,59,1,8,0,180.0,1.0,1.0,1009.66,1.0,58.0,1.0,1.19146,0.962731
White,17,Right,19,Male,No,English,D,60,0,8,4,180.0,1.0,1.0,1070.53,1.0,59.0,1.0,1.05494,0.917857
White,17,Right,19,Male,No,English,D,61,1,16,4,180.0,1.0,1.0,2056.62,1.0,60.0,1.0,1.03223,0.959139
White,17,Right,19,Male,No,English,D,62,1,4,0,180.0,1.0,1.0,684.602,1.0,61.0,1.0,1.16837,0.898398
White,17,Right,19,Male,No,English,D,63,0,16,16,0.0,0.0,1.0,1232.89,1.0,62.0,1.0,1.02579,0.876569
White,17,Right,19,Male,No,English,D,64,0,8,0,180.0,1.0,1.0,718.281,1.0,63.0,1.0,1.04577,0.98681
White,17,Right,19,Male,No,English,D,65,0,0,0,180.0,1.0,1.0,440.401,1.0,64.0,2.0,1.14224,0.926992
White,17,Right,19,Male,No,English,D,66,1,4,0,0.0,0.0,1.0,544.648,1.0,65.0,2.0,1.03933,0.810995
White,17,Right,19,Male,No,English,D,67,0,16,4,180.0,1.0,1.0,649.769,1.0,66.0,2.0,1.18643,0.998698
White,17,Right,19,Male,No,English,D,68,1,16,0,180.0,1.0,1.0,1007.24,1.0,67.0,2.0,1.1599,0.870278
White,17,Right,19,Male,No,English,D,69,1,8,0,0.0,0.0,1.0,1171.12,1.0,68.0,2.0,1.03041,0.873342
White,17,Right,19,Male,No,English,D,70,1,16,16,180.0,1.0,1.0,591.381,1.0,69.0,2.0,1.17494,0.936593
White,17,Right,19,Male,No,English,D,71,1,8,8,0.0,0.0,1.0,615.101,1.0,70.0,2.0,1.09177,0.860166
White,17,Right,19,Male,No,English,D,72,0,0,16,0.0,0.0,1.0,636.171,1.0,71.0,2.0,1.18414,0.985306
White,17,Right,19,Male,No,English,D,73,1,8,16,180.0,1.0,1.0,1555.91,1.0,72.0,2.0,1.15529,0.982465
White,17,Right,19,Male,No,English,D,74,1,0,8,0.0,0.0,1.0,752.693,1.0,73.0,2.0,1.0902,0.953732
White,17,Right,19,Male,No,English,D,75,1,0,0,180.0,1.0,1.0,588.15,1.0,74.0,2.0,1.15037,0.828458
White,17,Right,19,Male,No,English,D,76,1,4,4,180.0,1.0,1.0,674.781,1.0,75.0,2.0,1.14772,0.823103
White,17,Right,19,Male,No,English,D,77,1,4,8,180.0,1.0,1.0,812.317,1.0,76.0,2.0,1.0004,0.941798
White,17,Right,19,Male,No,English,D,78,0,8,16,0.0,0.0,1.0,1279.58,1.0,77.0,2.0,1.05597,0.858586
White,17,Right,19,Male,No,English,D,79,0,8,8,180.0,1.0,1.0,564.683,1.0,78.0,2.0,1.07024,0.997852
White,17,Right,19,Male,No,English,D,80,0,0,8,0.0,0.0,1.0,669.553,1.0,79.0,2.0,1.0428,0.838299
White,17,Right,19,Male,No,English,D,81,1,16,4,0.0,0.0,1.0,1151.86,1.0,80.0,2.0,1.19647,0.981766
White,17,Right,19,Male,No,English,D,82,0,16,0,0.0,0.0,1.0,641.234,1.0,81.0,2.0,1.14056,0.997796
White,17,Right,19,Male,No,English,D,83,1,16,8,0.0,0.0,1.0,1289.51,1.0,82.0,2.0,1.17659,0.957537
White,17,Right,19,Male,No,English,D,84,1,0,4,0.0,0.0,1.0,677.088,1.0,83.0,2.0,1.07448,0.994978
White,17,Right,19,Male,No,English,D,85,0,4,8,180.0,1.0,1.0,635.862,1.0,84.0,2.0,1.00538,0.818435
White,17,Right,19,Male,No,English,D,86,1,8,4,180.0,1.0,1.0,648.309,1.0,85.0,2.0,1.18979,0.915302
White,17,Right,19,Male,No,English,D,87,0,4,0,0.0,0.0,1.0,737.715,1.0,86.0,2.0,1.12929,0.901376
White,17,Right,19,Male,No,English,D,88,0,16,16,180.0,1.0,1.0,1035.62,1.0,87.0,2.0,1.06057,0.847582
White,17,Right,19,Male,No,English,D,89,0,4,16,0.0,0.0,1.0,514.548,1.0,88.0,2.0,1.09907,0.95849
White,17,Right,19,Male,No,English,D,90,0,8,0,0.0,0.0,1.0,672.469,1.0,89.0,2.0,1.04693,0.966735
White,17,Right,19,Male,No,English,D,91,1,0,16,180.0,1.0,1.0,612.443,1.0,90.0,2.0,1.14895,0.958583
White,17,Right,19,Male,No,English,D,92,0,8,4,180.0,1.0,1.0,800.581,1.0,91.0,2.0,1.18926,0.873747
White,17,Right,19,Male,No,English,D,93,0,0,4,0.0,0.0,1.0,802.989,1.0,92.0,2.0,1.15751,0.863164
White,17,Right,19,Male,No,English,D,94,1,4,16,180.0,1.0,1.0,696.403,1.0,93.0,2.0,1.19075,0.890637
White,17,Right,19,Male,No,English,D,95,0,4,4,180.0,1.0,1.0,790.996,1.0,94.0,2.0,1.19376,0.819204
White,17,Right,19,Male,No,English,D,96,0,16,8,0.0,0.0,1.0,778.637,1.0,95.0,2.0,1.04753,0.97233
White,17,Right,19,Male,No,English,D,97,0,0,8,180.0,1.0,1.0,662.619,1.0,96.0,3.0,1.08047,0.844865
White,17,Right,19,Male,No,English,D,98,0,4,0,180.0,1.0,1.0,859.582,1.0,97.0,3.0,1.07406,0.891057
White,17,Right,19,Male,No,English,D,99,1,16,16,180.0,1.0,1.0,1020.76,1.0,98.0,3.0,1.18395,0.833259
White,17,Right,19,Male,No,English,D,100,1,4,4,180.0,0.0,0.0,851.901,1.0,99.0,3.0,1.13914,0.925695
White,17,Right,19,Male,No,English,D,101,0,8,0,180.0,1.0,1.0,736.509,1.0,100.0,3.0,1.18304,0.879519
White,17,Right,19,Male,No,English,D,102,1,8,16,0.0,0.0,1.0,925.694,1.0,101.0,3.0,1.07537,0.865614
White,17,Right,19,Male,No,English,D,103,0,16,4,0.0,0.0,1.0,1379.06,1.0,102.0,3.0,1.12346,0.904708
White,17,Right,19,Male,No,English,D,104,0,8,4,0.0,0.0,1.0,752.996,1.0,103.0,3.0,1.0398,0.976643
White,17,Right,19,Male,No,English,D,105,1,16,4,180.0,1.0,1.0,670.43,1.0,104.0,3.0,1.01453,0.805731
White,17,Right,19,Male,No,English,D,106,1,8,0,0.0,0.0,1.0,937.678,1.0,105.0,3.0,1.10766,0.859295
White,17,Right,19,Male,No,English,D,107,0,0,4,0.0,0.0,1.0,821.606,1.0,106.0,3.0,1.13199,0.987148
White,17,Right,19,Male,No,English,D,108,0,4,4,180.0,1.0,1.0,985.607,1.0,107.0,3.0,1.18351,0.872636
White,17,Right,19,Male,No,English,D,109,1,16,0,180.0,1.0,1.0,682.161,1.0,108.0,3.0,1.18961,0.937655
White,17,Right,19,Male,No,English,D,110,0,4,8,0.0,0.0,1.0,879.815,1.0,109.0,3.0,1.04383,0.985152
White,17,Right,19,Male,No,English,D,111,1,0,0,0.0,0.0,1.0,590.069,1.0,110.0,3.0,1.16261,0.825727
White,17,Right,19,Male,No,English,D,112,1,16,8,180.0,1.0,1.0,738.28,1.0,111.0,3.0,1.0485,0.880263
White,17,Right,19,Male,No,English,D,113,1,4,16,180.0,1.0,1.0,723.1,1.0,112.0,3.0,1.14014,0.987213
White,17,Right,19,Male,No,English,D,114,0,0,16,0.0,0.0,1.0,818.984,1.0,113.0,3.0,1.15749,0.903443
White,17,Right,19,Male,No,English,D,115,0,4,16,180.0,1.0,1.0,852.831,1.0,114.0,3.0,1.07058,0.947966
White,17,Right,19,Male,No,English,D,116,0,0,0,180.0,1.0,1.0,722.072,1.0,115.0,3.0,1.02803,0.934695
White,17,Right,19,Male,No,English,D,117,1,8,4,0.0,0.0,1.0,717.541,1.0,116.0,3.0,1.18589,0.947365
White,17,Right,19,Male,No,English,D,118,0,16,16,0.0,0.0,1.0,906.807,1.0,117.0,3.0,1.1511,0.873802
White,17,Right,19,Male,No,English,D,119,0,16,8,0.0,0.0,1.0,858.301,1.0,118.0,3.0,1.08133,0.99219
White,17,Right,19,Male,No,English,D,120,1,0,8,180.0,1.0,1.0,884.653,1.0,119.0,3.0,1.19294,0.896743
White,17,Right,19,Male,No,English,D,121,1,8,8,0.0,0.0,1.0,656.334,1.0,120.0,3.0,1.03429,0.936109
White,17,Right,19,Male,No,English,D,122,0,8,8,0.0,0.0,1.0,682.343,1.0,121.0,3.0,1.03393,0.986199
White,17,Right,19,Male,No,English,D,123,0,8,16,180.0,1.0,1.0,944.907,1.0,122.0,3.0,1.11687,0.824974
White,17,Right,19,Male,No,English,D,124,1,4,0,180.0,1.0,1.0,902.384,1.0,123.0,3.0,1.16228,0.957536
White,17,Right,19,Male,No,English,D,125,1,4,8,0.0,0.0,1.0,773.023,1.0,124.0,3.0,1.18516,0.815537
White,17,Right,19,Male,No,English,D,126,1,0,4,0.0,0.0,1.0,831.99,1.0,125.0,3.0,1.15546,0.834955
White,17,Right,19,Male,No,English,D,127,0,16,0,0.0,0.0,1.0,773.739,1.0,126.0,3.0,1.04998,0.8309
White,17,Right,19,Male,No,English,D,128,1,0,16,180.0,1.0,1.0,652.567,1.0,127.0,3.0,1.14125,0.891269
White,17,Right,19,Male,No,English,D,129,0,0,4,180.0,1.0,1.0,1044.18,1.0,128.0,4.0,1.0453,0.876417
White,17,Right,19,Male,No,English,D,130,1,4,0,180.0,1.0,1.0,780.029,1.0,129.0,4.0,1.01648,0.986128
White,17,Right,19,Male,No,English,D,131,1,0,4,180.0,1.0,1.0,689.418,1.0,130.0,4.0,1.10741,0.90509
White,17,Right,19,Male,No,English,D,132,0,0,16,180.0,1.0,1.0,713.274,1.0,131.0,4.0,1.16967,0.876733
White,17,Right,19,Male,No,English,D,133,1,16,8,0.0,0.0,1.0,1854.02,1.0,132.0,4.0,1.06675,0.826564
White,17,Right,19,Male,No,English,D,134,0,16,16,180.0,1.0,1.0,799.351,1.0,133.0,4.0,1.08874,0.949399
White,17,Right,19,Male,No,English,D,135,1,16,4,0.0,0.0,1.0,629.178,1.0,134.0,4.0,1.13635,0.978506
White,17,Right,19,Male,No,English,D,136,0,0,0,180.0,1.0,1.0,793.048,1.0,135.0,4.0,1.09677,0.814322
White,17,Right,19,Male,No,English,D,137,1,0,8,180.0,1.0,1.0,1171.13,1.0,136.0,4.0,1.04293,0.993025
White,17,Right,19,Male,No,English,D,138,1,8,0,0.0,0.0,1.0,782.985,1.0,137.0,4.0,1.18657,0.82277
White,17,Right,19,Male,No,English,D,139,0,4,4,0.0,0.0,1.0,860.868,1.0,138.0,4.0,1.19129,0.810087
White,17,Right,19,Male,No,English,D,140,1,4,4,0.0,0.0,1.0,697.297,1.0,139.0,4.0,1.14844,0.849803
White,17,Right,19,Male,No,English,D,141,1,8,16,0.0,0.0,1.0,692.665,1.0,140.0,4.0,1.19152,0.946381
White,17,Right,19,Male,No,English,D,142,0,8,16,180.0,1.0,1.0,818.502,1.0,141.0,4.0,1.09914,0.821023
White,17,Right,19,Male,No,English,D,143,1,4,16,0.0,0.0,1.0,793.048,1.0,142.0,4.0,1.17269,0.996646
White,17,Right,19,Male,No,English,D,144,0,8,0,180.0,1.0,1.0,905.049,1.0,143.0,4.0,1.00923,0.873328
White,17,Right,19,Male,No,English,D,145,0,4,0,0.0,0.0,1.0,938.043,1.0,144.0,4.0,1.13423,0.825433
White,17,Right,19,Male,No,English,D,146,1,8,4,0.0,0.0,1.0,777.796,1.0,145.0,4.0,1.10546,0.897373
White,17,Right,19,Male,No,English,D,147,0,8,4,180.0,1.0,1.0,637.972,1.0,146.0,4.0,1.01635,0.945793
White,17,Right,19,Male,No,English,D,148,1,0,16,180.0,1.0,1.0,707.842,1.0,147.0,4.0,1.14046,0.81789
White,17,Right,19,Male,No,English,D,149,0,8,8,180.0,1.0,1.0,752.424,1.0,148.0,4.0,1.00435,0.856681
White,17,Right,19,Male,No,English,D,150,0,0,8,0.0,0.0,1.0,605.651,1.0,149.0,4.0,1.1343,0.831868
White,17,Right,19,Male,No,English,D,151,1,8,8,0.0,0.0,1.0,878.929,1.0,150.0,4.0,1.03892,0.809908
White,17,Right,19,Male,No,English,D,152,0,4,8,180.0,1.0,1.0,837.196,1.0,151.0,4.0,1.02523,0.8808
White,17,Right,19,Male,No,English,D,153,0,16,8,0.0,0.0,1.0,789.518,1.0,152.0,4.0,1.03248,0.816189
White,17,Right,19,Male,No,English,D,154,0,16,4,0.0,0.0,1.0,1022.11,1.0,153.0,4.0,1.13627,0.831038
White,17,Right,19,Male,No,English,D,155,1,4,8,180.0,1.0,1.0,801.625,1.0,154.0,4.0,1.04384,0.894737
White,17,Right,19,Male,No,English,D,156,1,16,16,180.0,1.0,1.0,724.4,1.0,155.0,4.0,1.13193,0.969893
White,17,Right,19,Male,No,English,D,157,0,4,16,0.0,0.0,1.0,1249.58,1.0,156.0,4.0,1.02145,0.826916
White,17,Right,19,Male,No,English,D,158,1,0,0,0.0,0.0,1.0,819.589,1.0,157.0,4.0,1.04749,0.966759
White,17,Right,19,Male,No,English,D,159,0,16,0,0.0,0.0,1.0,879.425,1.0,158.0,4.0,1.19424,0.858256
White,17,Right,19,Male,No,English,D,160,1,16,0,180.0,1.0,1.0,889.455,1.0,159.0,4.0,1.15864,0.814668
White,17,Right,19,Male,No,English,D,161,0,16,4,0.0,0.0,1.0,1059.44,1.0,160.0,5.0,1.15261,0.98467
White,17,Right,19,Male,No,English,D,162,0,16,0,0.0,0.0,1.0,693.511,1.0,161.0,5.0,1.16738,0.91723
White,17,Right,19,Male,No,English,D,163,1,0,4,0.0,0.0,1.0,601.469,1.0,162.0,5.0,1.00974,0.915853
White,17,Right,19,Male,No,English,D,164,1,16,0,0.0,0.0,1.0,905.178,1.0,163.0,5.0,1.11364,0.961177
White,17,Right,19,Male,No,English,D,165,1,4,8,180.0,1.0,1.0,523.361,1.0,164.0,5.0,1.15402,0.826334
White,17,Right,19,Male,No,English,D,166,0,4,0,180.0,1.0,1.0,725.167,1.0,165.0,5.0,1.11162,0.800412
White,17,Right,19,Male,No,English,D,167,0,0,0,180.0,1.0,1.0,643.311,1.0,166.0,5.0,1.09725,0.903436
White,17,Right,19,Male,No,English,D,168,1,0,8,180.0,1.0,1.0,498.494,1.0,167.0,5.0,1.07593,0.901744
White,17,Right,19,Male,No,English,D,169,0,0,4,180.0,1.0,1.0,994.398,1.0,168.0,5.0,1.15745,0.86455
White,17,Right,19,Male,No,English,D,170,0,0,16,180.0,1.0,1.0,626.868,1.0,169.0,5.0,1.16462,0.85225
White,17,Right,19,Male,No,English,D,171,0,0,8,180.0,1.0,1.0,590.446,1.0,170.0,5.0,1.15465,0.966471
White,17,Right,19,Male,No,English,D,172,0,8,4,0.0,0.0,1.0,600.735,1.0,171.0,5.0,1.02757,0.946543
White,17,Right,19,Male,No,English,D,173,0,8,8,0.0,0.0,1.0,965.356,1.0,172.0,5.0,1.05259,0.884058
White,17,Right,19,Male,No,English,D,174,0,4,4,180.0,1.0,1.0,882.029,1.0,173.0,5.0,1.16925,0.948058
White,17,Right,19,Male,No,English,D,175,1,8,0,0.0,1.0,0.0,675.049,1.0,174.0,5.0,1.04237,0.979012
White,17,Right,19,Male,No,English,D,176,0,8,0,0.0,0.0,1.0,758.926,1.0,175.0,5.0,1.13003,0.874912
White,17,Right,19,Male,No,English,D,177,1,16,8,0.0,0.0,1.0,940.281,1.0,176.0,5.0,1.088,0.844751
White,17,Right,19,Male,No,English,D,178,0,4,16,180.0,1.0,1.0,893.792,1.0,177.0,5.0,1.05576,0.92201
White,17,Right,19,Male,No,English,D,179,1,16,4,180.0,1.0,1.0,1783.01,1.0,178.0,5.0,1.09361,0.887545
White,17,Right,19,Male,No,English,D,180,1,4,4,0.0,0.0,1.0,833.711,1.0,179.0,5.0,1.03038,0.929454
White,17,Right,19,Male,No,English,D,181,1,4,16,0.0,0.0,1.0,858.66,1.0,180.0,5.0,1.0161,0.957487
White,17,Right,19,Male,No,English,D,182,1,4,0,180.0,1.0,1.0,755.779,1.0,181.0,5.0,1.10797,0.96877
White,17,Right,19,Male,No,English,D,183,0,4,8,180.0,1.0,1.0,834.499,1.0,182.0,5.0,1.12299,0.945355
White,17,Right,19,Male,No,English,D,184,0,16,8,0.0,0.0,1.0,542.141,1.0,183.0,5.0,1.05787,0.842394
White,17,Right,19,Male,No,English,D,185,0,16,16,0.0,0.0,1.0,805.289,1.0,184.0,5.0,1.19908,0.823743
White,17,Right,19,Male,No,English,D,186,1,16,16,180.0,1.0,1.0,789.556,1.0,185.0,5.0,1.13769,0.922233
White,17,Right,19,Male,No,English,D,187,1,8,8,180.0,1.0,1.0,1208.77,1.0,186.0,5.0,1.06795,0.819647
White,17,Right,19,Male,No,English,D,188,1,0,16,0.0,0.0,1.0,563.655,1.0,187.0,5.0,1.00509,0.942155
White,17,Right,19,Male,No,English,D,189,0,8,16,180.0,1.0,1.0,594.424,1.0,188.0,5.0,1.1409,0.937926
White,17,Right,19,Male,No,English,D,190,1,8,4,0.0,0.0,1.0,965.986,1.0,189.0,5.0,1.05338,0.974581
White,17,Right,19,Male,No,English,D,191,1,8,16,0.0,0.0,1.0,1006.14,1.0,190.0,5.0,1.13038,0.806231
White,17,Right,19,Male,No,English,D,192,1,0,0,180.0,1.0,1.0,643.449,1.0,191.0,5.0,1.14837,0.818476
White,17,Right,19,Male,No,English,D,193,1,16,4,180.0,1.0,1.0,751.713,1.0,192.0,6.0,1.19704,0.925775
White,17,Right,19,Male,No,English,D,194,1,4,16,0.0,0.0,1.0,530.99,1.0,193.0,6.0,1.16771,0.935287
White,17,Right,19,Male,No,English,D,195,0,0,4,180.0,1.0,1.0,883.957,1.0,194.0,6.0,1.13347,0.883189
White,17,Right,19,Male,No,English,D,196,1,8,8,0.0,0.0,1.0,786.972,1.0,195.0,6.0,1.11153,0.81295
White,17,Right,19,Male,No,English,D,197,0,0,8,0.0,1.0,0.0,665.049,1.0,196.0,6.0,1.10384,0.836825
White,17,Right,19,Male,No,English,D,198,1,16,0,180.0,1.0,1.0,608.47,1.0,197.0,6.0,1.15726,0.99447
White,17,Right,19,Male,No,English,D,199,1,4,0,180.0,1.0,1.0,618.379,1.0,198.0,6.0,1.08565,0.918188
White,17,Right,19,Male,No,English,D,200,1,16,8,0.0,0.0,1.0,662.601,1.0,199.0,6.0,1.11523,0.870408
White,17,Right,19,Male,No,English,D,201,0,16,8,0.0,0.0,1.0,528.941,1.0,200.0,6.0,1.12412,0.908636
White,17,Right,19,Male,No,English,D,202,1,4,8,0.0,0.0,1.0,813.503,1.0,201.0,6.0,1.01824,0.853032
White,17,Right,19,Male,No,English,D,203,0,0,0,180.0,1.0,1.0,583.929,1.0,202.0,6.0,1.15469,0.985195
White,17,Right,19,Male,No,English,D,204,0,4,8,180.0,1.0,1.0,761.926,1.0,203.0,6.0,1.12208,0.994667
White,17,Right,19,Male,No,English,D,205,1,8,4,180.0,1.0,1.0,791.047,1.0,204.0,6.0,1.15394,0.993302
White,17,Right,19,Male,No,English,D,206,1,0,4,0.0,0.0,1.0,549.596,1.0,205.0,6.0,1.01099,0.860706
White,17,Right,19,Male,No,English,D,207,1,0,8,0.0,0.0,1.0,556.169,1.0,206.0,6.0,1.19984,0.905118
White,17,Right,19,Male,No,English,D,208,0,16,4,180.0,1.0,1.0,445.872,1.0,207.0,6.0,1.05954,0.897494
White,17,Right,19,Male,No,English,D,209,1,16,16,0.0,0.0,1.0,927.036,1.0,208.0,6.0,1.12372,0.859014
White,17,Right,19,Male,No,English,D,210,0,8,8,0.0,0.0,1.0,794.966,1.0,209.0,6.0,1.11901,0.815198
White,17,Right,19,Male,No,English,D,211,0,0,16,180.0,1.0,1.0,622.176,1.0,210.0,6.0,1.19161,0.827654
White,17,Right,19,Male,No,English,D,212,1,0,16,180.0,1.0,1.0,602.126,1.0,211.0,6.0,1.10863,0.804399
White,17,Right,19,Male,No,English,D,213,0,4,4,0.0,0.0,1.0,657.687,1.0,212.0,6.0,1.11137,0.895553
White,17,Right,19,Male,No,English,D,214,0,8,0,0.0,0.0,1.0,700.722,1.0,213.0,6.0,1.17639,0.822705
White,17,Right,19,Male,No,English,D,215,1,8,0,0.0,0.0,1.0,609.908,1.0,214.0,6.0,1.1712,0.907655
White,17,Right,19,Male,No,English,D,216,0,8,4,0.0,0.0,1.0,1014.92,1.0,215.0,6.0,1.11345,0.945085
White,17,Right,19,Male,No,English,D,217,1,4,4,0.0,0.0,1.0,747.855,1.0,216.0,6.0,1.13733,0.853246
White,17,Right,19,Male,No,English,D,218,1,0,0,180.0,1.0,1.0,617.548,1.0,217.0,6.0,1.04339,0.99138
White,17,Right,19,Male,No,English,D,219,1,8,16,180.0,1.0,1.0,693.564,1.0,218.0,6.0,1.15607,0.86901
White,17,Right,19,Male,No,English,D,220,0,8,16,180.0,0.0,0.0,774.077,1.0,219.0,6.0,1.16816,0.891066
White,17,Right,19,Male,No,English,D,221,0,16,0,180.0,1.0,1.0,704.917,1.0,220.0,6.0,1.06238,0.971057
White,17,Right,19,Male,No,English,D,222,0,16,16,180.0,1.0,1.0,583.314,1.0,221.0,6.0,1.05621,0.816691
White,17,Right,19,Male,No,English,D,223,0,4,16,0.0,0.0,1.0,1148.87,1.0,222.0,6.0,1.06806,0.923694
White,17,Right,19,Male,No,English,D,224,0,4,0,180.0,1.0,1.0,603.009,1.0,223.0,6.0,1.09821,0.943779
White,17,Right,19,Male,No,English,D,225,1,0,4,0.0,0.0,1.0,736.191,1.0,224.0,7.0,1.19686,0.886442
White,17,Right,19,Male,No,English,D,226,1,8,4,0.0,0.0,1.0,734.748,1.0,225.0,7.0,1.14608,0.83693
White,17,Right,19,Male,No,English,D,227,1,4,8,180.0,1.0,1.0,955.924,1.0,226.0,7.0,1.17735,0.912097
White,17,Right,19,Male,No,English,D,228,0,16,0,180.0,1.0,1.0,1049.91,1.0,227.0,7.0,1.05071,0.83931
White,17,Right,19,Male,No,English,D,229,1,8,0,0.0,0.0,1.0,837.953,1.0,228.0,7.0,1.00049,0.930928
White,17,Right,19,Male,No,English,D,230,0,8,4,0.0,0.0,1.0,682.064,1.0,229.0,7.0,1.17488,0.948447
White,17,Right,19,Male,No,English,D,231,0,0,0,0.0,0.0,1.0,638.406,1.0,230.0,7.0,1.19249,0.850307
White,17,Right,19,Male,No,English,D,232,1,16,16,180.0,1.0,1.0,756.766,1.0,231.0,7.0,1.10108,0.956119
White,17,Right,19,Male,No,English,D,233,1,4,16,180.0,1.0,1.0,939.88,1.0,232.0,7.0,1.01788,0.91941
White,17,Right,19,Male,No,English,D,234,0,16,4,180.0,1.0,1.0,754.592,1.0,233.0,7.0,1.10327,0.851393
White,17,Right,19,Male,No,English,D,235,0,0,16,0.0,0.0,1.0,727.393,1.0,234.0,7.0,1.16501,0.865992
White,17,Right,19,Male,No,English,D,236,0,8,0,0.0,0.0,1.0,784.112,1.0,235.0,7.0,1.08418,0.918178
White,17,Right,19,Male,No,English,D,237,1,0,16,180.0,1.0,1.0,646.084,1.0,236.0,7.0,1.06313,0.915741
White,17,Right,19,Male,No,English,D,238,0,0,8,180.0,1.0,1.0,588.619,1.0,237.0,7.0,1.17452,0.847026
White,17,Right,19,Male,No,English,D,239,0,4,4,0.0,0.0,1.0,906.935,1.0,238.0,7.0,1.05762,0.989516
White,17,Right,19,Male,No,English,D,240,1,4,0,180.0,1.0,1.0,1117.79,1.0,239.0,7.0,1.04283,0.875023
White,17,Right,19,Male,No,English,D,241,1,8,16,0.0,0.0,1.0,618.324,1.0,240.0,7.0,1.14409,0.828718
White,17,Right,19,Male,No,English,D,242,1,0,8,180.0,1.0,1.0,1049.15,1.0,241.0,7.0,1.08952,0.914523
White,17,Right,19,Male,No,English,D,243,1,8,8,0.0,0.0,1.0,1352.74,1.0,242.0,7.0,1.07913,0.970957
White,17,Right,19,Male,No,English,D,244,1,16,4,180.0,1.0,1.0,842.011,1.0,243.0,7.0,1.19887,0.962509
White,17,Right,19,Male,No,English,D,245,1,0,0,0.0,0.0,1.0,551.542,1.0,244.0,7.0,1.16767,0.927314
White,17,Right,19,Male,No,English,D,246,1,16,8,180.0,1.0,1.0,600.477,1.0,245.0,7.0,1.1383,0.834199
White,17,Right,19,Male,No,English,D,247,0,8,16,180.0,1.0,1.0,1068.17,1.0,246.0,7.0,1.18901,0.816629
White,17,Right,19,Male,No,English,D,248,1,16,0,180.0,1.0,1.0,933.104,1.0,247.0,7.0,1.04404,0.956693
White,17,Right,19,Male,No,English,D,249,1,4,4,0.0,0.0,1.0,728.78,1.0,248.0,7.0,1.06424,0.989045
White,17,Right,19,Male,No,English,D,250,0,16,8,0.0,0.0,1.0,771.094,1.0,249.0,7.0,1.17238,0.887858
White,17,Right,19,Male,No,English,D,251,0,8,8,0.0,0.0,1.0,913.718,1.0,250.0,7.0,1.00154,0.879587
White,17,Right,19,Male,No,English,D,252,0,4,16,180.0,1.0,1.0,634.369,1.0,251.0,7.0,1.12392,0.997226
White,17,Right,19,Male,No,English,D,253,0,4,8,180.0,1.0,1.0,853.051,1.0,252.0,7.0,1.17715,0.899591
White,17,Right,19,Male,No,English,D,254,0,4,0,0.0,0.0,1.0,641.898,1.0,253.0,7.0,1.10064,0.800786
White,17,Right,19,Male,No,English,D,255,0,0,4,0.0,0.0,1.0,577.096,1.0,254.0,7.0,1.11265,0.81618
White,17,Right,19,Male,No,English,D,256,0,16,16,180.0,1.0,1.0,753.521,1.0,255.0,7.0,1.17312,0.984781
White,17,Right,19,Male,No,English,D,257,1,16,0,180.0,1.0,1.0,569.079,1.0,256.0,8.0,1.01876,0.831035
White,17,Right,19,Male,No,English,D,258,0,4,4,180.0,0.0,0.0,593.923,1.0,257.0,8.0,1.07475,0.892389
White,17,Right,19,Male,No,English,D,259,0,4,8,0.0,0.0,1.0,567.747,1.0,258.0,8.0,1.19199,0.814745
White,17,Right,19,Male,No,English,D,260,1,0,8,0.0,0.0,1.0,474.25,1.0,259.0,8.0,1.03254,0.842466
White,17,Right,19,Male,No,English,D,261,1,4,8,0.0,0.0,1.0,672.695,1.0,260.0,8.0,1.13111,0.899363
White,17,Right,19,Male,No,English,D,262,1,8,0,180.0,1.0,1.0,887.939,1.0,261.0,8.0,1.02643,0.885033
White,17,Right,19,Male,No,English,D,263,0,8,16,0.0,0.0,1.0,746.621,1.0,262.0,8.0,1.11104,0.997913
White,17,Right,19,Male,No,English,D,264,1,8,4,0.0,0.0,1.0,925.907,1.0,263.0,8.0,1.05738,0.888301
White,17,Right,19,Male,No,English,D,265,0,8,4,180.0,1.0,1.0,596.404,1.0,264.0,8.0,1.16638,0.816738
White,17,Right,19,Male,No,English,D,266,1,16,4,180.0,1.0,1.0,1047.36,1.0,265.0,8.0,1.19684,0.822709
White,17,Right,19,Male,No,English,D,267,1,4,4,0.0,0.0,1.0,516.722,1.0,266.0,8.0,1.0107,0.904668
White,17,Right,19,Male,No,English,D,268,1,16,16,180.0,1.0,1.0,1201.75,1.0,267.0,8.0,1.03263,0.891143
White,17,Right,19,Male,No,English,D,269,0,0,8,0.0,0.0,1.0,877.144,1.0,268.0,8.0,1.09844,0.967727
White,17,Right,19,Male,No,English,D,270,1,0,16,180.0,1.0,1.0,602.419,1.0,269.0,8.0,1.17127,0.921818
White,17,Right,19,Male,No,English,D,271,0,8,0,0.0,0.0,1.0,755.884,1.0,270.0,8.0,1.07097,0.990961
White,17,Right,19,Male,No,English,D,272,0,16,8,180.0,1.0,1.0,1275.95,1.0,271.0,8.0,1.13249,0.891441
White,17,Right,19,Male,No,English,D,273,1,0,4,0.0,0.0,1.0,699.35,1.0,272.0,8.0,1.02297,0.897309
White,17,Right,19,Male,No,English,D,274,1,8,8,180.0,1.0,1.0,717.308,1.0,273.0,8.0,1.16213,0.898737
White,17,Right,19,Male,No,English,D,275,0,4,0,0.0,0.0,1.0,751.828,1.0,274.0,8.0,1.14744,0.878097
White,17,Right,19,Male,No,English,D,276,1,4,16,0.0,0.0,1.0,591.698,1.0,275.0,8.0,1.04872,0.972343
White,17,Right,19,Male,No,English,D,277,0,0,16,0.0,0.0,1.0,638.972,1.0,276.0,8.0,1.19886,0.902242
White,17,Right,19,Male,No,English,D,278,0,16,0,180.0,1.0,1.0,916.233,1.0,277.0,8.0,1.04013,0.965877
White,17,Right,19,Male,No,English,D,279,0,0,4,180.0,1.0,1.0,742.554,1.0,278.0,8.0,1.12029,0.947132
White,17,Right,19,Male,No,English,D,280,1,0,0,180.0,1.0,1.0,761.325,1.0,279.0,8.0,1.19967,0.865728
White,17,Right,19,Male,No,English,D,281,1,8,16,180.0,1.0,1.0,939.248,1.0,280.0,8.0,1.08957,0.899786
White,17,Right,19,Male,No,English,D,282,1,4,0,0.0,0.0,1.0,662.097,1.0,281.0,8.0,1.09545,0.853839
White,17,Right,19,Male,No,English,D,283,0,4,16,180.0,1.0,1.0,854.272,1.0,282.0,8.0,1.11352,0.878821
White,17,Right,19,Male,No,English,D,284,0,16,16,180.0,1.0,1.0,1070.88,1.0,283.0,8.0,1.06475,0.836216
White,17,Right,19,Male,No,English,D,285,0,8,8,0.0,0.0,1.0,850.46,1.0,284.0,8.0,1.15891,0.815387
White,17,Right,19,Male,No,English,D,286,0,0,0,0.0,0.0,1.0,646.4,1.0,285.0,8.0,1.13139,0.868554
White,17,Right,19,Male,No,English,D,287,1,16,8,0.0,0.0,1.0,846.793,1.0,286.0,8.0,1.11372,0.895118
White,17,Right,19,Male,No,English,D,288,0,16,4,180.0,1.0,1.0,710.298,1.0,287.0,8.0,1.16374,0.989568
White,17,Right,19,Male,No,English,D,289,1,16,8,0.0,0.0,1.0,828.967,1.0,288.0,9.0,1.163,0.987962
White,17,Right,19,Male,No,English,D,290,0,4,0,0.0,0.0,1.0,855.041,1.0,289.0,9.0,1.17928,0.901248
White,17,Right,19,Male,No,English,D,291,1,0,8,0.0,0.0,1.0,740.764,1.0,290.0,9.0,1.11394,0.987235
White,17,Right,19,Male,No,English,D,292,0,0,8,180.0,1.0,1.0,883.956,1.0,291.0,9.0,1.04234,0.944139
White,17,Right,19,Male,No,English,D,293,1,4,4,180.0,1.0,1.0,986.39,1.0,292.0,9.0,1.16801,0.923145
White,17,Right,19,Male,No,English,D,294,1,0,16,0.0,0.0,1.0,530.683,1.0,293.0,9.0,1.14085,0.832866
White,17,Right,19,Male,No,English,D,295,1,8,4,0.0,0.0,1.0,804.96,1.0,294.0,9.0,1.10198,0.872833
White,17,Right,19,Male,No,English,D,296,1,8,0,180.0,1.0,1.0,509.604,1.0,295.0,9.0,1.07138,0.969683
White,17,Right,19,Male,No,English,D,297,0,8,4,0.0,0.0,1.0,1045.07,1.0,296.0,9.0,1.05477,0.824389
White,17,Right,19,Male,No,English,D,298,1,16,16,180.0,1.0,1.0,886.352,1.0,297.0,9.0,1.126,0.930256
White,17,Right,19,Male,No,English,D,299,0,0,4,0.0,0.0,1.0,936.934,1.0,298.0,9.0,1.172,0.996096
White,17,Right,19,Male,No,English,D,300,1,16,0,180.0,1.0,1.0,1052.85,1.0,299.0,9.0,1.09188,0.922773
White,17,Right,19,Male,No,English,D,301,1,0,0,0.0,0.0,1.0,730.208,1.0,300.0,9.0,1.15029,0.966043
White,17,Right,19,Male,No,English,D,302,0,16,0,0.0,0.0,1.0,823.609,1.0,301.0,9.0,1.17455,0.973319
White,17,Right,19,Male,No,English,D,303,1,16,4,180.0,1.0,1.0,886.66,1.0,302.0,9.0,1.14997,0.921786
White,17,Right,19,Male,No,English,D,304,0,8,0,0.0,0.0,1.0,805.953,1.0,303.0,9.0,1.14274,0.968212
White,17,Right,19,Male,No,English,D,305,0,4,4,180.0,1.0,1.0,1053.08,1.0,304.0,9.0,1.01885,0.844679
White,17,Right,19,Male,No,English,D,306,0,8,16,0.0,0.0,1.0,837.058,1.0,305.0,9.0,1.122,0.947734
White,17,Right,19,Male,No,English,D,307,1,8,16,180.0,1.0,1.0,504.33,1.0,306.0,9.0,1.0158,0.814463
White,17,Right,19,Male,No,English,D,308,0,4,16,180.0,1.0,1.0,172.509,1.0,307.0,9.0,1.05982,0.863332
White,17,Right,19,Male,No,English,D,309,0,16,4,0.0,0.0,1.0,883.998,1.0,308.0,9.0,1.05038,0.970765
White,17,Right,19,Male,No,English,D,310,0,4,8,0.0,0.0,1.0,707.109,1.0,309.0,9.0,1.00613,0.903524
White,17,Right,19,Male,No,English,D,311,0,16,16,180.0,1.0,1.0,933.49,1.0,310.0,9.0,1.1424,0.871392
White,17,Right,19,Male,No,English,D,312,0,0,16,0.0,0.0,1.0,828.256,1.0,311.0,9.0,1.02067,0.989698
White,17,Right,19,Male,No,English,D,313,1,0,4,180.0,1.0,1.0,809.726,1.0,312.0,9.0,1.05607,0.86876
White,17,Right,19,Male,No,English,D,314,1,8,8,180.0,1.0,1.0,843.919,1.0,313.0,9.0,1.15094,0.815034
White,17,Right,19,Male,No,English,D,315,1,4,0,180.0,1.0,1.0,553.912,1.0,314.0,9.0,1.14396,0.95732
White,17,Right,19,Male,No,English,D,316,1,4,8,180.0,1.0,1.0,739.015,1.0,315.0,9.0,1.02418,0.830422
White,17,Right,19,Male,No,English,D,317,0,8,8,0.0,0.0,1.0,664.17,1.0,316.0,9.0,1.15213,0.871849
White,17,Right,19,Male,No,English,D,318,0,16,8,180.0,1.0,1.0,822.914,1.0,317.0,9.0,1.16711,0.935437
White,17,Right,19,Male,No,English,D,319,1,4,16,180.0,1.0,1.0,903.164,1.0,318.0,9.0,1.06306,0.933477
White,17,Right,19,Male,No,English,D,320,0,0,0,0.0,0.0,1.0,654.48,1.0,319.0,9.0,1.03502,0.981885
White,17,Right,19,Male,No,English,D,321,1,0,4,180.0,1.0,1.0,1168.3,1.0,320.0,10.0,1.08505,0.834026
White,17,Right,19,Male,No,English,D,322,1,16,8,180.0,1.0,1.0,960.631,1.0,321.0,10.0,1.19011,0.923469
White,17,Right,19,Male,No,English,D,323,1,16,16,180.0,1.0,1.0,925.429,1.0,322.0,10.0,1.12011,0.859342
White,17,Right,19,Male,No,English,D,324,0,4,4,0.0,0.0,1.0,1250.91,1.0,323.0,10.0,1.04268,0.809925
White,17,Right,19,Male,No,English,D,325,0,16,8,0.0,0.0,1.0,1000.54,1.0,324.0,10.0,1.1801,0.953235
White,17,Right,19,Male,No,English,D,326,1,4,16,180.0,1.0,1.0,949.277,1.0,325.0,10.0,1.09131,0.972687
White,17,Right,19,Male,No,English,D,327,0,4,16,0.0,0.0,1.0,868.545,1.0,326.0,10.0,1.08202,0.959273
White,17,Right,19,Male,No,English,D,328,1,8,16,0.0,0.0,1.0,1267.7,1.0,327.0,10.0,1.19824,0.858199
White,17,Right,19,Male,No,English,D,329,1,0,0,0.0,0.0,1.0,581.978,1.0,328.0,10.0,1.07055,0.944266
White,17,Right,19,Male,No,English,D,330,0,0,16,180.0,1.0,1.0,900.873,1.0,329.0,10.0,1.04124,0.971751
White,17,Right,19,Male,No,English,D,331,1,16,4,180.0,1.0,1.0,1148.51,1.0,330.0,10.0,1.12812,0.924844
White,17,Right,19,Male,No,English,D,332,0,0,0,180.0,1.0,1.0,732.326,1.0,331.0,10.0,1.05791,0.849757
White,17,Right,19,Male,No,English,D,333,0,4,0,0.0,0.0,1.0,1352.87,1.0,332.0,10.0,1.17238,0.98185
White,17,Right,19,Male,No,English,D,334,1,0,8,0.0,0.0,1.0,936.218,1.0,333.0,10.0,1.19373,0.876393
White,17,Right,19,Male,No,English,D,335,1,4,0,0.0,0.0,1.0,887.14,1.0,334.0,10.0,1.09104,0.811954
White,17,Right,19,Male,No,English,D,336,0,4,8,0.0,0.0,1.0,745.685,1.0,335.0,10.0,1.19025,0.982124
White,17,Right,19,Male,No,English,D,337,1,0,16,180.0,1.0,1.0,710.641,1.0,336.0,10.0,1.1698,0.891486
White,17,Right,19,Male,No,English,D,338,0,0,8,0.0,0.0,1.0,803.616,1.0,337.0,10.0,1.1826,0.953673
White,17,Right,19,Male,No,English,D,339,1,8,4,0.0,0.0,1.0,931.16,1.0,338.0,10.0,1.00131,0.880436
White,17,Right,19,Male,No,English,D,340,0,0,4,0.0,0.0,1.0,672.597,1.0,339.0,10.0,1.15827,0.921346
White,17,Right,19,Male,No,English,D,341,0,8,16,180.0,1.0,1.0,607.421,1.0,340.0,10.0,1.16878,0.875178
White,17,Right,19,Male,No,English,D,342,0,16,0,0.0,0.0,1.0,1278.17,1.0,341.0,10.0,1.06538,0.992561
White,17,Right,19,Male,No,English,D,343,0,8,4,180.0,1.0,1.0,901.665,1.0,342.0,10.0,1.06745,0.864482
White,17,Right,19,Male,No,English,D,344,0,16,16,180.0,1.0,1.0,1038.24,1.0,343.0,10.0,1.01261,0.87901
White,17,Right,19,Male,No,English,D,345,1,8,0,180.0,1.0,1.0,1000.39,1.0,344.0,10.0,1.03021,0.885291
White,17,Right,19,Male,No,English,D,346,1,4,4,180.0,1.0,1.0,844.51,1.0,345.0,10.0,1.10461,0.811335
White,17,Right,19,Male,No,English,D,347,0,16,4,0.0,0.0,1.0,849.213,1.0,346.0,10.0,1.14514,0.904798
White,17,Right,19,Male,No,English,D,348,0,8,8,180.0,1.0,1.0,672.579,1.0,347.0,10.0,1.08618,0.855822
White,17,Right,19,Male,No,English,D,349,0,8,0,180.0,1.0,1.0,654.832,1.0,348.0,10.0,1.19223,0.98312
White,17,Right,19,Male,No,English,D,350,1,16,0,0.0,0.0,1.0,923.683,1.0,349.0,10.0,1.07522,0.837568
White,17,Right,19,Male,No,English,D,351,1,4,8,180.0,1.0,1.0,998.42,1.0,350.0,10.0,1.14,0.82125
White,17,Right,19,Male,No,English,D,352,1,8,8,0.0,0.0,1.0,841.61,1.0,351.0,10.0,1.0732,0.903535
White,17,Right,19,Male,No,English,D,353,0,8,8,0.0,0.0,1.0,626.77,1.0,352.0,11.0,1.19019,0.878784
White,17,Right,19,Male,No,English,D,354,1,0,8,0.0,0.0,1.0,951.399,1.0,353.0,11.0,1.16853,0.945537
White,17,Right,19,Male,No,English,D,355,1,4,8,180.0,1.0,1.0,1160.07,1.0,354.0,11.0,1.15561,0.897823
White,17,Right,19,Male,No,English,D,356,1,0,16,0.0,0.0,1.0,811.375,1.0,355.0,11.0,1.02568,0.980518
White,17,Right,19,Male,No,English,D,357,0,0,4,180.0,1.0,1.0,829.884,1.0,356.0,11.0,1.1573,0.968567
White,17,Right,19,Male,No,English,D,358,0,4,16,180.0,1.0,1.0,557.91,1.0,357.0,11.0,1.17171,0.989813
White,17,Right,19,Male,No,English,D,359,0,4,4,0.0,0.0,1.0,789.872,1.0,358.0,11.0,1.15511,0.852468
White,17,Right,19,Male,No,English,D,360,1,0,0,180.0,1.0,1.0,889.045,1.0,359.0,11.0,1.00096,0.847844
White,17,Right,19,Male,No,English,D,361,0,8,0,180.0,1.0,1.0,1160.13,1.0,360.0,11.0,1.05863,0.84762
White,17,Right,19,Male,No,English,D,362,0,16,4,0.0,0.0,1.0,1122.42,1.0,361.0,11.0,1.17067,0.925551
White,17,Right,19,Male,No,English,D,363,1,16,16,180.0,1.0,1.0,697.408,1.0,362.0,11.0,1.15691,0.830012
White,17,Right,19,Male,No,English,D,364,0,8,16,0.0,0.0,1.0,1286.93,1.0,363.0,11.0,1.13742,0.938925
White,17,Right,19,Male,No,English,D,365,1,4,16,180.0,1.0,1.0,1093.97,1.0,364.0,11.0,1.04542,0.960713
White,17,Right,19,Male,No,English,D,366,0,16,0,180.0,1.0,1.0,1472.09,1.0,365.0,11.0,1.03035,0.902351
White,17,Right,19,Male,No,English,D,367,0,0,16,0.0,0.0,1.0,591.366,1.0,366.0,11.0,1.13305,0.942476
White,17,Right,19,Male,No,English,D,368,0,16,8,0.0,0.0,1.0,973.523,1.0,367.0,11.0,1.0713,0.848935
White,17,Right,19,Male,No,English,D,369,1,4,0,0.0,0.0,1.0,615.103,1.0,368.0,11.0,1.05183,0.912436
White,17,Right,19,Male,No,English,D,370,1,16,4,180.0,1.0,1.0,1035.85,1.0,369.0,11.0,1.16085,0.855974
White,17,Right,19,Male,No,English,D,371,0,4,0,0.0,0.0,1.0,599.59,1.0,370.0,11.0,1.19103,0.826745
White,17,Right,19,Male,No,English,D,372,1,16,8,180.0,1.0,1.0,1405.39,1.0,371.0,11.0,1.00909,0.915597
White,17,Right,19,Male,No,English,D,373,1,4,4,0.0,0.0,1.0,849.412,1.0,372.0,11.0,1.11893,0.926264
White,17,Right,19,Male,No,English,D,374,1,8,16,180.0,1.0,1.0,1871.99,1.0,373.0,11.0,1.10538,0.919083
White,17,Right,19,Male,No,English,D,375,1,0,4,180.0,1.0,1.0,602.623,1.0,374.0,11.0,1.17429,0.932199
White,17,Right,19,Male,No,English,D,376,1,8,0,0.0,0.0,1.0,703.584,1.0,375.0,11.0,1.02526,0.854924
White,17,Right,19,Male,No,English,D,377,0,16,16,180.0,1.0,1.0,500.865,1.0,376.0,11.0,1.1759,0.943972
White,17,Right,19,Male,No,English,D,378,0,0,0,0.0,0.0,1.0,756.054,1.0,377.0,11.0,1.11843,0.919971
White,17,Right,19,Male,No,English,D,379,1,8,4,180.0,1.0,1.0,653.612,1.0,378.0,11.0,1.06211,0.976091
White,17,Right,19,Male,No,English,D,380,0,4,8,180.0,1.0,1.0,1288.39,1.0,379.0,11.0,1.17125,0.812607
White,17,Right,19,Male,No,English,D,381,1,8,8,0.0,0.0,1.0,633.198,1.0,380.0,11.0,1.10287,0.817528
White,17,Right,19,Male,No,English,D,382,0,8,4,0.0,0.0,1.0,1139.05,1.0,381.0,11.0,1.05391,0.835459
White,17,Right,19,Male,No,English,D,383,0,0,8,180.0,1.0,1.0,1076.38,1.0,382.0,11.0,1.0095,0.856103
White,17,Right,19,Male,No,English,D,384,1,16,0,0.0,0.0,1.0,1512.9,1.0,383.0,11.0,1.19701,0.879093
White,17,Right,19,Male,No,English,D,385,0,4,8,180.0,1.0,1.0,798.83,1.0,384.0,12.0,1.07602,0.823432
White,17,Right,19,Male,No,English,D,386,0,8,4,180.0,1.0,1.0,763.044,1.0,385.0,12.0,1.02045,0.913557
White,17,Right,19,Male,No,English,D,387,0,0,16,0.0,0.0,1.0,648.233,1.0,386.0,12.0,1.06124,0.804677
White,17,Right,19,Male,No,English,D,388,1,0,16,0.0,0.0,1.0,751.279,1.0,387.0,12.0,1.04295,0.817547
White,17,Right,19,Male,No,English,D,389,0,4,16,0.0,0.0,1.0,840.987,1.0,388.0,12.0,1.17616,0.820437
White,17,Right,19,Male,No,English,D,390,0,8,16,180.0,1.0,1.0,805.924,1.0,389.0,12.0,1.13575,0.990612
White,17,Right,19,Male,No,English,D,391,1,4,0,180.0,1.0,1.0,647.033,1.0,390.0,12.0,1.13089,0.949737
White,17,Right,19,Male,No,English,D,392,0,16,16,180.0,1.0,1.0,825.888,1.0,391.0,12.0,1.00833,0.868649
White,17,Right,19,Male,No,English,D,393,1,16,16,180.0,1.0,1.0,1018.84,1.0,392.0,12.0,1.1056,0.928778
White,17,Right,19,Male,No,English,D,394,1,4,4,180.0,1.0,1.0,1230.9,1.0,393.0,12.0,1.1823,0.857411
White,17,Right,19,Male,No,English,D,395,0,16,0,0.0,0.0,1.0,833.43,1.0,394.0,12.0,1.05814,0.951536
White,17,Right,19,Male,No,English,D,396,0,0,0,0.0,1.0,0.0,413.018,1.0,395.0,12.0,1.14449,0.969822
White,17,Right,19,Male,No,English,D,397,1,8,0,0.0,0.0,1.0,1042.15,1.0,396.0,12.0,1.015,0.825125
White,17,Right,19,Male,No,English,D,398,0,16,4,180.0,1.0,1.0,1011.96,1.0,397.0,12.0,1.11764,0.963425
White,17,Right,19,Male,No,English,D,399,1,0,0,0.0,0.0,1.0,640.38,1.0,398.0,12.0,1.19756,0.966396
White,17,Right,19,Male,No,English,D,400,0,8,8,0.0,0.0,1.0,754.368,1.0,399.0,12.0,1.00492,0.946782
White,17,Right,19,Male,No,English,D,401,1,8,8,180.0,1.0,1.0,868.121,1.0,400.0,12.0,1.06542,0.916354
White,17,Right,19,Male,No,English,D,402,1,4,8,0.0,0.0,1.0,489.48,1.0,401.0,12.0,1.05649,0.852338
White,17,Right,19,Male,No,English,D,403,1,16,4,180.0,1.0,1.0,405.95,1.0,402.0,12.0,1.15878,0.817639
White,17,Right,19,Male,No,English,D,404,0,0,4,180.0,1.0,1.0,544.5,1.0,403.0,12.0,1.18279,0.953315
White,17,Right,19,Male,No,English,D,405,1,0,4,0.0,0.0,1.0,640.752,1.0,404.0,12.0,1.13548,0.868296
White,17,Right,19,Male,No,English,D,406,1,4,16,180.0,1.0,1.0,864.683,1.0,405.0,12.0,1.14183,0.858571
White,17,Right,19,Male,No,English,D,407,1,16,0,180.0,1.0,1.0,877.468,1.0,406.0,12.0,1.10443,0.962701
White,17,Right,19,Male,No,English,D,408,1,16,8,180.0,1.0,1.0,851.652,1.0,407.0,12.0,1.06902,0.841514
White,17,Right,19,Male,No,English,D,409,1,8,16,0.0,0.0,1.0,784.03,1.0,408.0,12.0,1.14186,0.867169
White,17,Right,19,Male,No,English,D,410,0,16,8,180.0,1.0,1.0,1493.03,1.0,409.0,12.0,1.05008,0.888943
White,17,Right,19,Male,No,English,D,411,0,4,0,0.0,0.0,1.0,731.257,1.0,410.0,12.0,1.00876,0.852597
White,17,Right,19,Male,No,English,D,412,0,0,8,0.0,0.0,1.0,579.241,1.0,411.0,12.0,1.07202,0.894906
White,17,Right,19,Male,No,English,D,413,1,8,4,0.0,0.0,1.0,935.146,1.0,412.0,12.0,1.12819,0.925064
White,17,Right,19,Male,No,English,D,414,0,4,4,0.0,0.0,1.0,783.547,1.0,413.0,12.0,1.09922,0.815004
White,17,Right,19,Male,No,English,D,415,1,0,8,180.0,1.0,1.0,741.851,1.0,414.0,12.0,1.19431,0.920295
White,17,Right,19,Male,No,English,D,416,0,8,0,0.0,0.0,1.0,789.091,1.0,415.0,12.0,1.10476,0.960447
White,17,Right,19,Male,No,English,D,417,1,0,16,180.0,1.0,1.0,492.859,1.0,416.0,13.0,1.03176,0.970816
White,17,Right,19,Male,No,English,D,418,0,16,8,0.0,0.0,1.0,875.311,1.0,417.0,13.0,1.03297,0.96654
White,17,Right,19,Male,No,English,D,419,1,4,0,180.0,1.0,1.0,879.15,1.0,418.0,13.0,1.04879,0.972321
White,17,Right,19,Male,No,English,D,420,1,4,4,180.0,1.0,1.0,942.4,1.0,419.0,13.0,1.05746,0.965728
White,17,Right,19,Male,No,English,D,421,0,16,16,180.0,1.0,1.0,748.62,1.0,420.0,13.0,1.07886,0.88147
White,17,Right,19,Male,No,English,D,422,0,4,16,180.0,1.0,1.0,865.455,1.0,421.0,13.0,1.14952,0.95202
White,17,Right,19,Male,No,English,D,423,1,0,0,180.0,1.0,1.0,594.946,1.0,422.0,13.0,1.00995,0.951218
White,17,Right,19,Male,No,English,D,424,1,8,16,0.0,0.0,1.0,650.453,1.0,423.0,13.0,1.01117,0.949741
White,17,Right,19,Male,No,English,D,425,0,8,4,180.0,1.0,1.0,1078.33,1.0,424.0,13.0,1.03467,0.803348
White,17,Right,19,Male,No,English,D,426,1,16,8,0.0,0.0,1.0,502.174,1.0,425.0,13.0,1.09298,0.98721
White,17,Right,19,Male,No,English,D,427,0,8,8,0.0,0.0,1.0,754.183,1.0,426.0,13.0,1.09975,0.985103
White,17,Right,19,Male,No,English,D,428,0,0,4,0.0,0.0,1.0,599.868,1.0,427.0,13.0,1.01901,0.965161
White,17,Right,19,Male,No,English,D,429,1,16,4,0.0,0.0,1.0,964.375,1.0,428.0,13.0,1.09927,0.930795
White,17,Right,19,Male,No,English,D,430,1,8,4,0.0,0.0,1.0,1049.83,1.0,429.0,13.0,1.03892,0.937088
White,17,Right,19,Male,No,English,D,431,0,4,8,0.0,0.0,1.0,1172.17,1.0,430.0,13.0,1.19587,0.860709
White,17,Right,19,Male,No,English,D,432,0,8,0,180.0,1.0,1.0,673.062,1.0,431.0,13.0,1.01588,0.918623
White,17,Right,19,Male,No,English,D,433,1,16,16,180.0,1.0,1.0,1476.13,1.0,432.0,13.0,1.06446,0.932544
White,17,Right,19,Male,No,English,D,434,0,16,4,0.0,0.0,1.0,670.842,1.0,433.0,13.0,1.19755,0.921755
White,17,Right,19,Male,No,English,D,435,1,16,0,0.0,0.0,1.0,742.99,1.0,434.0,13.0,1.19511,0.967937
White,17,Right,19,Male,No,English,D,436,1,0,8,180.0,1.0,1.0,621.346,1.0,435.0,13.0,1.0472,0.959215
White,17,Right,19,Male,No,English,D,437,0,4,4,180.0,1.0,1.0,905.859,1.0,436.0,13.0,1.0583,0.87904
White,17,Right,19,Male,No,English,D,438,0,0,8,180.0,1.0,1.0,1066.87,1.0,437.0,13.0,1.119,0.860943
White,17,Right,19,Male,No,English,D,439,0,16,0,0.0,0.0,1.0,634.599,1.0,438.0,13.0,1.06036,0.984059
White,17,Right,19,Male,No,English,D,440,1,8,0,180.0,1.0,1.0,744.688,1.0,439.0,13.0,1.07668,0.840813
White,17,Right,19,Male,No,English,D,441,1,8,8,0.0,0.0,1.0,895.158,1.0,440.0,13.0,1.02253,0.936117
White,17,Right,19,Male,No,English,D,442,1,4,16,180.0,1.0,1.0,827.133,1.0,441.0,13.0,1.18219,0.929993
White,17,Right,19,Male,No,English,D,443,1,4,8,0.0,0.0,1.0,618.991,1.0,442.0,13.0,1.11493,0.998545
White,17,Right,19,Male,No,English,D,444,1,0,4,180.0,1.0,1.0,760.511,1.0,443.0,13.0,1.15599,0.841085
White,17,Right,19,Male,No,English,D,445,0,0,16,0.0,0.0,1.0,956.936,1.0,444.0,13.0,1.08108,0.989478
White,17,Right,19,Male,No,English,D,446,0,0,0,0.0,0.0,1.0,856.305,1.0,445.0,13.0,1.10665,0.824943
White,17,Right,19,Male,No,English,D,447,0,8,16,180.0,1.0,1.0,597.923,1.0,446.0,13.0,1.12327,0.872999
White,17,Right,19,Male,No,English,D,448,0,4,0,0.0,0.0,1.0,831.275,1.0,447.0,13.0,1.00227,0.980038
White,17,Right,19,Male,No,English,D,449,1,16,0,0.0,0.0,1.0,1486.01,1.0,448.0,14.0,1.19763,0.938007
White,17,Right,19,Male,No,English,D,450,1,16,16,0.0,0.0,1.0,1730.12,1.0,449.0,14.0,1.02832,0.938098
White,17,Right,19,Male,No,English,D,451,0,16,4,0.0,0.0,1.0,994.371,1.0,450.0,14.0,1.1,0.919447
White,17,Right,19,Male,No,English,D,452,1,8,16,180.0,1.0,1.0,1268.73,1.0,451.0,14.0,1.13479,0.900459
White,17,Right,19,Male,No,English,D,453,1,8,0,180.0,1.0,1.0,1089.61,1.0,452.0,14.0,1.13364,0.919154
White,17,Right,19,Male,No,English,D,454,1,4,8,180.0,1.0,1.0,812.538,1.0,453.0,14.0,1.08909,0.909155
White,17,Right,19,Male,No,English,D,455,1,0,8,180.0,1.0,1.0,606.779,1.0,454.0,14.0,1.15072,0.846466
White,17,Right,19,Male,No,English,D,456,0,0,8,0.0,0.0,1.0,689.469,1.0,455.0,14.0,1.0889,0.867906
White,17,Right,19,Male,No,English,D,457,0,4,0,180.0,1.0,1.0,725.496,1.0,456.0,14.0,1.08294,0.971784
White,17,Right,19,Male,No,English,D,458,0,4,4,180.0,1.0,1.0,1392.68,1.0,457.0,14.0,1.00648,0.881282
White,17,Right,19,Male,No,English,D,459,1,0,0,180.0,1.0,1.0,817.69,1.0,458.0,14.0,1.01873,0.943229
White,17,Right,19,Male,No,English,D,460,0,8,8,180.0,1.0,1.0,891.924,1.0,459.0,14.0,1.14478,0.963317
White,17,Right,19,Male,No,English,D,461,1,4,4,180.0,1.0,1.0,524.496,1.0,460.0,14.0,1.12256,0.866938
White,17,Right,19,Male,No,English,D,462,0,16,16,0.0,0.0,1.0,854.675,1.0,461.0,14.0,1.02365,0.925415
White,17,Right,19,Male,No,English,D,463,0,0,16,0.0,0.0,1.0,919.783,1.0,462.0,14.0,1.02401,0.85688
White,17,Right,19,Male,No,English,D,464,0,0,0,180.0,1.0,1.0,587.375,1.0,463.0,14.0,1.03456,0.973353
White,17,Right,19,Male,No,English,D,465,0,8,0,180.0,1.0,1.0,888.605,1.0,464.0,14.0,1.19229,0.914874
White,17,Right,19,Male,No,English,D,466,1,0,16,0.0,0.0,1.0,912.984,1.0,465.0,14.0,1.00303,0.87204
White,17,Right,19,Male,No,English,D,467,1,8,4,180.0,1.0,1.0,1020.01,1.0,466.0,14.0,1.18795,0.818639
White,17,Right,19,Male,No,English,D,468,1,16,8,0.0,0.0,1.0,1119.74,1.0,467.0,14.0,1.05667,0.893869
White,17,Right,19,Male,No,English,D,469,0,4,16,0.0,0.0,1.0,663.408,1.0,468.0,14.0,1.02473,0.93945
White,17,Right,19,Male,No,English,D,470,1,4,16,0.0,0.0,1.0,949.437,1.0,469.0,14.0,1.13302,0.889179
White,17,Right,19,Male,No,English,D,471,0,16,0,0.0,0.0,1.0,685.815,1.0,470.0,14.0,1.15906,0.921066
White,17,Right,19,Male,No,English,D,472,0,0,4,180.0,1.0,1.0,607.685,1.0,471.0,14.0,1.00435,0.882522
White,17,Right,19,Male,No,English,D,473,1,16,4,180.0,1.0,1.0,708.57,1.0,472.0,14.0,1.13332,0.813651
White,17,Right,19,Male,No,English,D,474,0,16,8,180.0,1.0,1.0,953.819,1.0,473.0,14.0,1.02351,0.933334
White,17,Right,19,Male,No,English,D,475,0,8,4,0.0,0.0,1.0,650.53,1.0,474.0,14.0,1.0644,0.883772
White,17,Right,19,Male,No,English,D,476,1,8,8,0.0,0.0,1.0,606.195,1.0,475.0,14.0,1.12479,0.907091
White,17,Right,19,Male,No,English,D,477,0,4,8,0.0,0.0,1.0,1019.54,1.0,476.0,14.0,1.03758,0.97949
White,17,Right,19,Male,No,English,D,478,0,8,16,0.0,0.0,1.0,853.236,1.0,477.0,14.0,1.08803,0.902767
White,17,Right,19,Male,No,English,D,479,1,4,0,180.0,1.0,1.0,884.349,1.0,478.0,14.0,1.07634,0.801613
White,17,Right,19,Male,No,English,D,480,1,0,4,0.0,0.0,1.0,675.355,1.0,479.0,14.0,1.11277,0.974712
White,17,Right,19,Male,No,English,D,481,1,4,0,0.0,0.0,1.0,1827.69,1.0,480.0,15.0,1.16122,0.971162
White,17,Right,19,Male,No,English,D,482,1,16,8,180.0,1.0,1.0,808.244,1.0,481.0,15.0,1.1275,0.961291
White,17,Right,19,Male,No,English,D,483,0,16,0,180.0,1.0,1.0,737.562,1.0,482.0,15.0,1.08009,0.975626
White,17,Right,19,Male,No,English,D,484,1,8,0,0.0,0.0,1.0,665.615,1.0,483.0,15.0,1.10429,0.979849
White,17,Right,19,Male,No,English,D,485,1,0,4,180.0,1.0,1.0,552.727,1.0,484.0,15.0,1.01398,0.931656
White,17,Right,19,Male,No,English,D,486,0,0,0,180.0,1.0,1.0,694.762,1.0,485.0,15.0,1.00286,0.915001
White,17,Right,19,Male,No,English,D,487,0,16,8,0.0,0.0,1.0,871.643,1.0,486.0,15.0,1.07141,0.955675
White,17,Right,19,Male,No,English,D,488,1,16,0,180.0,1.0,1.0,725.285,1.0,487.0,15.0,1.04294,0.91164
White,17,Right,19,Male,No,English,D,489,0,8,0,180.0,1.0,1.0,998.258,1.0,488.0,15.0,1.19297,0.818243
White,17,Right,19,Male,No,English,D,490,0,0,8,0.0,0.0,1.0,478.992,1.0,489.0,15.0,1.15161,0.871705
White,17,Right,19,Male,No,English,D,491,0,8,4,180.0,1.0,1.0,646.849,1.0,490.0,15.0,1.06078,0.810136
White,17,Right,19,Male,No,English,D,492,1,16,16,0.0,0.0,1.0,807.346,1.0,491.0,15.0,1.15657,0.824708
White,17,Right,19,Male,No,English,D,493,1,4,4,180.0,1.0,1.0,503.999,1.0,492.0,15.0,1.15977,0.956728
White,17,Right,19,Male,No,English,D,494,1,8,8,0.0,0.0,1.0,1111.18,1.0,493.0,15.0,1.17681,0.879444
White,17,Right,19,Male,No,English,D,495,0,4,4,180.0,1.0,1.0,802.851,1.0,494.0,15.0,1.10737,0.873182
White,17,Right,19,Male,No,English,D,496,0,8,16,180.0,1.0,1.0,884.581,1.0,495.0,15.0,1.08449,0.995685
White,17,Right,19,Male,No,English,D,497,0,4,0,180.0,1.0,1.0,587.341,1.0,496.0,15.0,1.15213,0.801317
White,17,Right,19,Male,No,English,D,498,0,0,4,0.0,0.0,1.0,703.008,1.0,497.0,15.0,1.03186,0.923333
White,17,Right,19,Male,No,English,D,499,1,0,16,180.0,1.0,1.0,664.125,1.0,498.0,15.0,1.09379,0.91582
White,17,Right,19,Male,No,English,D,500,0,0,16,180.0,1.0,1.0,769.094,1.0,499.0,15.0,1.02714,0.822671
White,17,Right,19,Male,No,English,D,501,1,0,0,0.0,0.0,1.0,819.926,1.0,500.0,15.0,1.08148,0.835972
White,17,Right,19,Male,No,English,D,502,1,8,16,0.0,0.0,1.0,659.035,1.0,501.0,15.0,1.15216,0.915475
White,17,Right,19,Male,No,English,D,503,0,4,8,0.0,0.0,1.0,889.877,1.0,502.0,15.0,1.14235,0.853965
White,17,Right,19,Male,No,English,D,504,1,16,4,0.0,0.0,1.0,727.908,1.0,503.0,15.0,1.19557,0.898916
White,17,Right,19,Male,No,English,D,505,0,16,4,0.0,0.0,1.0,873.486,1.0,504.0,15.0,1.1185,0.83265
White,17,Right,19,Male,No,English,D,506,0,8,8,180.0,1.0,1.0,937.358,1.0,505.0,15.0,1.09707,0.873153
White,17,Right,19,Male,No,English,D,507,1,0,8,0.0,0.0,1.0,886.038,1.0,506.0,15.0,1.1247,0.984923
White,17,Right,19,Male,No,English,D,508,1,4,16,180.0,1.0,1.0,625.6,1.0,507.0,15.0,1.19982,0.946596
White,17,Right,19,Male,No,English,D,509,1,4,8,180.0,1.0,1.0,730.48,1.0,508.0,15.0,1.05175,0.950142
White,17,Right,19,Male,No,English,D,510,0,16,16,0.0,0.0,1.0,931.15,1.0,509.0,15.0,1.12229,0.865566
White,17,Right,19,Male,No,English,D,511,1,8,4,0.0,0.0,1.0,794.763,1.0,510.0,15.0,1.01485,0.851122
White,17,Right,19,Male,No,English,D,512,0,4,16,0.0,0.0,1.0,653.474,1.0,511.0,15.0,1.18328,0.942856
White,17,Right,19,Male,No,English,D,513,1,4,4,0.0,0.0,1.0,736.46,1.0,512.0,16.0,1.07529,0.996936
White,17,Right,19,Male,No,English,D,514,1,16,8,0.0,0.0,1.0,703.599,1.0,513.0,16.0,1.19961,0.865992
White,17,Right,19,Male,No,English,D,515,0,16,8,180.0,1.0,1.0,806.935,1.0,514.0,16.0,1.16958,0.971549
White,17,Right,19,Male,No,English,D,516,0,4,16,180.0,1.0,1.0,1118.35,1.0,515.0,16.0,1.16144,0.940357
White,17,Right,19,Male,No,English,D,517,0,0,4,0.0,0.0,1.0,877.96,1.0,516.0,16.0,1.19008,0.973685
White,17,Right,19,Male,No,English,D,518,1,4,8,180.0,1.0,1.0,1540.61,1.0,517.0,16.0,1.09988,0.945066
White,17,Right,19,Male,No,English,D,519,0,0,0,0.0,0.0,1.0,535.886,1.0,518.0,16.0,1.05611,0.951627
White,17,Right,19,Male,No,English,D,520,1,4,16,0.0,0.0,1.0,1099.79,1.0,519.0,16.0,1.13777,0.89146
White,17,Right,19,Male,No,English,D,521,0,16,0,0.0,0.0,1.0,716.301,1.0,520.0,16.0,1.1575,0.923852
White,17,Right,19,Male,No,English,D,522,0,0,16,180.0,1.0,1.0,477.447,1.0,521.0,16.0,1.12008,0.959234
White,17,Right,19,Male,No,English,D,523,1,0,16,180.0,1.0,1.0,710.429,1.0,522.0,16.0,1.18709,0.95321
White,17,Right,19,Male,No,English,D,524,0,8,16,180.0,1.0,1.0,662.562,1.0,523.0,16.0,1.18909,0.803243
White,17,Right,19,Male,No,English,D,525,0,16,4,0.0,0.0,1.0,793.505,1.0,524.0,16.0,1.07031,0.969329
White,17,Right,19,Male,No,English,D,526,1,8,0,0.0,0.0,1.0,1059.04,1.0,525.0,16.0,1.16313,0.943986
White,17,Right,19,Male,No,English,D,527,1,8,8,0.0,0.0,1.0,1410.25,1.0,526.0,16.0,1.14027,0.918244
White,17,Right,19,Male,No,English,D,528,0,4,0,0.0,0.0,1.0,1257.5,1.0,527.0,16.0,1.02703,0.833559
White,17,Right,19,Male,No,English,D,529,0,8,8,0.0,0.0,1.0,669.315,1.0,528.0,16.0,1.05022,0.831489
White,17,Right,19,Male,No,English,D,530,0,8,0,0.0,0.0,1.0,768.692,1.0,529.0,16.0,1.12533,0.926448
White,17,Right,19,Male,No,English,D,531,0,16,16,180.0,1.0,1.0,649.871,1.0,530.0,16.0,1.19207,0.936204
White,17,Right,19,Male,No,English,D,532,1,4,0,180.0,1.0,1.0,1108.62,1.0,531.0,16.0,1.16889,0.928671
White,17,Right,19,Male,No,English,D,533,0,0,8,0.0,0.0,1.0,844.679,1.0,532.0,16.0,1.17588,0.902283
White,17,Right,19,Male,No,English,D,534,1,0,4,180.0,1.0,1.0,644.232,1.0,533.0,16.0,1.03436,0.848955
White,17,Right,19,Male,No,English,D,535,1,16,4,180.0,1.0,1.0,716.995,1.0,534.0,16.0,1.06823,0.937129
White,17,Right,19,Male,No,English,D,536,1,16,0,180.0,1.0,1.0,1001.06,1.0,535.0,16.0,1.00297,0.900635
White,17,Right,19,Male,No,English,D,537,1,0,8,0.0,0.0,1.0,853.271,1.0,536.0,16.0,1.1897,0.93121
White,17,Right,19,Male,No,English,D,538,1,16,16,180.0,1.0,1.0,776.27,1.0,537.0,16.0,1.07237,0.974681
White,17,Right,19,Male,No,English,D,539,0,4,8,0.0,0.0,1.0,897.349,1.0,538.0,16.0,1.0308,0.978622
White,17,Right,19,Male,No,English,D,540,0,8,4,0.0,0.0,1.0,848.605,1.0,539.0,16.0,1.01528,0.973127
White,17,Right,19,Male,No,English,D,541,1,0,0,180.0,1.0,1.0,665.432,1.0,540.0,16.0,1.17679,0.867286
White,17,Right,19,Male,No,English,D,542,0,4,4,180.0,1.0,1.0,414.866,1.0,541.0,16.0,1.01693,0.91868
White,17,Right,19,Male,No,English,D,543,1,8,4,180.0,1.0,1.0,563.992,1.0,542.0,16.0,1.10603,0.901257
White,17,Right,19,Male,No,English,D,544,1,8,16,180.0,1.0,1.0,606.437,1.0,543.0,16.0,1.04361,0.955495
White,17,Right,19,Male,No,English,D,545,1,8,16,0.0,0.0,1.0,881.405,1.0,544.0,17.0,1.04678,0.974018
White,17,Right,19,Male,No,English,D,546,1,8,0,180.0,1.0,1.0,1085.27,1.0,545.0,17.0,1.00289,0.94248
White,17,Right,19,Male,No,English,D,547,1,16,0,0.0,0.0,1.0,876.139,1.0,546.0,17.0,1.06752,0.941805
White,17,Right,19,Male,No,English,D,548,0,0,8,180.0,1.0,1.0,840.937,1.0,547.0,17.0,1.17523,0.986695
White,17,Right,19,Male,No,English,D,549,0,16,16,0.0,0.0,1.0,811.764,1.0,548.0,17.0,1.09363,0.840074
White,17,Right,19,Male,No,English,D,550,0,8,8,180.0,1.0,1.0,959.075,1.0,549.0,17.0,1.14645,0.930228
White,17,Right,19,Male,No,English,D,551,0,4,0,0.0,0.0,1.0,841.447,1.0,550.0,17.0,1.15546,0.959939
White,17,Right,19,Male,No,English,D,552,0,16,8,0.0,0.0,1.0,1046.14,1.0,551.0,17.0,1.07281,0.80241
White,17,Right,19,Male,No,English,D,553,0,4,8,180.0,1.0,1.0,625.874,1.0,552.0,17.0,1.04455,0.893332
White,17,Right,19,Male,No,English,D,554,0,8,4,180.0,1.0,1.0,1057.56,1.0,553.0,17.0,1.1533,0.948435
White,17,Right,19,Male,No,English,D,555,0,8,16,180.0,1.0,1.0,780.615,1.0,554.0,17.0,1.08104,0.904876
White,17,Right,19,Male,No,English,D,556,1,0,8,0.0,0.0,1.0,669.152,1.0,555.0,17.0,1.07548,0.944194
White,17,Right,19,Male,No,English,D,557,1,0,0,180.0,1.0,1.0,704.578,1.0,556.0,17.0,1.13987,0.812822
White,17,Right,19,Male,No,English,D,558,0,0,4,180.0,1.0,1.0,835.7,1.0,557.0,17.0,1.15013,0.800197
White,17,Right,19,Male,No,English,D,559,1,16,4,0.0,0.0,1.0,791.77,1.0,558.0,17.0,1.03888,0.994375
White,17,Right,19,Male,No,English,D,560,0,0,16,0.0,0.0,1.0,830.356,1.0,559.0,17.0,1.04823,0.829355
White,17,Right,19,Male,No,English,D,561,1,8,8,180.0,1.0,1.0,866.336,1.0,560.0,17.0,1.05376,0.954387
White,17,Right,19,Male,No,English,D,562,1,4,16,0.0,0.0,1.0,575.102,1.0,561.0,17.0,1.1102,0.85301
White,17,Right,19,Male,No,English,D,563,0,4,4,180.0,1.0,1.0,656.801,1.0,562.0,17.0,1.02437,0.932409
White,17,Right,19,Male,No,English,D,564,0,8,0,180.0,1.0,1.0,988.248,1.0,563.0,17.0,1.09364,0.867989
White,17,Right,19,Male,No,English,D,565,1,16,8,180.0,1.0,1.0,1531.66,1.0,564.0,17.0,1.06193,0.951818
White,17,Right,19,Male,No,English,D,566,1,16,16,0.0,0.0,1.0,1395.81,1.0,565.0,17.0,1.17931,0.819972
White,17,Right,19,Male,No,English,D,567,0,16,4,0.0,0.0,1.0,1333.83,1.0,566.0,17.0,1.15967,0.894044
White,17,Right,19,Male,No,English,D,568,0,4,16,180.0,1.0,1.0,897.859,1.0,567.0,17.0,1.17937,0.995045
White,17,Right,19,Male,No,English,D,569,1,4,4,180.0,1.0,1.0,1232.52,1.0,568.0,17.0,1.11669,0.836989
White,17,Right,19,Male,No,English,D,570,0,0,0,0.0,0.0,1.0,735.315,1.0,569.0,17.0,1.15467,0.975433
White,17,Right,19,Male,No,English,D,571,1,0,16,0.0,0.0,1.0,545.912,1.0,570.0,17.0,1.19818,0.816946
White,17,Right,19,Male,No,English,D,572,1,0,4,180.0,1.0,1.0,759.647,1.0,571.0,17.0,1.13138,0.831848
White,17,Right,19,Male,No,English,D,573,1,4,8,0.0,0.0,1.0,1157.14,1.0,572.0,17.0,1.15887,0.817489
White,17,Right,19,Male,No,English,D,574,0,16,0,0.0,0.0,1.0,1053.06,1.0,573.0,17.0,1.13384,0.806785
White,17,Right,19,Male,No,English,D,575,1,8,4,180.0,1.0,1.0,796.186,1.0,574.0,17.0,1.04575,0.810724
White,17,Right,19,Male,No,English,D,576,1,4,0,0.0,0.0,1.0,719.535,1.0,575.0,17.0,1.16445,0.922079
White,17,Right,19,Male,No,English,D,577,0,8,8,180.0,1.0,1.0,846.008,1.0,576.0,18.0,1.03514,0.879211
White,17,Right,19,Male,No,English,D,578,1,8,8,0.0,0.0,1.0,1196.03,1.0,577.0,18.0,1.13489,0.885023
White,17,Right,19,Male,No,English,D,579,0,4,16,180.0,1.0,1.0,678.993,1.0,578.0,18.0,1.02136,0.838072
White,17,Right,19,Male,No,English,D,580,1,4,4,0.0,0.0,1.0,1288.99,1.0,579.0,18.0,1.17772,0.903507
White,17,Right,19,Male,No,English,D,581,0,16,16,180.0,0.0,0.0,604.722,1.0,580.0,18.0,1.13555,0.83207
White,17,Right,19,Male,No,English,D,582,1,4,16,180.0,9999.0,0.0,9999.0,1.0,581.0,18.0,1.13202,0.936072
White,17,Right,19,Male,No,English,D,583,1,0,8,180.0,1.0,1.0,654.625,1.0,582.0,18.0,1.1398,0.848846
White,17,Right,19,Male,No,English,D,584,0,4,4,0.0,0.0,1.0,967.293,1.0,583.0,18.0,1.05878,0.829909
White,17,Right,19,Male,No,English,D,585,1,8,0,0.0,0.0,1.0,662.077,1.0,584.0,18.0,1.05686,0.945013
White,17,Right,19,Male,No,English,D,586,0,16,8,0.0,0.0,1.0,1111.45,1.0,585.0,18.0,1.01555,0.877083
White,17,Right,19,Male,No,English,D,587,0,0,8,180.0,1.0,1.0,800.71,1.0,586.0,18.0,1.08589,0.966635
White,17,Right,19,Male,No,English,D,588,1,16,4,0.0,0.0,1.0,644.002,1.0,587.0,18.0,1.10275,0.960806
White,17,Right,19,Male,No,English,D,589,1,4,8,0.0,0.0,1.0,647.934,1.0,588.0,18.0,1.13716,0.93843
White,17,Right,19,Male,No,English,D,590,0,8,4,0.0,1.0,0.0,862.171,1.0,589.0,18.0,1.02897,0.81454
White,17,Right,19,Male,No,English,D,591,0,4,0,0.0,0.0,1.0,916.762,1.0,590.0,18.0,1.00619,0.982719
White,17,Right,19,Male,No,English,D,592,1,8,16,0.0,0.0,1.0,708.012,1.0,591.0,18.0,1.14178,0.850401
White,17,Right,19,Male,No,English,D,593,0,0,0,180.0,1.0,1.0,674.297,1.0,592.0,18.0,1.02939,0.895314
White,17,Right,19,Male,No,English,D,594,0,0,16,180.0,1.0,1.0,841.753,1.0,593.0,18.0,1.03447,0.89731
White,17,Right,19,Male,No,English,D,595,0,8,16,180.0,1.0,1.0,514.722,1.0,594.0,18.0,1.18584,0.884027
White,17,Right,19,Male,No,English,D,596,0,16,0,0.0,0.0,1.0,1156.15,1.0,595.0,18.0,1.08057,0.913591
White,17,Right,19,Male,No,English,D,597,1,16,0,180.0,1.0,1.0,807.83,1.0,596.0,18.0,1.18535,0.87583
White,17,Right,19,Male,No,English,D,598,1,0,4,0.0,0.0,1.0,771.603,1.0,597.0,18.0,1.14313,0.942391
White,17,Right,19,Male,No,English,D,599,0,4,8,180.0,1.0,1.0,1022.73,1.0,598.0,18.0,1.08258,0.82325
White,17,Right,19,Male,No,English,D,600,1,16,8,180.0,1.0,1.0,1170.34,1.0,599.0,18.0,1.05495,0.88978
White,17,Right,19,Male,No,English,D,601,1,8,4,180.0,1.0,1.0,491.303,1.0,600.0,18.0,1.16112,0.862111
White,17,Right,19,Male,No,English,D,602,0,8,0,180.0,1.0,1.0,786.399,1.0,601.0,18.0,1.02495,0.846543
White,17,Right,19,Male,No,English,D,603,1,0,0,180.0,1.0,1.0,653.632,1.0,602.0,18.0,1.09108,0.928904
White,17,Right,19,Male,No,English,D,604,0,0,4,0.0,0.0,1.0,509.141,1.0,603.0,18.0,1.1957,0.827924
White,17,Right,19,Male,No,English,D,605,1,0,16,0.0,0.0,1.0,515.146,1.0,604.0,18.0,1.07519,0.884747
White,17,Right,19,Male,No,English,D,606,0,16,4,0.0,0.0,1.0,1057.51,1.0,605.0,18.0,1.02649,0.94546
White,17,Right,19,Male,No,English,D,607,1,16,16,0.0,0.0,1.0,1292.36,1.0,606.0,18.0,1.02023,0.904137
White,17,Right,19,Male,No,English,D,608,1,4,0,180.0,1.0,1.0,777.486,1.0,607.0,18.0,1.00055,0.821482
White,17,Right,19,Male,No,English,D,609,1,0,4,0.0,0.0,1.0,823.214,1.0,608.0,19.0,1.05278,0.837444
White,17,Right,19,Male,No,English,D,610,1,4,0,0.0,0.0,1.0,509.069,1.0,609.0,19.0,1.01479,0.910696
White,17,Right,19,Male,No,English,D,611,1,0,16,0.0,0.0,1.0,581.921,1.0,610.0,19.0,1.00108,0.848656
White,17,Right,19,Male,No,English,D,612,1,0,0,0.0,0.0,1.0,548.68,1.0,611.0,19.0,1.08666,0.942655
White,17,Right,19,Male,No,English,D,613,1,8,16,180.0,1.0,1.0,786.245,1.0,612.0,19.0,1.07056,0.861909
White,17,Right,19,Male,No,English,D,614,1,8,4,0.0,0.0,1.0,672.954,1.0,613.0,19.0,1.10659,0.801055
White,17,Right,19,Male,No,English,D,615,1,4,16,0.0,0.0,1.0,677.726,1.0,614.0,19.0,1.00365,0.933238
White,17,Right,19,Male,No,English,D,616,1,0,8,0.0,0.0,1.0,569.046,1.0,615.0,19.0,1.14822,0.820284
White,17,Right,19,Male,No,English,D,617,0,16,0,180.0,1.0,1.0,694.085,1.0,616.0,19.0,1.17053,0.865771
White,17,Right,19,Male,No,English,D,618,1,8,0,0.0,0.0,1.0,868.583,1.0,617.0,19.0,1.15824,0.944195
White,17,Right,19,Male,No,English,D,619,1,8,8,180.0,1.0,1.0,997.011,1.0,618.0,19.0,1.028,0.970117
White,17,Right,19,Male,No,English,D,620,0,0,8,0.0,1.0,0.0,548.002,1.0,619.0,19.0,1.07255,0.947264
White,17,Right,19,Male,No,English,D,621,0,4,16,180.0,1.0,1.0,1050.16,1.0,620.0,19.0,1.09696,0.866724
White,17,Right,19,Male,No,English,D,622,1,4,8,180.0,1.0,1.0,836.682,1.0,621.0,19.0,1.14642,0.802817
White,17,Right,19,Male,No,English,D,623,0,8,8,0.0,0.0,1.0,686.532,1.0,622.0,19.0,1.17796,0.942163
White,17,Right,19,Male,No,English,D,624,0,8,4,0.0,0.0,1.0,761.545,1.0,623.0,19.0,1.17753,0.815803
White,17,Right,19,Male,No,English,D,625,0,16,16,180.0,1.0,1.0,692.247,1.0,624.0,19.0,1.14968,0.862001
White,17,Right,19,Male,No,English,D,626,1,4,4,180.0,1.0,1.0,853.633,1.0,625.0,19.0,1.02068,0.806424
White,17,Right,19,Male,No,English,D,627,0,4,4,0.0,0.0,1.0,909.444,1.0,626.0,19.0,1.07822,0.954893
White,17,Right,19,Male,No,English,D,628,0,0,0,0.0,0.0,1.0,605.934,1.0,627.0,19.0,1.16343,0.926056
White,17,Right,19,Male,No,English,D,629,1,16,0,180.0,1.0,1.0,800.588,1.0,628.0,19.0,1.19175,0.899495
White,17,Right,19,Male,No,English,D,630,0,16,4,180.0,1.0,1.0,762.694,1.0,629.0,19.0,1.00273,0.886017
White,17,Right,19,Male,No,English,D,631,1,16,4,180.0,1.0,1.0,922.343,1.0,630.0,19.0,1.11698,0.889016
White,17,Right,19,Male,No,English,D,632,0,8,16,180.0,1.0,1.0,1086.27,1.0,631.0,19.0,1.00364,0.96613
White,17,Right,19,Male,No,English,D,633,1,16,16,180.0,1.0,1.0,747.99,1.0,632.0,19.0,1.11965,0.860436
White,17,Right,19,Male,No,English,D,634,0,8,0,0.0,0.0,1.0,780.723,1.0,633.0,19.0,1.10067,0.856527
White,17,Right,19,Male,No,English,D,635,0,0,16,180.0,1.0,1.0,628.68,1.0,634.0,19.0,1.1039,0.895031
White,17,Right,19,Male,No,English,D,636,0,0,4,180.0,1.0,1.0,749.991,1.0,635.0,19.0,1.14042,0.928331
White,17,Right,19,Male,No,English,D,637,0,16,8,180.0,1.0,1.0,913.518,1.0,636.0,19.0,1.02818,0.847662
White,17,Right,19,Male,No,English,D,638,0,4,0,0.0,0.0,1.0,870.181,1.0,637.0,19.0,1.11489,0.931486
White,17,Right,19,Male,No,English,D,639,1,16,8,0.0,0.0,1.0,1197.61,1.0,638.0,19.0,1.0895,0.853887
White,17,Right,19,Male,No,English,D,640,0,4,8,180.0,1.0,1.0,738.178,1.0,639.0,19.0,1.04986,0.816982
White,17,Right,19,Male,No,English,D,641,0,8,8,180.0,1.0,1.0,494.614,1.0,640.0,20.0,1.00612,0.814512
White,17,Right,19,Male,No,English,D,642,1,8,8,180.0,1.0,1.0,550.127,1.0,641.0,20.0,1.05487,0.85201
White,17,Right,19,Male,No,English,D,643,1,8,16,180.0,1.0,1.0,701.328,1.0,642.0,20.0,1.19864,0.820608
White,17,Right,19,Male,No,English,D,644,0,4,0,0.0,0.0,1.0,777.377,1.0,643.0,20.0,1.04573,0.852115
White,17,Right,19,Male,No,English,D,645,1,0,0,0.0,0.0,1.0,972.498,1.0,644.0,20.0,1.08485,0.876016
White,17,Right,19,Male,No,English,D,646,1,8,0,180.0,1.0,1.0,924.246,1.0,645.0,20.0,1.14363,0.912175
White,17,Right,19,Male,No,English,D,647,1,16,0,0.0,0.0,1.0,814.116,1.0,646.0,20.0,1.19334,0.859881
White,17,Right,19,Male,No,English,D,648,0,8,4,180.0,1.0,1.0,886.745,1.0,647.0,20.0,1.00458,0.811269
White,17,Right,19,Male,No,English,D,649,0,8,0,180.0,1.0,1.0,765.659,1.0,648.0,20.0,1.05863,0.993286
White,17,Right,19,Male,No,English,D,650,0,4,8,0.0,0.0,1.0,1462.54,1.0,649.0,20.0,1.07976,0.993225
White,17,Right,19,Male,No,English,D,651,0,16,8,0.0,0.0,1.0,799.769,1.0,650.0,20.0,1.18988,0.88263
White,17,Right,19,Male,No,English,D,652,0,4,4,0.0,0.0,1.0,629.311,1.0,651.0,20.0,1.10445,0.96921
White,17,Right,19,Male,No,English,D,653,0,16,0,0.0,0.0,1.0,859.402,1.0,652.0,20.0,1.13424,0.963638
White,17,Right,19,Male,No,English,D,654,1,16,16,180.0,1.0,1.0,1042.65,1.0,653.0,20.0,1.00012,0.888577
White,17,Right,19,Male,No,English,D,655,1,4,0,180.0,1.0,1.0,909.832,1.0,654.0,20.0,1.14733,0.852525
White,17,Right,19,Male,No,English,D,656,0,0,16,0.0,0.0,1.0,934.853,1.0,655.0,20.0,1.0182,0.976717
White,17,Right,19,Male,No,English,D,657,0,16,16,0.0,0.0,1.0,808.823,1.0,656.0,20.0,1.14306,0.923521
White,17,Right,19,Male,No,English,D,658,0,8,16,180.0,1.0,1.0,848.046,1.0,657.0,20.0,1.03665,0.87709
White,17,Right,19,Male,No,English,D,659,1,4,4,0.0,0.0,1.0,1226.03,1.0,658.0,20.0,1.07137,0.937508
White,17,Right,19,Male,No,English,D,660,0,0,8,0.0,0.0,1.0,828.962,1.0,659.0,20.0,1.08796,0.977667
White,17,Right,19,Male,No,English,D,661,0,0,0,0.0,0.0,1.0,594.488,1.0,660.0,20.0,1.1903,0.808288
White,17,Right,19,Male,No,English,D,662,1,0,16,180.0,1.0,1.0,661.531,1.0,661.0,20.0,1.09185,0.949773
White,17,Right,19,Male,No,English,D,663,1,4,16,180.0,1.0,1.0,729.919,1.0,662.0,20.0,1.04795,0.94287
White,17,Right,19,Male,No,English,D,664,0,0,4,0.0,0.0,1.0,665.764,1.0,663.0,20.0,1.0038,0.853148
White,17,Right,19,Male,No,English,D,665,0,4,16,180.0,1.0,1.0,573.755,1.0,664.0,20.0,1.07291,0.961203
White,17,Right,19,Male,No,English,D,666,1,0,8,0.0,0.0,1.0,913.019,1.0,665.0,20.0,1.16724,0.892273
White,17,Right,19,Male,No,English,D,667,1,4,8,0.0,0.0,1.0,716.181,1.0,666.0,20.0,1.10283,0.956715
White,17,Right,19,Male,No,English,D,668,1,0,4,0.0,0.0,1.0,974.893,1.0,667.0,20.0,1.01758,0.802171
White,17,Right,19,Male,No,English,D,669,0,16,4,180.0,1.0,1.0,1073.19,1.0,668.0,20.0,1.00819,0.896617
White,17,Right,19,Male,No,English,D,670,1,16,8,180.0,1.0,1.0,816.674,1.0,669.0,20.0,1.10952,0.953692
White,17,Right,19,Male,No,English,D,671,1,16,4,180.0,1.0,1.0,1063.39,1.0,670.0,20.0,1.16108,0.890554
White,17,Right,19,Male,No,English,D,672,1,8,4,180.0,1.0,1.0,1078.33,1.0,671.0,20.0,1.07531,0.813575
White,17,Right,19,Male,No,English,D,673,1,0,16,180.0,1.0,1.0,868.013,1.0,672.0,21.0,1.06506,0.964931
White,17,Right,19,Male,No,English,D,674,1,16,4,180.0,1.0,1.0,657.089,1.0,673.0,21.0,1.0391,0.952675
White,17,Right,19,Male,No,English,D,675,0,8,4,180.0,1.0,1.0,885.527,1.0,674.0,21.0,1.16734,0.901375
White,17,Right,19,Male,No,English,D,676,0,0,0,180.0,1.0,1.0,667.637,1.0,675.0,21.0,1.19591,0.84117
White,17,Right,19,Male,No,English,D,677,1,8,4,180.0,1.0,1.0,986.559,1.0,676.0,21.0,1.11536,0.826997
White,17,Right,19,Male,No,English,D,678,0,0,16,0.0,0.0,1.0,901.497,1.0,677.0,21.0,1.09466,0.826193
White,17,Right,19,Male,No,English,D,679,0,4,4,180.0,1.0,1.0,1023.23,1.0,678.0,21.0,1.02715,0.921156
White,17,Right,19,Male,No,English,D,680,0,8,0,180.0,1.0,1.0,701.942,1.0,679.0,21.0,1.13274,0.819577
White,17,Right,19,Male,No,English,D,681,1,0,4,0.0,0.0,1.0,493.928,1.0,680.0,21.0,1.09137,0.846889
White,17,Right,19,Male,No,English,D,682,0,16,4,0.0,0.0,1.0,948.1,1.0,681.0,21.0,1.04115,0.801918
White,17,Right,19,Male,No,English,D,683,0,16,16,0.0,0.0,1.0,1120.43,1.0,682.0,21.0,1.00955,0.894081
White,17,Right,19,Male,No,English,D,684,0,8,8,0.0,0.0,1.0,659.427,1.0,683.0,21.0,1.09192,0.954155
White,17,Right,19,Male,No,English,D,685,1,4,16,180.0,1.0,1.0,598.277,1.0,684.0,21.0,1.009,0.859577
White,17,Right,19,Male,No,English,D,686,0,4,16,0.0,0.0,1.0,808.154,1.0,685.0,21.0,1.109,0.862274
White,17,Right,19,Male,No,English,D,687,1,8,0,0.0,0.0,1.0,704.442,1.0,686.0,21.0,1.17074,0.886132
White,17,Right,19,Male,No,English,D,688,1,16,8,0.0,0.0,1.0,709.905,1.0,687.0,21.0,1.07876,0.863843
White,17,Right,19,Male,No,English,D,689,0,8,16,0.0,0.0,1.0,729.951,1.0,688.0,21.0,1.04314,0.930783
White,17,Right,19,Male,No,English,D,690,1,16,16,180.0,1.0,1.0,725.555,1.0,689.0,21.0,1.01311,0.872901
White,17,Right,19,Male,No,English,D,691,0,0,4,180.0,1.0,1.0,615.695,1.0,690.0,21.0,1.11348,0.905629
White,17,Right,19,Male,No,English,D,692,1,4,8,0.0,0.0,1.0,836.939,1.0,691.0,21.0,1.12066,0.912353
White,17,Right,19,Male,No,English,D,693,1,0,8,0.0,0.0,1.0,1111.06,1.0,692.0,21.0,1.00696,0.874011
White,17,Right,19,Male,No,English,D,694,1,8,16,180.0,1.0,1.0,643.566,1.0,693.0,21.0,1.10092,0.88193
White,17,Right,19,Male,No,English,D,695,1,8,8,180.0,1.0,1.0,770.092,1.0,694.0,21.0,1.05478,0.862565
White,17,Right,19,Male,No,English,D,696,1,4,0,0.0,0.0,1.0,759.006,1.0,695.0,21.0,1.08431,0.816146
White,17,Right,19,Male,No,English,D,697,1,16,0,0.0,0.0,1.0,755.749,1.0,696.0,21.0,1.07738,0.874245
White,17,Right,19,Male,No,English,D,698,0,4,8,180.0,1.0,1.0,782.86,1.0,697.0,21.0,1.0591,0.947068
White,17,Right,19,Male,No,English,D,699,0,4,0,180.0,1.0,1.0,643.554,1.0,698.0,21.0,1.09253,0.880546
White,17,Right,19,Male,No,English,D,700,1,0,0,0.0,0.0,1.0,667.49,1.0,699.0,21.0,1.13993,0.95304
White,17,Right,19,Male,No,English,D,701,0,16,0,180.0,1.0,1.0,619.441,1.0,700.0,21.0,1.19084,0.826705
White,17,Right,19,Male,No,English,D,702,1,4,4,0.0,0.0,1.0,938.064,1.0,701.0,21.0,1.02659,0.85222
White,17,Right,19,Male,No,English,D,703,0,0,8,180.0,1.0,1.0,678.688,1.0,702.0,21.0,1.00505,0.95313
White,17,Right,19,Male,No,English,D,704,0,16,8,0.0,0.0,1.0,1038.46,1.0,703.0,21.0,1.16429,0.832749
White,17,Right,19,Male,No,English,D,705,1,4,4,0.0,0.0,1.0,758.653,1.0,704.0,22.0,1.09606,0.887008
White,17,Right,19,Male,No,English,D,706,1,8,16,0.0,0.0,1.0,988.129,1.0,705.0,22.0,1.12405,0.838068
White,17,Right,19,Male,No,English,D,707,1,8,8,0.0,0.0,1.0,774.659,1.0,706.0,22.0,1.02587,0.843809
White,17,Right,19,Male,No,English,D,708,0,0,4,180.0,1.0,1.0,908.855,1.0,707.0,22.0,1.01967,0.838761
White,17,Right,19,Male,No,English,D,709,1,8,4,180.0,1.0,1.0,1036.8,1.0,708.0,22.0,1.07231,0.901012
White,17,Right,19,Male,No,English,D,710,0,4,16,180.0,1.0,1.0,1223.75,1.0,709.0,22.0,1.1775,0.913894
White,17,Right,19,Male,No,English,D,711,0,4,4,0.0,0.0,1.0,888.761,1.0,710.0,22.0,1.17241,0.925819
White,17,Right,19,Male,No,English,D,712,0,8,0,180.0,1.0,1.0,698.089,1.0,711.0,22.0,1.19979,0.888954
White,17,Right,19,Male,No,English,D,713,1,0,8,180.0,1.0,1.0,661.779,1.0,712.0,22.0,1.10567,0.967574
White,17,Right,19,Male,No,English,D,714,1,0,4,0.0,0.0,1.0,713.892,1.0,713.0,22.0,1.02403,0.824174
White,17,Right,19,Male,No,English,D,715,1,4,16,0.0,0.0,1.0,734.937,1.0,714.0,22.0,1.19071,0.840173
White,17,Right,19,Male,No,English,D,716,0,0,16,0.0,0.0,1.0,572.863,1.0,715.0,22.0,1.03102,0.954276
White,17,Right,19,Male,No,English,D,717,0,0,0,180.0,1.0,1.0,655.703,1.0,716.0,22.0,1.19088,0.885197
White,17,Right,19,Male,No,English,D,718,1,16,0,0.0,0.0,1.0,853.693,1.0,717.0,22.0,1.0942,0.9387
White,17,Right,19,Male,No,English,D,719,0,4,8,0.0,0.0,1.0,816.444,1.0,718.0,22.0,1.0906,0.822738
White,17,Right,19,Male,No,English,D,720,0,16,8,180.0,1.0,1.0,850.188,1.0,719.0,22.0,1.1063,0.805648
White,17,Right,19,Male,No,English,D,721,1,16,4,0.0,0.0,1.0,981.165,1.0,720.0,22.0,1.19285,0.869116
White,17,Right,19,Male,No,English,D,722,1,4,8,180.0,1.0,1.0,668.591,1.0,721.0,22.0,1.18629,0.931873
White,17,Right,19,Male,No,English,D,723,0,0,8,180.0,1.0,1.0,641.394,1.0,722.0,22.0,1.08673,0.921859
White,17,Right,19,Male,No,English,D,724,1,0,16,180.0,1.0,1.0,498.079,1.0,723.0,22.0,1.02696,0.844423
White,17,Right,19,Male,No,English,D,725,0,8,8,0.0,0.0,1.0,706.827,1.0,724.0,22.0,1.02115,0.995831
White,17,Right,19,Male,No,English,D,726,1,16,8,0.0,0.0,1.0,896.75,1.0,725.0,22.0,1.15589,0.930304
White,17,Right,19,Male,No,English,D,727,0,16,16,180.0,1.0,1.0,756.879,1.0,726.0,22.0,1.15089,0.961483
White,17,Right,19,Male,No,English,D,728,0,16,0,180.0,1.0,1.0,1078.09,1.0,727.0,22.0,1.12394,0.989979
White,17,Right,19,Male,No,English,D,729,0,8,16,180.0,1.0,1.0,692.736,1.0,728.0,22.0,1.18408,0.809579
White,17,Right,19,Male,No,English,D,730,1,16,16,0.0,0.0,1.0,796.502,1.0,729.0,22.0,1.00953,0.826674
White,17,Right,19,Male,No,English,D,731,0,16,4,180.0,1.0,1.0,651.733,1.0,730.0,22.0,1.02186,0.837389
White,17,Right,19,Male,No,English,D,732,0,4,0,180.0,1.0,1.0,745.622,1.0,731.0,22.0,1.19143,0.814388
White,17,Right,19,Male,No,English,D,733,1,4,0,0.0,0.0,1.0,706.492,1.0,732.0,22.0,1.13042,0.947828
White,17,Right,19,Male,No,English,D,734,1,0,0,180.0,1.0,1.0,874.418,1.0,733.0,22.0,1.0344,0.995761
White,17,Right,19,Male,No,English,D,735,0,8,4,0.0,0.0,1.0,820.055,1.0,734.0,22.0,1.19956,0.800618
White,17,Right,19,Male,No,English,D,736,1,8,0,0.0,0.0,1.0,826.055,1.0,735.0,22.0,1.07289,0.91301
White,17,Right,19,Male,No,English,D,737,0,0,4,180.0,0.0,0.0,509.349,1.0,736.0,23.0,1.1119,0.843965
White,17,Right,19,Male,No,English,D,738,0,4,16,180.0,1.0,1.0,633.565,1.0,737.0,23.0,1.06305,0.941762
White,17,Right,19,Male,No,English,D,739,1,4,8,0.0,0.0,1.0,757.544,1.0,738.0,23.0,1.0803,0.915956
White,17,Right,19,Male,No,English,D,740,0,4,0,180.0,1.0,1.0,964.667,1.0,739.0,23.0,1.04575,0.905363
White,17,Right,19,Male,No,English,D,741,1,8,0,180.0,1.0,1.0,705.867,1.0,740.0,23.0,1.00616,0.940964
White,17,Right,19,Male,No,English,D,742,1,8,8,180.0,1.0,1.0,1120.47,1.0,741.0,23.0,1.02796,0.848098
White,17,Right,19,Male,No,English,D,743,0,8,8,0.0,0.0,1.0,868.975,1.0,742.0,23.0,1.19618,0.808574
White,17,Right,19,Male,No,English,D,744,1,0,8,180.0,1.0,1.0,545.834,1.0,743.0,23.0,1.11595,0.964093
White,17,Right,19,Male,No,English,D,745,1,16,16,0.0,0.0,1.0,961.227,1.0,744.0,23.0,1.13121,0.821659
White,17,Right,19,Male,No,English,D,746,0,0,8,0.0,0.0,1.0,634.418,1.0,745.0,23.0,1.07536,0.900505
White,17,Right,19,Male,No,English,D,747,0,16,4,0.0,0.0,1.0,1097.5,1.0,746.0,23.0,1.13336,0.81743
White,17,Right,19,Male,No,English,D,748,0,16,16,0.0,0.0,1.0,1068.58,1.0,747.0,23.0,1.06659,0.835556
White,17,Right,19,Male,No,English,D,749,0,16,0,180.0,1.0,1.0,600.13,1.0,748.0,23.0,1.14534,0.872393
White,17,Right,19,Male,No,English,D,750,1,8,16,180.0,1.0,1.0,795.5,1.0,749.0,23.0,1.09455,0.890396
White,17,Right,19,Male,No,English,D,751,1,4,0,0.0,0.0,1.0,886.623,1.0,750.0,23.0,1.10815,0.998025
White,17,Right,19,Male,No,English,D,752,1,0,16,0.0,0.0,1.0,1110.4,1.0,751.0,23.0,1.01407,0.922515
White,17,Right,19,Male,No,English,D,753,0,16,8,0.0,0.0,1.0,1191.19,1.0,752.0,23.0,1.08343,0.82986
White,17,Right,19,Male,No,English,D,754,1,0,0,0.0,0.0,1.0,651.962,1.0,753.0,23.0,1.00646,0.89368
White,17,Right,19,Male,No,English,D,755,0,0,0,0.0,0.0,1.0,703.007,1.0,754.0,23.0,1.03696,0.880446
White,17,Right,19,Male,No,English,D,756,0,8,4,180.0,1.0,1.0,844.014,1.0,755.0,23.0,1.06938,0.849993
White,17,Right,19,Male,No,English,D,757,1,16,4,0.0,0.0,1.0,777.783,1.0,756.0,23.0,1.0072,0.865782
White,17,Right,19,Male,No,English,D,758,1,16,0,180.0,1.0,1.0,1024.11,1.0,757.0,23.0,1.01202,0.91022
White,17,Right,19,Male,No,English,D,759,0,4,4,0.0,0.0,1.0,848.773,1.0,758.0,23.0,1.07689,0.97356
White,17,Right,19,Male,No,English,D,760,1,8,4,180.0,1.0,1.0,1126.91,1.0,759.0,23.0,1.11265,0.961749
White,17,Right,19,Male,No,English,D,761,1,4,4,0.0,0.0,1.0,718.608,1.0,760.0,23.0,1.07896,0.826749
White,17,Right,19,Male,No,English,D,762,0,0,16,180.0,1.0,1.0,572.686,1.0,761.0,23.0,1.17168,0.891377
White,17,Right,19,Male,No,English,D,763,1,16,8,180.0,1.0,1.0,1278.43,1.0,762.0,23.0,1.00265,0.81716
White,17,Right,19,Male,No,English,D,764,0,8,16,180.0,1.0,1.0,1167.07,1.0,763.0,23.0,1.1002,0.968167
White,17,Right,19,Male,No,English,D,765,0,4,8,0.0,0.0,1.0,685.762,1.0,764.0,23.0,1.00148,0.947007
White,17,Right,19,Male,No,English,D,766,1,4,16,0.0,0.0,1.0,641.096,1.0,765.0,23.0,1.04956,0.803244
White,17,Right,19,Male,No,English,D,767,1,0,4,180.0,1.0,1.0,482.739,1.0,766.0,23.0,1.10963,0.934353
White,17,Right,19,Male,No,English,D,768,0,8,0,180.0,1.0,1.0,691.562,1.0,767.0,23.0,1.01333,0.973074
