Ethnicity,Subject Number,Preferred Hand,Age,Gender,Color blind,First Language,Room,TrialNumber,background,turtles,tortoises,target_id,resp,hit,rt,ran,order,block,iti,fix_duration
White,13,Right,18,Female,Yes,English,A,1,0,4,8,0.0,0.0,1.0,861.522,1.0,0.0,0.0,1.11799,0.814405
White,13,Right,18,Female,Yes,English,A,2,0,16,4,0.0,0.0,1.0,770.723,1.0,1.0,0.0,1.15616,0.94278
White,13,Right,18,Female,Yes,English,A,3,1,16,8,180.0,1.0,1.0,762.602,1.0,2.0,0.0,1.07375,0.885242
White,13,Right,18,Female,Yes,English,A,4,1,4,0,0.0,0.0,1.0,484.347,1.0,3.0,0.0,1.1035,0.99207
White,13,Right,18,Female,Yes,English,A,5,1,16,4,0.0,0.0,1.0,339.287,1.0,4.0,0.0,1.19748,0.89017
White,13,Right,18,Female,Yes,English,A,6,1,4,16,180.0,1.0,1.0,532.017,1.0,5.0,0.0,1.13098,0.974866
White,13,Right,18,Female,Yes,English,A,7,1,8,0,0.0,0.0,1.0,596.077,1.0,6.0,0.0,1.01106,0.971974
White,13,Right,18,Female,Yes,English,A,8,1,16,0,180.0,1.0,1.0,822.417,1.0,7.0,0.0,1.15316,0.829813
White,13,Right,18,Female,Yes,English,A,9,0,8,0,180.0,1.0,1.0,861.434,1.0,8.0,0.0,1.08707,0.904489
White,13,Right,18,Female,Yes,English,A,10,0,8,4,0.0,0.0,1.0,586.966,1.0,9.0,0.0,1.08282,0.915213
White,13,Right,18,Female,Yes,English,A,11,1,8,4,0.0,0.0,1.0,955.096,1.0,10.0,0.0,1.11541,0.918996
White,13,Right,18,Female,Yes,English,A,12,0,4,16,180.0,1.0,1.0,666.431,1.0,11.0,0.0,1.18611,0.815736
White,13,Right,18,Female,Yes,English,A,13,1,4,8,0.0,0.0,1.0,653.408,1.0,12.0,0.0,1.0606,0.95079
White,13,Right,18,Female,Yes,English,A,14,1,0,0,0.0,0.0,1.0,442.147,1.0,13.0,0.0,1.01256,0.966144
White,13,Right,18,Female,Yes,English,A,15,1,0,8,0.0,0.0,1.0,698.156,1.0,14.0,0.0,1.02547,0.882687
White,13,Right,18,Female,Yes,English,A,16,1,8,8,180.0,1.0,1.0,783.043,1.0,15.0,0.0,1.06832,0.994765
White,13,Right,18,Female,Yes,English,A,17,0,0,8,180.0,1.0,1.0,859.064,1.0,16.0,0.0,1.09099,0.843211
White,13,Right,18,Female,Yes,English,A,18,1,0,16,0.0,0.0,1.0,685.595,1.0,17.0,0.0,1.19498,0.901084
White,13,Right,18,Female,Yes,English,A,19,0,8,8,180.0,1.0,1.0,834.192,1.0,18.0,0.0,1.17451,0.870488
White,13,Right,18,Female,Yes,English,A,20,1,16,16,0.0,1.0,0.0,757.66,1.0,19.0,0.0,1.04808,0.927293
White,13,Right,18,Female,Yes,English,A,21,1,4,4,180.0,1.0,1.0,714.863,1.0,20.0,0.0,1.04424,0.845743
White,13,Right,18,Female,Yes,English,A,22,0,16,8,180.0,1.0,1.0,713.797,1.0,21.0,0.0,1.17171,0.804219
White,13,Right,18,Female,Yes,English,A,23,0,0,4,0.0,0.0,1.0,794.014,1.0,22.0,0.0,1.07758,0.829627
White,13,Right,18,Female,Yes,English,A,24,0,0,0,180.0,1.0,1.0,773.025,1.0,23.0,0.0,1.08661,0.873636
White,13,Right,18,Female,Yes,English,A,25,0,8,16,0.0,0.0,1.0,658.351,1.0,24.0,0.0,1.07792,0.926456
White,13,Right,18,Female,Yes,English,A,26,0,16,16,0.0,0.0,1.0,674.431,1.0,25.0,0.0,1.18833,0.989624
White,13,Right,18,Female,Yes,English,A,27,1,8,16,180.0,1.0,1.0,743.145,1.0,26.0,0.0,1.03489,0.878879
White,13,Right,18,Female,Yes,English,A,28,0,4,4,180.0,1.0,1.0,937.275,1.0,27.0,0.0,1.05703,0.860881
White,13,Right,18,Female,Yes,English,A,29,1,0,4,0.0,0.0,1.0,565.642,1.0,28.0,0.0,1.19177,0.970901
White,13,Right,18,Female,Yes,English,A,30,0,4,0,180.0,1.0,1.0,715.615,1.0,29.0,0.0,1.09162,0.928076
White,13,Right,18,Female,Yes,English,A,31,0,0,16,180.0,1.0,1.0,720.975,1.0,30.0,0.0,1.17709,0.982554
White,13,Right,18,Female,Yes,English,A,32,0,16,0,180.0,1.0,1.0,664.93,1.0,31.0,0.0,1.06113,0.833803
White,13,Right,18,Female,Yes,English,A,33,1,0,4,0.0,0.0,1.0,612.853,1.0,32.0,1.0,1.09441,0.808321
White,13,Right,18,Female,Yes,English,A,34,0,8,4,180.0,1.0,1.0,560.367,1.0,33.0,1.0,1.17249,0.944413
White,13,Right,18,Female,Yes,English,A,35,0,16,0,180.0,1.0,1.0,831.051,1.0,34.0,1.0,1.13367,0.828295
White,13,Right,18,Female,Yes,English,A,36,0,0,16,0.0,0.0,1.0,638.257,1.0,35.0,1.0,1.11679,0.918484
White,13,Right,18,Female,Yes,English,A,37,0,4,8,0.0,0.0,1.0,815.252,1.0,36.0,1.0,1.11779,0.934579
White,13,Right,18,Female,Yes,English,A,38,1,0,16,0.0,1.0,0.0,705.615,1.0,37.0,1.0,1.02697,0.851526
White,13,Right,18,Female,Yes,English,A,39,0,16,4,0.0,0.0,1.0,591.913,1.0,38.0,1.0,1.17965,0.899053
White,13,Right,18,Female,Yes,English,A,40,1,4,16,180.0,1.0,1.0,523.443,1.0,39.0,1.0,1.06915,0.870337
White,13,Right,18,Female,Yes,English,A,41,1,0,8,180.0,1.0,1.0,699.543,1.0,40.0,1.0,1.05689,0.993313
White,13,Right,18,Female,Yes,English,A,42,0,8,0,0.0,0.0,1.0,807.973,1.0,41.0,1.0,1.17985,0.811738
White,13,Right,18,Female,Yes,English,A,43,1,0,0,0.0,0.0,1.0,672.179,1.0,42.0,1.0,1.19658,0.918149
White,13,Right,18,Female,Yes,English,A,44,1,16,16,0.0,0.0,1.0,580.642,1.0,43.0,1.0,1.02684,0.820062
White,13,Right,18,Female,Yes,English,A,45,0,0,8,180.0,1.0,1.0,747.223,1.0,44.0,1.0,1.18049,0.857048
White,13,Right,18,Female,Yes,English,A,46,0,16,16,180.0,1.0,1.0,1006.49,1.0,45.0,1.0,1.10713,0.85463
White,13,Right,18,Female,Yes,English,A,47,1,16,0,180.0,1.0,1.0,613.821,1.0,46.0,1.0,1.02663,0.925466
White,13,Right,18,Female,Yes,English,A,48,1,16,8,180.0,1.0,1.0,724.431,1.0,47.0,1.0,1.08385,0.955034
White,13,Right,18,Female,Yes,English,A,49,0,4,0,0.0,0.0,1.0,748.101,1.0,48.0,1.0,1.08276,0.913108
White,13,Right,18,Female,Yes,English,A,50,0,16,8,0.0,0.0,1.0,585.817,1.0,49.0,1.0,1.06437,0.878505
White,13,Right,18,Female,Yes,English,A,51,0,8,16,0.0,0.0,1.0,550.067,1.0,50.0,1.0,1.09199,0.820044
White,13,Right,18,Female,Yes,English,A,52,1,16,4,180.0,1.0,1.0,1002.8,1.0,51.0,1.0,1.10899,0.870888
White,13,Right,18,Female,Yes,English,A,53,0,4,16,180.0,1.0,1.0,1058.82,1.0,52.0,1.0,1.07795,0.908608
White,13,Right,18,Female,Yes,English,A,54,0,8,8,180.0,1.0,1.0,670.713,1.0,53.0,1.0,1.19389,0.833181
White,13,Right,18,Female,Yes,English,A,55,0,4,4,0.0,0.0,1.0,908.961,1.0,54.0,1.0,1.04716,0.88407
White,13,Right,18,Female,Yes,English,A,56,1,4,4,0.0,0.0,1.0,852.271,1.0,55.0,1.0,1.08504,0.894699
White,13,Right,18,Female,Yes,English,A,57,1,8,0,180.0,1.0,1.0,613.436,1.0,56.0,1.0,1.0381,0.852468
White,13,Right,18,Female,Yes,English,A,58,1,8,8,180.0,1.0,1.0,933.306,1.0,57.0,1.0,1.1359,0.81345
White,13,Right,18,Female,Yes,English,A,59,1,4,8,0.0,0.0,1.0,584.36,1.0,58.0,1.0,1.03575,0.968869
White,13,Right,18,Female,Yes,English,A,60,0,0,0,180.0,1.0,1.0,603.356,1.0,59.0,1.0,1.10687,0.923569
White,13,Right,18,Female,Yes,English,A,61,0,0,4,180.0,1.0,1.0,697.114,1.0,60.0,1.0,1.18112,0.922935
White,13,Right,18,Female,Yes,English,A,62,1,4,0,180.0,1.0,1.0,616.361,1.0,61.0,1.0,1.0727,0.82157
White,13,Right,18,Female,Yes,English,A,63,1,8,16,0.0,0.0,1.0,1326.77,1.0,62.0,1.0,1.0151,0.854783
White,13,Right,18,Female,Yes,English,A,64,1,8,4,0.0,0.0,1.0,687.554,1.0,63.0,1.0,1.08652,0.87504
White,13,Right,18,Female,Yes,English,A,65,0,4,16,0.0,0.0,1.0,586.46,1.0,64.0,2.0,1.00489,0.996349
White,13,Right,18,Female,Yes,English,A,66,1,16,16,0.0,0.0,1.0,861.11,1.0,65.0,2.0,1.09609,0.905291
White,13,Right,18,Female,Yes,English,A,67,1,4,0,180.0,1.0,1.0,610.277,1.0,66.0,2.0,1.04303,0.836414
White,13,Right,18,Female,Yes,English,A,68,1,0,0,180.0,1.0,1.0,610.502,1.0,67.0,2.0,1.07382,0.893985
White,13,Right,18,Female,Yes,English,A,69,0,4,8,180.0,1.0,1.0,814.58,1.0,68.0,2.0,1.07923,0.897513
White,13,Right,18,Female,Yes,English,A,70,0,8,0,180.0,1.0,1.0,665.411,1.0,69.0,2.0,1.13881,0.941934
White,13,Right,18,Female,Yes,English,A,71,0,16,8,180.0,1.0,1.0,695.557,1.0,70.0,2.0,1.09385,0.926944
White,13,Right,18,Female,Yes,English,A,72,0,4,4,0.0,1.0,0.0,548.498,1.0,71.0,2.0,1.10088,0.981954
White,13,Right,18,Female,Yes,English,A,73,0,16,16,180.0,1.0,1.0,600.662,1.0,72.0,2.0,1.19447,0.828992
White,13,Right,18,Female,Yes,English,A,74,1,4,16,0.0,0.0,1.0,539.986,1.0,73.0,2.0,1.1355,0.840398
White,13,Right,18,Female,Yes,English,A,75,1,4,4,180.0,1.0,1.0,582.055,1.0,74.0,2.0,1.1598,0.962742
White,13,Right,18,Female,Yes,English,A,76,0,0,16,0.0,0.0,1.0,1016.93,1.0,75.0,2.0,1.19469,0.829174
White,13,Right,18,Female,Yes,English,A,77,1,0,4,0.0,0.0,1.0,781.587,1.0,76.0,2.0,1.01933,0.966938
White,13,Right,18,Female,Yes,English,A,78,0,8,16,0.0,0.0,1.0,694.528,1.0,77.0,2.0,1.07368,0.915273
White,13,Right,18,Female,Yes,English,A,79,1,4,8,180.0,1.0,1.0,673.978,1.0,78.0,2.0,1.19162,0.935783
White,13,Right,18,Female,Yes,English,A,80,1,8,4,180.0,1.0,1.0,833.848,1.0,79.0,2.0,1.06853,0.812542
White,13,Right,18,Female,Yes,English,A,81,0,16,4,0.0,0.0,1.0,598.756,1.0,80.0,2.0,1.08225,0.964031
White,13,Right,18,Female,Yes,English,A,82,0,4,0,0.0,0.0,1.0,581.921,1.0,81.0,2.0,1.04596,0.864403
White,13,Right,18,Female,Yes,English,A,83,0,0,8,180.0,1.0,1.0,749.859,1.0,82.0,2.0,1.09239,0.913746
White,13,Right,18,Female,Yes,English,A,84,0,0,0,0.0,0.0,1.0,659.517,1.0,83.0,2.0,1.19963,0.944912
White,13,Right,18,Female,Yes,English,A,85,1,8,16,180.0,1.0,1.0,684.697,1.0,84.0,2.0,1.03397,0.862729
White,13,Right,18,Female,Yes,English,A,86,0,16,0,180.0,1.0,1.0,776.081,1.0,85.0,2.0,1.08204,0.827342
White,13,Right,18,Female,Yes,English,A,87,0,8,4,0.0,0.0,1.0,566.865,1.0,86.0,2.0,1.00709,0.852563
White,13,Right,18,Female,Yes,English,A,88,1,8,0,180.0,1.0,1.0,898.657,1.0,87.0,2.0,1.0165,0.85314
White,13,Right,18,Female,Yes,English,A,89,1,16,8,0.0,0.0,1.0,659.217,1.0,88.0,2.0,1.10806,0.881856
White,13,Right,18,Female,Yes,English,A,90,1,0,8,0.0,0.0,1.0,813.436,1.0,89.0,2.0,1.11745,0.975558
White,13,Right,18,Female,Yes,English,A,91,0,0,4,0.0,0.0,1.0,612.851,1.0,90.0,2.0,1.08197,0.977154
White,13,Right,18,Female,Yes,English,A,92,1,0,16,180.0,1.0,1.0,836.946,1.0,91.0,2.0,1.0514,0.936378
White,13,Right,18,Female,Yes,English,A,93,0,8,8,0.0,0.0,1.0,655.871,1.0,92.0,2.0,1.00005,0.827573
White,13,Right,18,Female,Yes,English,A,94,1,16,0,180.0,1.0,1.0,844.098,1.0,93.0,2.0,1.08395,0.829725
White,13,Right,18,Female,Yes,English,A,95,1,8,8,0.0,0.0,1.0,705.251,1.0,94.0,2.0,1.11996,0.85278
White,13,Right,18,Female,Yes,English,A,96,1,16,4,180.0,1.0,1.0,1092.94,1.0,95.0,2.0,1.00694,0.877772
White,13,Right,18,Female,Yes,English,A,97,0,8,4,180.0,1.0,1.0,967.983,1.0,96.0,3.0,1.0638,0.911851
White,13,Right,18,Female,Yes,English,A,98,0,4,8,0.0,0.0,1.0,488.753,1.0,97.0,3.0,1.07039,0.845722
White,13,Right,18,Female,Yes,English,A,99,0,16,4,0.0,0.0,1.0,485.934,1.0,98.0,3.0,1.12576,0.974906
White,13,Right,18,Female,Yes,English,A,100,1,0,0,0.0,0.0,1.0,516.93,1.0,99.0,3.0,1.05786,0.880138
White,13,Right,18,Female,Yes,English,A,101,0,8,0,180.0,1.0,1.0,632.31,1.0,100.0,3.0,1.02526,0.818139
White,13,Right,18,Female,Yes,English,A,102,0,16,8,180.0,1.0,1.0,1102.98,1.0,101.0,3.0,1.10623,0.843485
White,13,Right,18,Female,Yes,English,A,103,0,4,0,180.0,1.0,1.0,513.752,1.0,102.0,3.0,1.06722,0.874363
White,13,Right,18,Female,Yes,English,A,104,1,16,4,0.0,0.0,1.0,822.112,1.0,103.0,3.0,1.11787,0.813034
White,13,Right,18,Female,Yes,English,A,105,1,8,4,0.0,0.0,1.0,680.836,1.0,104.0,3.0,1.06834,0.972256
White,13,Right,18,Female,Yes,English,A,106,0,8,16,0.0,0.0,1.0,511.288,1.0,105.0,3.0,1.08379,0.944838
White,13,Right,18,Female,Yes,English,A,107,0,0,0,180.0,1.0,1.0,547.358,1.0,106.0,3.0,1.1045,0.852383
White,13,Right,18,Female,Yes,English,A,108,0,4,4,180.0,1.0,1.0,676.943,1.0,107.0,3.0,1.16458,0.959694
White,13,Right,18,Female,Yes,English,A,109,1,0,8,180.0,1.0,1.0,747.037,1.0,108.0,3.0,1.13165,0.95174
White,13,Right,18,Female,Yes,English,A,110,1,16,8,0.0,0.0,1.0,772.73,1.0,109.0,3.0,1.06222,0.830486
White,13,Right,18,Female,Yes,English,A,111,1,0,4,180.0,1.0,1.0,543.289,1.0,110.0,3.0,1.19197,0.831384
White,13,Right,18,Female,Yes,English,A,112,1,8,0,180.0,1.0,1.0,731.442,1.0,111.0,3.0,1.12161,0.805735
White,13,Right,18,Female,Yes,English,A,113,0,0,4,180.0,1.0,1.0,861.51,1.0,112.0,3.0,1.15022,0.994949
White,13,Right,18,Female,Yes,English,A,114,1,0,16,0.0,0.0,1.0,820.198,1.0,113.0,3.0,1.11405,0.910917
White,13,Right,18,Female,Yes,English,A,115,1,4,8,180.0,1.0,1.0,547.027,1.0,114.0,3.0,1.08215,0.899099
White,13,Right,18,Female,Yes,English,A,116,0,0,16,0.0,0.0,1.0,539.387,1.0,115.0,3.0,1.14336,0.953063
White,13,Right,18,Female,Yes,English,A,117,0,8,8,180.0,1.0,1.0,692.588,1.0,116.0,3.0,1.19461,0.838434
White,13,Right,18,Female,Yes,English,A,118,1,16,16,0.0,0.0,1.0,626.966,1.0,117.0,3.0,1.09059,0.999673
White,13,Right,18,Female,Yes,English,A,119,0,0,8,180.0,1.0,1.0,869.221,1.0,118.0,3.0,1.03435,0.888675
White,13,Right,18,Female,Yes,English,A,120,0,16,16,0.0,0.0,1.0,629.791,1.0,119.0,3.0,1.13111,0.981484
White,13,Right,18,Female,Yes,English,A,121,1,8,8,180.0,1.0,1.0,582.289,1.0,120.0,3.0,1.03845,0.979031
White,13,Right,18,Female,Yes,English,A,122,1,4,16,180.0,1.0,1.0,1036.72,1.0,121.0,3.0,1.11043,0.92428
White,13,Right,18,Female,Yes,English,A,123,1,16,0,0.0,0.0,1.0,524.463,1.0,122.0,3.0,1.1773,0.91269
White,13,Right,18,Female,Yes,English,A,124,0,16,0,0.0,0.0,1.0,650.96,1.0,123.0,3.0,1.09503,0.95137
White,13,Right,18,Female,Yes,English,A,125,1,4,4,180.0,0.0,0.0,459.025,1.0,124.0,3.0,1.18181,0.941536
White,13,Right,18,Female,Yes,English,A,126,1,4,0,0.0,0.0,1.0,667.623,1.0,125.0,3.0,1.03666,0.92655
White,13,Right,18,Female,Yes,English,A,127,0,4,16,0.0,0.0,1.0,781.948,1.0,126.0,3.0,1.16881,0.881698
White,13,Right,18,Female,Yes,English,A,128,1,8,16,0.0,0.0,1.0,562.19,1.0,127.0,3.0,1.04756,0.936975
White,13,Right,18,Female,Yes,English,A,129,1,4,4,180.0,1.0,1.0,717.386,1.0,128.0,4.0,1.0064,0.928665
White,13,Right,18,Female,Yes,English,A,130,1,8,16,180.0,1.0,1.0,611.754,1.0,129.0,4.0,1.19334,0.862678
White,13,Right,18,Female,Yes,English,A,131,1,0,8,180.0,1.0,1.0,564.542,1.0,130.0,4.0,1.16157,0.865271
White,13,Right,18,Female,Yes,English,A,132,0,4,8,180.0,1.0,1.0,673.405,1.0,131.0,4.0,1.08424,0.856371
White,13,Right,18,Female,Yes,English,A,133,1,4,0,0.0,0.0,1.0,782.753,1.0,132.0,4.0,1.10733,0.853906
White,13,Right,18,Female,Yes,English,A,134,0,16,4,180.0,1.0,1.0,873.032,1.0,133.0,4.0,1.09135,0.945217
White,13,Right,18,Female,Yes,English,A,135,1,8,8,0.0,0.0,1.0,705.314,1.0,134.0,4.0,1.0943,0.878813
White,13,Right,18,Female,Yes,English,A,136,0,4,4,0.0,0.0,1.0,1017.36,1.0,135.0,4.0,1.19051,0.931679
White,13,Right,18,Female,Yes,English,A,137,0,8,4,0.0,0.0,1.0,634.875,1.0,136.0,4.0,1.19882,0.806704
White,13,Right,18,Female,Yes,English,A,138,1,4,8,180.0,1.0,1.0,582.116,1.0,137.0,4.0,1.06005,0.819407
White,13,Right,18,Female,Yes,English,A,139,1,16,0,0.0,0.0,1.0,915.364,1.0,138.0,4.0,1.19874,0.838822
White,13,Right,18,Female,Yes,English,A,140,0,16,8,0.0,0.0,1.0,603.406,1.0,139.0,4.0,1.13367,0.951042
White,13,Right,18,Female,Yes,English,A,141,0,4,0,180.0,1.0,1.0,725.642,1.0,140.0,4.0,1.05667,0.961045
White,13,Right,18,Female,Yes,English,A,142,0,0,0,180.0,1.0,1.0,646.618,1.0,141.0,4.0,1.04215,0.918284
White,13,Right,18,Female,Yes,English,A,143,0,0,4,0.0,0.0,1.0,797.992,1.0,142.0,4.0,1.11881,0.874941
White,13,Right,18,Female,Yes,English,A,144,0,16,0,180.0,1.0,1.0,880.897,1.0,143.0,4.0,1.12321,0.845973
White,13,Right,18,Female,Yes,English,A,145,0,8,0,180.0,1.0,1.0,687.517,1.0,144.0,4.0,1.0579,0.808264
White,13,Right,18,Female,Yes,English,A,146,1,8,4,0.0,0.0,1.0,1495.75,1.0,145.0,4.0,1.00804,0.949651
White,13,Right,18,Female,Yes,English,A,147,1,0,16,0.0,0.0,1.0,592.491,1.0,146.0,4.0,1.15403,0.913664
White,13,Right,18,Female,Yes,English,A,148,0,0,8,180.0,1.0,1.0,511.785,1.0,147.0,4.0,1.1299,0.99435
White,13,Right,18,Female,Yes,English,A,149,1,8,0,180.0,1.0,1.0,801.496,1.0,148.0,4.0,1.00259,0.984629
White,13,Right,18,Female,Yes,English,A,150,0,0,16,180.0,1.0,1.0,516.426,1.0,149.0,4.0,1.1497,0.959449
White,13,Right,18,Female,Yes,English,A,151,1,4,16,0.0,0.0,1.0,751.941,1.0,150.0,4.0,1.04108,0.975959
White,13,Right,18,Female,Yes,English,A,152,0,4,16,180.0,1.0,1.0,1028.3,1.0,151.0,4.0,1.03105,0.987226
White,13,Right,18,Female,Yes,English,A,153,1,0,4,180.0,1.0,1.0,761.868,1.0,152.0,4.0,1.04237,0.970864
White,13,Right,18,Female,Yes,English,A,154,1,16,16,0.0,0.0,1.0,1002.95,1.0,153.0,4.0,1.13399,0.979333
White,13,Right,18,Female,Yes,English,A,155,1,16,8,0.0,0.0,1.0,698.789,1.0,154.0,4.0,1.17655,0.923932
White,13,Right,18,Female,Yes,English,A,156,0,16,16,0.0,0.0,1.0,657.048,1.0,155.0,4.0,1.05952,0.905384
White,13,Right,18,Female,Yes,English,A,157,1,16,4,0.0,0.0,1.0,946.695,1.0,156.0,4.0,1.02015,0.877299
White,13,Right,18,Female,Yes,English,A,158,1,0,0,180.0,1.0,1.0,564.77,1.0,157.0,4.0,1.09809,0.887071
White,13,Right,18,Female,Yes,English,A,159,0,8,16,0.0,0.0,1.0,1288.96,1.0,158.0,4.0,1.12773,0.811558
White,13,Right,18,Female,Yes,English,A,160,0,8,8,0.0,0.0,1.0,722.202,1.0,159.0,4.0,1.01419,0.876805
White,13,Right,18,Female,Yes,English,A,161,0,8,0,180.0,1.0,1.0,881.924,1.0,160.0,5.0,1.03175,0.830728
White,13,Right,18,Female,Yes,English,A,162,1,16,8,180.0,1.0,1.0,507.936,1.0,161.0,5.0,1.04369,0.909848
White,13,Right,18,Female,Yes,English,A,163,1,8,0,0.0,0.0,1.0,818.549,1.0,162.0,5.0,1.16485,0.872126
White,13,Right,18,Female,Yes,English,A,164,1,4,8,180.0,1.0,1.0,657.243,1.0,163.0,5.0,1.03756,0.936098
White,13,Right,18,Female,Yes,English,A,165,0,0,0,0.0,0.0,1.0,620.479,1.0,164.0,5.0,1.01876,0.806776
White,13,Right,18,Female,Yes,English,A,166,0,0,16,180.0,1.0,1.0,611.706,1.0,165.0,5.0,1.07212,0.867916
White,13,Right,18,Female,Yes,English,A,167,1,8,16,0.0,1.0,0.0,560.538,1.0,166.0,5.0,1.19382,0.916855
White,13,Right,18,Female,Yes,English,A,168,1,4,4,180.0,1.0,1.0,894.082,1.0,167.0,5.0,1.14705,0.921642
White,13,Right,18,Female,Yes,English,A,169,1,8,4,180.0,1.0,1.0,757.37,1.0,168.0,5.0,1.02942,0.811391
White,13,Right,18,Female,Yes,English,A,170,0,8,4,0.0,0.0,1.0,1083.44,1.0,169.0,5.0,1.15224,0.810034
White,13,Right,18,Female,Yes,English,A,171,0,16,0,0.0,0.0,1.0,797.76,1.0,170.0,5.0,1.03889,0.991484
White,13,Right,18,Female,Yes,English,A,172,1,16,16,180.0,1.0,1.0,849.297,1.0,171.0,5.0,1.14153,0.954541
White,13,Right,18,Female,Yes,English,A,173,0,16,4,0.0,0.0,1.0,664.319,1.0,172.0,5.0,1.13189,0.923071
White,13,Right,18,Female,Yes,English,A,174,1,4,0,180.0,1.0,1.0,977.648,1.0,173.0,5.0,1.12556,0.807895
White,13,Right,18,Female,Yes,English,A,175,1,0,4,0.0,0.0,1.0,681.046,1.0,174.0,5.0,1.03438,0.861445
White,13,Right,18,Female,Yes,English,A,176,1,4,16,180.0,1.0,1.0,510.24,1.0,175.0,5.0,1.03388,0.904144
White,13,Right,18,Female,Yes,English,A,177,0,4,4,0.0,0.0,1.0,742.268,1.0,176.0,5.0,1.03606,0.889181
White,13,Right,18,Female,Yes,English,A,178,0,4,8,180.0,1.0,1.0,1023.84,1.0,177.0,5.0,1.09778,0.939161
White,13,Right,18,Female,Yes,English,A,179,1,0,0,180.0,1.0,1.0,627.622,1.0,178.0,5.0,1.1207,0.909106
White,13,Right,18,Female,Yes,English,A,180,0,16,16,0.0,0.0,1.0,1153.95,1.0,179.0,5.0,1.09949,0.829596
White,13,Right,18,Female,Yes,English,A,181,0,16,8,180.0,1.0,1.0,692.442,1.0,180.0,5.0,1.09018,0.879022
White,13,Right,18,Female,Yes,English,A,182,0,0,8,0.0,1.0,0.0,484.819,1.0,181.0,5.0,1.00294,0.817215
White,13,Right,18,Female,Yes,English,A,183,0,0,4,180.0,1.0,1.0,670.737,1.0,182.0,5.0,1.01365,0.849613
White,13,Right,18,Female,Yes,English,A,184,0,8,16,0.0,0.0,1.0,741.594,1.0,183.0,5.0,1.1969,0.877046
White,13,Right,18,Female,Yes,English,A,185,1,0,8,180.0,1.0,1.0,764.974,1.0,184.0,5.0,1.00607,0.964351
White,13,Right,18,Female,Yes,English,A,186,0,8,8,0.0,0.0,1.0,639.122,1.0,185.0,5.0,1.16586,0.860264
White,13,Right,18,Female,Yes,English,A,187,1,8,8,0.0,0.0,1.0,752.69,1.0,186.0,5.0,1.17949,0.836154
White,13,Right,18,Female,Yes,English,A,188,1,0,16,180.0,0.0,0.0,698.042,1.0,187.0,5.0,1.06662,0.868227
White,13,Right,18,Female,Yes,English,A,189,1,16,4,0.0,0.0,1.0,710.998,1.0,188.0,5.0,1.18682,0.905202
White,13,Right,18,Female,Yes,English,A,190,1,16,0,0.0,0.0,1.0,525.973,1.0,189.0,5.0,1.17952,0.832515
White,13,Right,18,Female,Yes,English,A,191,0,4,16,0.0,0.0,1.0,744.51,1.0,190.0,5.0,1.14718,0.944333
White,13,Right,18,Female,Yes,English,A,192,0,4,0,180.0,1.0,1.0,1722.05,1.0,191.0,5.0,1.06861,0.927411
White,13,Right,18,Female,Yes,English,A,193,0,4,8,0.0,0.0,1.0,649.126,1.0,192.0,6.0,1.15528,0.836267
White,13,Right,18,Female,Yes,English,A,194,1,16,16,180.0,1.0,1.0,641.885,1.0,193.0,6.0,1.02332,0.997521
White,13,Right,18,Female,Yes,English,A,195,0,8,16,0.0,0.0,1.0,780.957,1.0,194.0,6.0,1.03749,0.958086
White,13,Right,18,Female,Yes,English,A,196,0,16,4,180.0,1.0,1.0,605.911,1.0,195.0,6.0,1.14772,0.893423
White,13,Right,18,Female,Yes,English,A,197,0,0,4,0.0,0.0,1.0,658.84,1.0,196.0,6.0,1.18088,0.985815
White,13,Right,18,Female,Yes,English,A,198,0,4,0,0.0,0.0,1.0,802.28,1.0,197.0,6.0,1.06438,0.914829
White,13,Right,18,Female,Yes,English,A,199,1,0,16,180.0,1.0,1.0,708.292,1.0,198.0,6.0,1.0161,0.806237
White,13,Right,18,Female,Yes,English,A,200,0,0,0,180.0,1.0,1.0,603.329,1.0,199.0,6.0,1.0626,0.914321
White,13,Right,18,Female,Yes,English,A,201,0,8,0,0.0,0.0,1.0,768.693,1.0,200.0,6.0,1.10354,0.989439
White,13,Right,18,Female,Yes,English,A,202,1,0,8,0.0,0.0,1.0,677.578,1.0,201.0,6.0,1.19065,0.921821
White,13,Right,18,Female,Yes,English,A,203,0,0,16,0.0,0.0,1.0,567.684,1.0,202.0,6.0,1.07223,0.881522
White,13,Right,18,Female,Yes,English,A,204,1,8,8,180.0,1.0,1.0,813.692,1.0,203.0,6.0,1.19941,0.882838
White,13,Right,18,Female,Yes,English,A,205,1,16,8,180.0,1.0,1.0,681.273,1.0,204.0,6.0,1.10192,0.929365
White,13,Right,18,Female,Yes,English,A,206,0,16,8,0.0,0.0,1.0,888.498,1.0,205.0,6.0,1.05143,0.852632
White,13,Right,18,Female,Yes,English,A,207,0,8,8,180.0,1.0,1.0,692.265,1.0,206.0,6.0,1.0864,0.97481
White,13,Right,18,Female,Yes,English,A,208,0,0,8,0.0,0.0,1.0,762.405,1.0,207.0,6.0,1.0923,0.811133
White,13,Right,18,Female,Yes,English,A,209,1,4,0,180.0,1.0,1.0,1019.49,1.0,208.0,6.0,1.12106,0.938113
White,13,Right,18,Female,Yes,English,A,210,1,8,4,0.0,1.0,0.0,513.821,1.0,209.0,6.0,1.00331,0.912003
White,13,Right,18,Female,Yes,English,A,211,1,16,4,180.0,1.0,1.0,969.993,1.0,210.0,6.0,1.00144,0.818152
White,13,Right,18,Female,Yes,English,A,212,0,16,16,180.0,1.0,1.0,1168.33,1.0,211.0,6.0,1.00062,0.958896
White,13,Right,18,Female,Yes,English,A,213,1,8,0,180.0,1.0,1.0,732.393,1.0,212.0,6.0,1.09041,0.970893
White,13,Right,18,Female,Yes,English,A,214,1,4,8,180.0,1.0,1.0,545.79,1.0,213.0,6.0,1.18906,0.941897
White,13,Right,18,Female,Yes,English,A,215,0,8,4,180.0,1.0,1.0,614.004,1.0,214.0,6.0,1.09216,0.963491
White,13,Right,18,Female,Yes,English,A,216,1,4,16,180.0,1.0,1.0,970.901,1.0,215.0,6.0,1.01555,0.812799
White,13,Right,18,Female,Yes,English,A,217,1,4,4,0.0,0.0,1.0,536.914,1.0,216.0,6.0,1.10165,0.899293
White,13,Right,18,Female,Yes,English,A,218,1,8,16,0.0,0.0,1.0,730.506,1.0,217.0,6.0,1.07746,0.965421
White,13,Right,18,Female,Yes,English,A,219,1,0,4,0.0,1.0,0.0,527.992,1.0,218.0,6.0,1.05808,0.900631
White,13,Right,18,Female,Yes,English,A,220,0,4,4,0.0,0.0,1.0,751.936,1.0,219.0,6.0,1.05835,0.936589
White,13,Right,18,Female,Yes,English,A,221,1,16,0,180.0,1.0,1.0,642.48,1.0,220.0,6.0,1.08027,0.827282
White,13,Right,18,Female,Yes,English,A,222,1,0,0,180.0,1.0,1.0,585.533,1.0,221.0,6.0,1.18273,0.927525
White,13,Right,18,Female,Yes,English,A,223,0,4,16,0.0,0.0,1.0,782.419,1.0,222.0,6.0,1.00078,0.961998
White,13,Right,18,Female,Yes,English,A,224,0,16,0,0.0,0.0,1.0,605.689,1.0,223.0,6.0,1.11449,0.895347
White,13,Right,18,Female,Yes,English,A,225,1,8,4,0.0,0.0,1.0,427.537,1.0,224.0,7.0,1.16791,0.913494
White,13,Right,18,Female,Yes,English,A,226,0,0,16,0.0,0.0,1.0,549.308,1.0,225.0,7.0,1.17494,0.870006
White,13,Right,18,Female,Yes,English,A,227,0,0,8,180.0,1.0,1.0,612.96,1.0,226.0,7.0,1.0909,0.907031
White,13,Right,18,Female,Yes,English,A,228,0,8,0,180.0,1.0,1.0,721.962,1.0,227.0,7.0,1.16805,0.935579
White,13,Right,18,Female,Yes,English,A,229,1,16,0,180.0,1.0,1.0,829.273,1.0,228.0,7.0,1.19667,0.912082
White,13,Right,18,Female,Yes,English,A,230,0,4,0,180.0,1.0,1.0,684.004,1.0,229.0,7.0,1.13549,0.903076
White,13,Right,18,Female,Yes,English,A,231,0,16,4,180.0,1.0,1.0,817.427,1.0,230.0,7.0,1.01532,0.879362
White,13,Right,18,Female,Yes,English,A,232,1,8,16,180.0,1.0,1.0,538.558,1.0,231.0,7.0,1.18053,0.944817
White,13,Right,18,Female,Yes,English,A,233,1,0,8,0.0,1.0,0.0,556.984,1.0,232.0,7.0,1.1291,0.834029
White,13,Right,18,Female,Yes,English,A,234,1,0,0,0.0,0.0,1.0,559.904,1.0,233.0,7.0,1.18716,0.898339
White,13,Right,18,Female,Yes,English,A,235,1,4,8,0.0,0.0,1.0,534.449,1.0,234.0,7.0,1.1763,0.919949
White,13,Right,18,Female,Yes,English,A,236,0,0,4,0.0,0.0,1.0,563.524,1.0,235.0,7.0,1.02648,0.887457
White,13,Right,18,Female,Yes,English,A,237,1,0,16,180.0,1.0,1.0,704.29,1.0,236.0,7.0,1.08815,0.867967
White,13,Right,18,Female,Yes,English,A,238,1,16,8,180.0,1.0,1.0,812.137,1.0,237.0,7.0,1.06109,0.961613
White,13,Right,18,Female,Yes,English,A,239,1,16,4,0.0,0.0,1.0,676.829,1.0,238.0,7.0,1.06739,0.872237
White,13,Right,18,Female,Yes,English,A,240,1,0,4,180.0,1.0,1.0,811.197,1.0,239.0,7.0,1.04996,0.865363
White,13,Right,18,Female,Yes,English,A,241,1,4,0,180.0,1.0,1.0,936.786,1.0,240.0,7.0,1.11364,0.912738
White,13,Right,18,Female,Yes,English,A,242,0,8,8,0.0,0.0,1.0,914.556,1.0,241.0,7.0,1.14762,0.812107
White,13,Right,18,Female,Yes,English,A,243,1,4,4,180.0,1.0,1.0,845.039,1.0,242.0,7.0,1.14072,0.858439
White,13,Right,18,Female,Yes,English,A,244,0,4,8,180.0,1.0,1.0,1124.08,1.0,243.0,7.0,1.02086,0.995357
White,13,Right,18,Female,Yes,English,A,245,0,16,8,0.0,0.0,1.0,871.123,1.0,244.0,7.0,1.1054,0.931937
White,13,Right,18,Female,Yes,English,A,246,0,0,0,0.0,0.0,1.0,808.741,1.0,245.0,7.0,1.03387,0.839082
White,13,Right,18,Female,Yes,English,A,247,1,8,0,180.0,1.0,1.0,813.941,1.0,246.0,7.0,1.00952,0.920088
White,13,Right,18,Female,Yes,English,A,248,1,8,8,0.0,0.0,1.0,801.674,1.0,247.0,7.0,1.12694,0.858566
White,13,Right,18,Female,Yes,English,A,249,0,8,16,0.0,0.0,1.0,525.356,1.0,248.0,7.0,1.08863,0.975989
White,13,Right,18,Female,Yes,English,A,250,0,8,4,0.0,0.0,1.0,882.167,1.0,249.0,7.0,1.00532,0.917718
White,13,Right,18,Female,Yes,English,A,251,0,16,16,0.0,0.0,1.0,608.321,1.0,250.0,7.0,1.03619,0.89849
White,13,Right,18,Female,Yes,English,A,252,1,16,16,180.0,1.0,1.0,692.257,1.0,251.0,7.0,1.13419,0.910001
White,13,Right,18,Female,Yes,English,A,253,0,16,0,180.0,1.0,1.0,752.859,1.0,252.0,7.0,1.02702,0.822007
White,13,Right,18,Female,Yes,English,A,254,0,4,4,0.0,0.0,1.0,594.698,1.0,253.0,7.0,1.14988,0.843856
White,13,Right,18,Female,Yes,English,A,255,0,4,16,0.0,0.0,1.0,846.953,1.0,254.0,7.0,1.16017,0.900103
White,13,Right,18,Female,Yes,English,A,256,1,4,16,180.0,1.0,1.0,656.066,1.0,255.0,7.0,1.15805,0.820106
White,13,Right,18,Female,Yes,English,A,257,0,0,16,0.0,0.0,1.0,758.207,1.0,256.0,8.0,1.1587,0.927782
White,13,Right,18,Female,Yes,English,A,258,1,8,0,180.0,0.0,0.0,447.345,1.0,257.0,8.0,1.08403,0.980161
White,13,Right,18,Female,Yes,English,A,259,0,0,0,0.0,0.0,1.0,661.309,1.0,258.0,8.0,1.14643,0.861221
White,13,Right,18,Female,Yes,English,A,260,1,0,8,0.0,0.0,1.0,702.566,1.0,259.0,8.0,1.06432,0.89093
White,13,Right,18,Female,Yes,English,A,261,0,0,4,180.0,1.0,1.0,658.801,1.0,260.0,8.0,1.19151,0.944643
White,13,Right,18,Female,Yes,English,A,262,0,0,8,0.0,0.0,1.0,841.74,1.0,261.0,8.0,1.06725,0.933457
White,13,Right,18,Female,Yes,English,A,263,0,16,8,0.0,0.0,1.0,619.034,1.0,262.0,8.0,1.14833,0.888485
White,13,Right,18,Female,Yes,English,A,264,1,8,8,0.0,0.0,1.0,840.023,1.0,263.0,8.0,1.11798,0.910191
White,13,Right,18,Female,Yes,English,A,265,0,8,16,180.0,1.0,1.0,774.988,1.0,264.0,8.0,1.19693,0.902646
White,13,Right,18,Female,Yes,English,A,266,1,16,0,180.0,1.0,1.0,727.72,1.0,265.0,8.0,1.02744,0.935536
White,13,Right,18,Female,Yes,English,A,267,1,8,4,0.0,0.0,1.0,991.532,1.0,266.0,8.0,1.10559,0.914671
White,13,Right,18,Female,Yes,English,A,268,0,4,0,0.0,0.0,1.0,811.13,1.0,267.0,8.0,1.04306,0.868115
White,13,Right,18,Female,Yes,English,A,269,1,16,8,0.0,0.0,1.0,585.477,1.0,268.0,8.0,1.0705,0.935881
White,13,Right,18,Female,Yes,English,A,270,0,16,0,180.0,1.0,1.0,782.823,1.0,269.0,8.0,1.11132,0.966596
White,13,Right,18,Female,Yes,English,A,271,1,4,4,180.0,1.0,1.0,498.285,1.0,270.0,8.0,1.0025,0.82237
White,13,Right,18,Female,Yes,English,A,272,0,16,16,180.0,1.0,1.0,875.182,1.0,271.0,8.0,1.04244,0.963615
White,13,Right,18,Female,Yes,English,A,273,1,0,4,0.0,0.0,1.0,650.172,1.0,272.0,8.0,1.13953,0.872844
White,13,Right,18,Female,Yes,English,A,274,1,8,16,180.0,1.0,1.0,795.615,1.0,273.0,8.0,1.17325,0.908343
White,13,Right,18,Female,Yes,English,A,275,0,4,8,180.0,1.0,1.0,1354.33,1.0,274.0,8.0,1.02481,0.956606
White,13,Right,18,Female,Yes,English,A,276,0,8,4,180.0,1.0,1.0,1013.41,1.0,275.0,8.0,1.15157,0.803103
White,13,Right,18,Female,Yes,English,A,277,1,4,0,180.0,0.0,0.0,548.907,1.0,276.0,8.0,1.04333,0.947895
White,13,Right,18,Female,Yes,English,A,278,0,16,4,0.0,0.0,1.0,813.767,1.0,277.0,8.0,1.18008,0.82292
White,13,Right,18,Female,Yes,English,A,279,1,16,16,0.0,0.0,1.0,590.664,1.0,278.0,8.0,1.15951,0.826993
White,13,Right,18,Female,Yes,English,A,280,1,4,16,180.0,1.0,1.0,703.179,1.0,279.0,8.0,1.06662,0.991951
White,13,Right,18,Female,Yes,English,A,281,1,4,8,0.0,0.0,1.0,579.514,1.0,280.0,8.0,1.01189,0.833039
White,13,Right,18,Female,Yes,English,A,282,0,4,4,0.0,0.0,1.0,904.908,1.0,281.0,8.0,1.09516,0.809452
White,13,Right,18,Female,Yes,English,A,283,0,4,16,0.0,1.0,0.0,520.224,1.0,282.0,8.0,1.01198,0.977272
White,13,Right,18,Female,Yes,English,A,284,0,8,0,180.0,1.0,1.0,654.643,1.0,283.0,8.0,1.01861,0.874879
White,13,Right,18,Female,Yes,English,A,285,1,0,0,0.0,0.0,1.0,573.882,1.0,284.0,8.0,1.07607,0.98904
White,13,Right,18,Female,Yes,English,A,286,0,8,8,180.0,1.0,1.0,782.031,1.0,285.0,8.0,1.14184,0.924726
White,13,Right,18,Female,Yes,English,A,287,1,16,4,180.0,1.0,1.0,509.31,1.0,286.0,8.0,1.19578,0.908849
White,13,Right,18,Female,Yes,English,A,288,1,0,16,180.0,1.0,1.0,722.124,1.0,287.0,8.0,1.04287,0.914927
White,13,Right,18,Female,Yes,English,A,289,1,16,16,0.0,0.0,1.0,601.363,1.0,288.0,9.0,1.1198,0.819668
White,13,Right,18,Female,Yes,English,A,290,0,16,16,0.0,0.0,1.0,587.808,1.0,289.0,9.0,1.16555,0.966201
White,13,Right,18,Female,Yes,English,A,291,1,8,4,0.0,0.0,1.0,600.971,1.0,290.0,9.0,1.1812,0.879771
White,13,Right,18,Female,Yes,English,A,292,1,16,4,180.0,1.0,1.0,786.663,1.0,291.0,9.0,1.14336,0.920229
White,13,Right,18,Female,Yes,English,A,293,0,4,16,180.0,1.0,1.0,900.316,1.0,292.0,9.0,1.13836,0.972447
White,13,Right,18,Female,Yes,English,A,294,0,8,16,0.0,0.0,1.0,746.79,1.0,293.0,9.0,1.18478,0.866243
White,13,Right,18,Female,Yes,English,A,295,0,0,4,180.0,1.0,1.0,796.145,1.0,294.0,9.0,1.0584,0.882593
White,13,Right,18,Female,Yes,English,A,296,1,0,8,180.0,1.0,1.0,531.076,1.0,295.0,9.0,1.01124,0.882527
White,13,Right,18,Female,Yes,English,A,297,1,0,0,180.0,1.0,1.0,743.283,1.0,296.0,9.0,1.05605,0.80827
White,13,Right,18,Female,Yes,English,A,298,1,4,4,180.0,1.0,1.0,807.214,1.0,297.0,9.0,1.0539,0.93884
White,13,Right,18,Female,Yes,English,A,299,1,4,0,0.0,0.0,1.0,755.108,1.0,298.0,9.0,1.19787,0.92786
White,13,Right,18,Female,Yes,English,A,300,1,8,0,0.0,0.0,1.0,602.701,1.0,299.0,9.0,1.13324,0.865722
White,13,Right,18,Female,Yes,English,A,301,0,16,8,180.0,1.0,1.0,744.804,1.0,300.0,9.0,1.04605,0.835954
White,13,Right,18,Female,Yes,English,A,302,1,16,8,0.0,0.0,1.0,600.884,1.0,301.0,9.0,1.01232,0.820927
White,13,Right,18,Female,Yes,English,A,303,0,4,4,180.0,1.0,1.0,804.121,1.0,302.0,9.0,1.09391,0.876405
White,13,Right,18,Female,Yes,English,A,304,0,4,0,180.0,1.0,1.0,830.286,1.0,303.0,9.0,1.06529,0.84874
White,13,Right,18,Female,Yes,English,A,305,0,16,4,180.0,1.0,1.0,740.018,1.0,304.0,9.0,1.18348,0.968562
White,13,Right,18,Female,Yes,English,A,306,0,8,0,180.0,1.0,1.0,906.438,1.0,305.0,9.0,1.04774,0.832586
White,13,Right,18,Female,Yes,English,A,307,1,16,0,0.0,0.0,1.0,700.924,1.0,306.0,9.0,1.01014,0.935346
White,13,Right,18,Female,Yes,English,A,308,0,0,8,0.0,0.0,1.0,756.769,1.0,307.0,9.0,1.00253,0.922887
White,13,Right,18,Female,Yes,English,A,309,1,8,16,180.0,1.0,1.0,879.353,1.0,308.0,9.0,1.18829,0.832667
White,13,Right,18,Female,Yes,English,A,310,1,4,8,180.0,1.0,1.0,773.871,1.0,309.0,9.0,1.00115,0.99309
White,13,Right,18,Female,Yes,English,A,311,0,4,8,180.0,1.0,1.0,594.519,1.0,310.0,9.0,1.0517,0.980989
White,13,Right,18,Female,Yes,English,A,312,0,16,0,180.0,1.0,1.0,605.585,1.0,311.0,9.0,1.07236,0.981744
White,13,Right,18,Female,Yes,English,A,313,0,8,4,180.0,1.0,1.0,627.717,1.0,312.0,9.0,1.16113,0.911483
White,13,Right,18,Female,Yes,English,A,314,1,8,8,0.0,0.0,1.0,614.469,1.0,313.0,9.0,1.0269,0.879228
White,13,Right,18,Female,Yes,English,A,315,0,8,8,0.0,0.0,1.0,617.437,1.0,314.0,9.0,1.09575,0.824147
White,13,Right,18,Female,Yes,English,A,316,0,0,0,0.0,0.0,1.0,680.545,1.0,315.0,9.0,1.13243,0.926331
White,13,Right,18,Female,Yes,English,A,317,1,4,16,0.0,0.0,1.0,592.998,1.0,316.0,9.0,1.04265,0.875596
White,13,Right,18,Female,Yes,English,A,318,0,0,16,0.0,0.0,1.0,586.269,1.0,317.0,9.0,1.05574,0.8676
White,13,Right,18,Female,Yes,English,A,319,1,0,4,0.0,0.0,1.0,675.784,1.0,318.0,9.0,1.07027,0.819462
White,13,Right,18,Female,Yes,English,A,320,1,0,16,0.0,0.0,1.0,526.165,1.0,319.0,9.0,1.06398,0.997153
White,13,Right,18,Female,Yes,English,A,321,0,16,16,0.0,0.0,1.0,658.699,1.0,320.0,10.0,1.12235,0.80677
White,13,Right,18,Female,Yes,English,A,322,1,4,0,0.0,1.0,0.0,657.929,1.0,321.0,10.0,1.19133,0.815967
White,13,Right,18,Female,Yes,English,A,323,1,4,4,0.0,0.0,1.0,604.039,1.0,322.0,10.0,1.18019,0.991619
White,13,Right,18,Female,Yes,English,A,324,0,16,0,180.0,1.0,1.0,789.186,1.0,323.0,10.0,1.03437,0.952195
White,13,Right,18,Female,Yes,English,A,325,0,8,8,0.0,0.0,1.0,665.179,1.0,324.0,10.0,1.19856,0.996755
White,13,Right,18,Female,Yes,English,A,326,0,4,8,180.0,1.0,1.0,727.634,1.0,325.0,10.0,1.05687,0.89649
White,13,Right,18,Female,Yes,English,A,327,1,8,16,0.0,0.0,1.0,719.412,1.0,326.0,10.0,1.19623,0.821162
White,13,Right,18,Female,Yes,English,A,328,1,8,4,180.0,1.0,1.0,755.574,1.0,327.0,10.0,1.14513,0.833687
White,13,Right,18,Female,Yes,English,A,329,0,16,8,180.0,1.0,1.0,589.122,1.0,328.0,10.0,1.17572,0.937083
White,13,Right,18,Female,Yes,English,A,330,0,4,0,0.0,0.0,1.0,674.037,1.0,329.0,10.0,1.13239,0.969598
White,13,Right,18,Female,Yes,English,A,331,0,0,8,180.0,1.0,1.0,567.674,1.0,330.0,10.0,1.12453,0.809972
White,13,Right,18,Female,Yes,English,A,332,1,8,0,180.0,1.0,1.0,859.787,1.0,331.0,10.0,1.02425,0.903446
White,13,Right,18,Female,Yes,English,A,333,1,4,16,0.0,0.0,1.0,584.394,1.0,332.0,10.0,1.05973,0.912465
White,13,Right,18,Female,Yes,English,A,334,1,16,8,180.0,1.0,1.0,743.959,1.0,333.0,10.0,1.02023,0.959992
White,13,Right,18,Female,Yes,English,A,335,1,0,16,0.0,0.0,1.0,670.416,1.0,334.0,10.0,1.16848,0.933784
White,13,Right,18,Female,Yes,English,A,336,1,0,4,0.0,0.0,1.0,563.497,1.0,335.0,10.0,1.10026,0.805197
White,13,Right,18,Female,Yes,English,A,337,0,4,16,0.0,0.0,1.0,709.694,1.0,336.0,10.0,1.13574,0.811833
White,13,Right,18,Female,Yes,English,A,338,0,4,4,180.0,1.0,1.0,1039.85,1.0,337.0,10.0,1.03278,0.801117
White,13,Right,18,Female,Yes,English,A,339,1,16,0,0.0,0.0,1.0,789.406,1.0,338.0,10.0,1.02206,0.900437
White,13,Right,18,Female,Yes,English,A,340,1,16,16,180.0,1.0,1.0,736.335,1.0,339.0,10.0,1.00623,0.892162
White,13,Right,18,Female,Yes,English,A,341,0,16,4,180.0,1.0,1.0,986.213,1.0,340.0,10.0,1.10395,0.876204
White,13,Right,18,Female,Yes,English,A,342,0,8,16,180.0,1.0,1.0,791.229,1.0,341.0,10.0,1.16532,0.93462
White,13,Right,18,Female,Yes,English,A,343,1,16,4,180.0,1.0,1.0,934.842,1.0,342.0,10.0,1.14762,0.836342
White,13,Right,18,Female,Yes,English,A,344,0,0,4,0.0,0.0,1.0,828.434,1.0,343.0,10.0,1.0174,0.940713
White,13,Right,18,Female,Yes,English,A,345,1,0,8,0.0,0.0,1.0,688.338,1.0,344.0,10.0,1.00791,0.891336
White,13,Right,18,Female,Yes,English,A,346,0,0,0,0.0,0.0,1.0,780.114,1.0,345.0,10.0,1.06404,0.990761
White,13,Right,18,Female,Yes,English,A,347,1,8,8,180.0,1.0,1.0,731.449,1.0,346.0,10.0,1.13225,0.947528
White,13,Right,18,Female,Yes,English,A,348,1,4,8,0.0,0.0,1.0,695.045,1.0,347.0,10.0,1.04912,0.946664
White,13,Right,18,Female,Yes,English,A,349,0,8,4,180.0,1.0,1.0,1097.84,1.0,348.0,10.0,1.18749,0.928947
White,13,Right,18,Female,Yes,English,A,350,0,0,16,0.0,0.0,1.0,817.929,1.0,349.0,10.0,1.0357,0.884568
White,13,Right,18,Female,Yes,English,A,351,0,8,0,180.0,1.0,1.0,647.284,1.0,350.0,10.0,1.04962,0.902341
White,13,Right,18,Female,Yes,English,A,352,1,0,0,180.0,1.0,1.0,549.276,1.0,351.0,10.0,1.15236,0.839262
White,13,Right,18,Female,Yes,English,A,353,1,4,16,180.0,1.0,1.0,1157.03,1.0,352.0,11.0,1.10291,0.955301
White,13,Right,18,Female,Yes,English,A,354,1,4,4,0.0,0.0,1.0,623.559,1.0,353.0,11.0,1.04908,0.808868
White,13,Right,18,Female,Yes,English,A,355,0,4,16,0.0,0.0,1.0,701.066,1.0,354.0,11.0,1.17871,0.813901
White,13,Right,18,Female,Yes,English,A,356,0,4,0,0.0,0.0,1.0,698.934,1.0,355.0,11.0,1.09792,0.909121
White,13,Right,18,Female,Yes,English,A,357,1,16,8,180.0,1.0,1.0,675.937,1.0,356.0,11.0,1.13426,0.874243
White,13,Right,18,Female,Yes,English,A,358,0,8,4,0.0,0.0,1.0,1066.46,1.0,357.0,11.0,1.0316,0.85001
White,13,Right,18,Female,Yes,English,A,359,1,8,4,180.0,1.0,1.0,1056.22,1.0,358.0,11.0,1.13796,0.983338
White,13,Right,18,Female,Yes,English,A,360,0,0,8,0.0,1.0,0.0,711.265,1.0,359.0,11.0,1.14193,0.898129
White,13,Right,18,Female,Yes,English,A,361,1,4,8,0.0,0.0,1.0,783.386,1.0,360.0,11.0,1.08982,0.886107
White,13,Right,18,Female,Yes,English,A,362,0,8,16,180.0,1.0,1.0,616.834,1.0,361.0,11.0,1.0433,0.831082
White,13,Right,18,Female,Yes,English,A,363,0,8,8,180.0,1.0,1.0,545.085,1.0,362.0,11.0,1.04312,0.833822
White,13,Right,18,Female,Yes,English,A,364,0,0,4,180.0,1.0,1.0,662.546,1.0,363.0,11.0,1.10106,0.982676
White,13,Right,18,Female,Yes,English,A,365,0,16,0,0.0,0.0,1.0,952.334,1.0,364.0,11.0,1.01069,0.865771
White,13,Right,18,Female,Yes,English,A,366,0,4,4,180.0,1.0,1.0,609.098,1.0,365.0,11.0,1.09734,0.910411
White,13,Right,18,Female,Yes,English,A,367,0,0,16,180.0,1.0,1.0,789.701,1.0,366.0,11.0,1.17131,0.896308
White,13,Right,18,Female,Yes,English,A,368,1,0,0,0.0,0.0,1.0,561.761,1.0,367.0,11.0,1.19162,0.890806
White,13,Right,18,Female,Yes,English,A,369,1,8,8,180.0,1.0,1.0,618.453,1.0,368.0,11.0,1.12341,0.960211
White,13,Right,18,Female,Yes,English,A,370,0,16,4,180.0,1.0,1.0,579.409,1.0,369.0,11.0,1.10175,0.984534
White,13,Right,18,Female,Yes,English,A,371,1,4,0,0.0,0.0,1.0,798.585,1.0,370.0,11.0,1.11687,0.874202
White,13,Right,18,Female,Yes,English,A,372,1,16,16,180.0,1.0,1.0,774.097,1.0,371.0,11.0,1.16667,0.836635
White,13,Right,18,Female,Yes,English,A,373,0,16,8,0.0,0.0,1.0,605.432,1.0,372.0,11.0,1.01462,0.927289
White,13,Right,18,Female,Yes,English,A,374,1,8,16,0.0,0.0,1.0,714.159,1.0,373.0,11.0,1.0341,0.881663
White,13,Right,18,Female,Yes,English,A,375,0,0,0,180.0,1.0,1.0,661.352,1.0,374.0,11.0,1.10693,0.805398
White,13,Right,18,Female,Yes,English,A,376,1,0,8,0.0,0.0,1.0,645.652,1.0,375.0,11.0,1.13457,0.879202
White,13,Right,18,Female,Yes,English,A,377,0,4,8,0.0,0.0,1.0,520.389,1.0,376.0,11.0,1.06678,0.893574
White,13,Right,18,Female,Yes,English,A,378,1,8,0,0.0,0.0,1.0,771.595,1.0,377.0,11.0,1.01976,0.960735
White,13,Right,18,Female,Yes,English,A,379,1,0,4,0.0,0.0,1.0,492.719,1.0,378.0,11.0,1.09115,0.815128
White,13,Right,18,Female,Yes,English,A,380,1,16,0,180.0,1.0,1.0,787.638,1.0,379.0,11.0,1.07777,0.988738
White,13,Right,18,Female,Yes,English,A,381,0,8,0,0.0,0.0,1.0,555.785,1.0,380.0,11.0,1.01737,0.88209
White,13,Right,18,Female,Yes,English,A,382,1,16,4,180.0,1.0,1.0,824.786,1.0,381.0,11.0,1.18885,0.894616
White,13,Right,18,Female,Yes,English,A,383,0,16,16,180.0,1.0,1.0,921.47,1.0,382.0,11.0,1.13427,0.875198
White,13,Right,18,Female,Yes,English,A,384,1,0,16,180.0,1.0,1.0,586.619,1.0,383.0,11.0,1.04509,0.935359
White,13,Right,18,Female,Yes,English,A,385,0,8,16,180.0,1.0,1.0,714.765,1.0,384.0,12.0,1.00825,0.961685
White,13,Right,18,Female,Yes,English,A,386,1,4,0,0.0,0.0,1.0,704.128,1.0,385.0,12.0,1.0895,0.897306
White,13,Right,18,Female,Yes,English,A,387,1,0,0,180.0,1.0,1.0,665.612,1.0,386.0,12.0,1.18592,0.917484
White,13,Right,18,Female,Yes,English,A,388,0,16,16,180.0,1.0,1.0,728.902,1.0,387.0,12.0,1.18589,0.940601
White,13,Right,18,Female,Yes,English,A,389,1,8,0,180.0,1.0,1.0,795.354,1.0,388.0,12.0,1.03539,0.841211
White,13,Right,18,Female,Yes,English,A,390,0,0,4,0.0,0.0,1.0,954.727,1.0,389.0,12.0,1.16689,0.977584
White,13,Right,18,Female,Yes,English,A,391,1,16,8,0.0,0.0,1.0,686.609,1.0,390.0,12.0,1.05995,0.842878
White,13,Right,18,Female,Yes,English,A,392,1,0,4,0.0,0.0,1.0,440.79,1.0,391.0,12.0,1.06092,0.999013
White,13,Right,18,Female,Yes,English,A,393,1,8,8,180.0,1.0,1.0,919.034,1.0,392.0,12.0,1.16723,0.989741
White,13,Right,18,Female,Yes,English,A,394,0,16,0,0.0,0.0,1.0,934.136,1.0,393.0,12.0,1.09628,0.88268
White,13,Right,18,Female,Yes,English,A,395,0,8,0,180.0,1.0,1.0,533.426,1.0,394.0,12.0,1.13043,0.871013
White,13,Right,18,Female,Yes,English,A,396,0,0,0,180.0,1.0,1.0,618.004,1.0,395.0,12.0,1.03565,0.905731
White,13,Right,18,Female,Yes,English,A,397,0,8,4,0.0,0.0,1.0,712.019,1.0,396.0,12.0,1.16234,0.88373
White,13,Right,18,Female,Yes,English,A,398,0,16,4,180.0,1.0,1.0,862.225,1.0,397.0,12.0,1.13753,0.964338
White,13,Right,18,Female,Yes,English,A,399,1,0,16,180.0,1.0,1.0,561.277,1.0,398.0,12.0,1.0295,0.835451
White,13,Right,18,Female,Yes,English,A,400,1,8,16,180.0,0.0,0.0,648.792,1.0,399.0,12.0,1.16043,0.910179
White,13,Right,18,Female,Yes,English,A,401,0,4,16,180.0,1.0,1.0,722.1,1.0,400.0,12.0,1.05905,0.938565
White,13,Right,18,Female,Yes,English,A,402,1,16,4,0.0,0.0,1.0,802.264,1.0,401.0,12.0,1.07331,0.834549
White,13,Right,18,Female,Yes,English,A,403,0,0,8,180.0,1.0,1.0,553.628,1.0,402.0,12.0,1.01362,0.931892
White,13,Right,18,Female,Yes,English,A,404,1,4,16,0.0,0.0,1.0,916.885,1.0,403.0,12.0,1.17793,0.861464
White,13,Right,18,Female,Yes,English,A,405,1,4,8,0.0,0.0,1.0,1670.09,1.0,404.0,12.0,1.15611,0.9912
White,13,Right,18,Female,Yes,English,A,406,1,16,0,180.0,1.0,1.0,716.978,1.0,405.0,12.0,1.00274,0.937571
White,13,Right,18,Female,Yes,English,A,407,0,4,4,0.0,0.0,1.0,770.5,1.0,406.0,12.0,1.17409,0.935142
White,13,Right,18,Female,Yes,English,A,408,0,8,8,180.0,1.0,1.0,1021.95,1.0,407.0,12.0,1.02745,0.803676
White,13,Right,18,Female,Yes,English,A,409,1,0,8,0.0,0.0,1.0,815.4,1.0,408.0,12.0,1.16205,0.854258
White,13,Right,18,Female,Yes,English,A,410,1,16,16,0.0,0.0,1.0,611.095,1.0,409.0,12.0,1.03438,0.878163
White,13,Right,18,Female,Yes,English,A,411,1,4,4,0.0,0.0,1.0,851.605,1.0,410.0,12.0,1.0444,0.861924
White,13,Right,18,Female,Yes,English,A,412,0,4,8,0.0,0.0,1.0,851.745,1.0,411.0,12.0,1.17115,0.898809
White,13,Right,18,Female,Yes,English,A,413,0,4,0,180.0,1.0,1.0,749.258,1.0,412.0,12.0,1.17574,0.850443
White,13,Right,18,Female,Yes,English,A,414,1,8,4,0.0,0.0,1.0,749.392,1.0,413.0,12.0,1.10664,0.862615
White,13,Right,18,Female,Yes,English,A,415,0,16,8,0.0,0.0,1.0,654.689,1.0,414.0,12.0,1.04512,0.979087
White,13,Right,18,Female,Yes,English,A,416,0,0,16,180.0,1.0,1.0,640.563,1.0,415.0,12.0,1.13437,0.875157
White,13,Right,18,Female,Yes,English,A,417,1,8,8,0.0,0.0,1.0,603.283,1.0,416.0,13.0,1.1757,0.93575
White,13,Right,18,Female,Yes,English,A,418,1,8,16,0.0,0.0,1.0,529.66,1.0,417.0,13.0,1.17176,0.805683
White,13,Right,18,Female,Yes,English,A,419,1,8,4,0.0,0.0,1.0,724.46,1.0,418.0,13.0,1.01222,0.924647
White,13,Right,18,Female,Yes,English,A,420,1,4,8,0.0,0.0,1.0,550.0,1.0,419.0,13.0,1.156,0.921399
White,13,Right,18,Female,Yes,English,A,421,0,4,0,180.0,1.0,1.0,768.597,1.0,420.0,13.0,1.16441,0.918617
White,13,Right,18,Female,Yes,English,A,422,0,16,0,180.0,1.0,1.0,800.036,1.0,421.0,13.0,1.07714,0.95342
White,13,Right,18,Female,Yes,English,A,423,1,4,16,180.0,1.0,1.0,642.44,1.0,422.0,13.0,1.07078,0.865624
White,13,Right,18,Female,Yes,English,A,424,0,16,4,180.0,1.0,1.0,697.586,1.0,423.0,13.0,1.18624,0.864926
White,13,Right,18,Female,Yes,English,A,425,1,8,0,180.0,1.0,1.0,613.856,1.0,424.0,13.0,1.19959,0.975256
White,13,Right,18,Female,Yes,English,A,426,0,4,8,0.0,0.0,1.0,889.065,1.0,425.0,13.0,1.08973,0.930329
White,13,Right,18,Female,Yes,English,A,427,1,16,16,180.0,1.0,1.0,581.283,1.0,426.0,13.0,1.01805,0.858507
White,13,Right,18,Female,Yes,English,A,428,1,0,16,0.0,0.0,1.0,1005.8,1.0,427.0,13.0,1.01726,0.902893
White,13,Right,18,Female,Yes,English,A,429,1,16,8,180.0,0.0,0.0,742.655,1.0,428.0,13.0,1.06861,0.988864
White,13,Right,18,Female,Yes,English,A,430,0,0,4,180.0,1.0,1.0,747.714,1.0,429.0,13.0,1.04803,0.836812
White,13,Right,18,Female,Yes,English,A,431,0,4,4,0.0,0.0,1.0,852.331,1.0,430.0,13.0,1.11433,0.973589
White,13,Right,18,Female,Yes,English,A,432,0,8,0,180.0,1.0,1.0,659.3,1.0,431.0,13.0,1.09508,0.826502
White,13,Right,18,Female,Yes,English,A,433,0,8,8,0.0,0.0,1.0,814.186,1.0,432.0,13.0,1.0972,0.97612
White,13,Right,18,Female,Yes,English,A,434,0,4,16,0.0,0.0,1.0,592.228,1.0,433.0,13.0,1.11456,0.9134
White,13,Right,18,Female,Yes,English,A,435,1,16,0,0.0,0.0,1.0,493.774,1.0,434.0,13.0,1.03167,0.944486
White,13,Right,18,Female,Yes,English,A,436,1,0,8,0.0,0.0,1.0,670.623,1.0,435.0,13.0,1.15294,0.852592
White,13,Right,18,Female,Yes,English,A,437,1,16,4,0.0,0.0,1.0,804.548,1.0,436.0,13.0,1.02835,0.886549
White,13,Right,18,Female,Yes,English,A,438,1,4,0,0.0,0.0,1.0,566.499,1.0,437.0,13.0,1.09488,0.905625
White,13,Right,18,Female,Yes,English,A,439,1,0,4,180.0,0.0,0.0,531.71,1.0,438.0,13.0,1.01225,0.888177
White,13,Right,18,Female,Yes,English,A,440,0,8,4,0.0,0.0,1.0,788.242,1.0,439.0,13.0,1.08548,0.967208
White,13,Right,18,Female,Yes,English,A,441,1,0,0,180.0,1.0,1.0,767.453,1.0,440.0,13.0,1.13544,0.983646
White,13,Right,18,Female,Yes,English,A,442,1,4,4,180.0,1.0,1.0,631.746,1.0,441.0,13.0,1.18518,0.803855
White,13,Right,18,Female,Yes,English,A,443,0,0,8,0.0,0.0,1.0,636.943,1.0,442.0,13.0,1.14948,0.89015
White,13,Right,18,Female,Yes,English,A,444,0,16,16,180.0,1.0,1.0,756.54,1.0,443.0,13.0,1.07046,0.96516
White,13,Right,18,Female,Yes,English,A,445,0,16,8,0.0,0.0,1.0,719.057,1.0,444.0,13.0,1.1435,0.864217
White,13,Right,18,Female,Yes,English,A,446,0,8,16,180.0,1.0,1.0,741.237,1.0,445.0,13.0,1.07391,0.857112
White,13,Right,18,Female,Yes,English,A,447,0,0,16,180.0,1.0,1.0,592.968,1.0,446.0,13.0,1.15196,0.888743
White,13,Right,18,Female,Yes,English,A,448,0,0,0,180.0,1.0,1.0,547.886,1.0,447.0,13.0,1.17951,0.992826
White,13,Right,18,Female,Yes,English,A,449,1,0,0,0.0,0.0,1.0,889.026,1.0,448.0,14.0,1.18784,0.832109
White,13,Right,18,Female,Yes,English,A,450,1,16,8,0.0,0.0,1.0,1134.94,1.0,449.0,14.0,1.07489,0.883826
White,13,Right,18,Female,Yes,English,A,451,1,16,0,180.0,1.0,1.0,947.514,1.0,450.0,14.0,1.02693,0.992017
White,13,Right,18,Female,Yes,English,A,452,0,0,0,180.0,1.0,1.0,558.739,1.0,451.0,14.0,1.01618,0.937329
White,13,Right,18,Female,Yes,English,A,453,1,4,0,180.0,1.0,1.0,656.752,1.0,452.0,14.0,1.17081,0.91242
White,13,Right,18,Female,Yes,English,A,454,1,8,4,180.0,1.0,1.0,696.757,1.0,453.0,14.0,1.06807,0.850354
White,13,Right,18,Female,Yes,English,A,455,1,0,8,180.0,1.0,1.0,815.803,1.0,454.0,14.0,1.19295,0.93112
White,13,Right,18,Female,Yes,English,A,456,0,16,4,180.0,1.0,1.0,809.047,1.0,455.0,14.0,1.1935,0.830339
White,13,Right,18,Female,Yes,English,A,457,0,8,0,0.0,0.0,1.0,1005.56,1.0,456.0,14.0,1.04302,0.852311
White,13,Right,18,Female,Yes,English,A,458,1,0,4,0.0,0.0,1.0,672.069,1.0,457.0,14.0,1.0339,0.829219
White,13,Right,18,Female,Yes,English,A,459,0,8,4,0.0,0.0,1.0,677.497,1.0,458.0,14.0,1.14179,0.898567
White,13,Right,18,Female,Yes,English,A,460,0,0,4,0.0,0.0,1.0,669.344,1.0,459.0,14.0,1.19605,0.960784
White,13,Right,18,Female,Yes,English,A,461,0,16,16,180.0,1.0,1.0,1181.51,1.0,460.0,14.0,1.03251,0.806911
White,13,Right,18,Female,Yes,English,A,462,0,16,0,180.0,1.0,1.0,774.594,1.0,461.0,14.0,1.11337,0.818111
White,13,Right,18,Female,Yes,English,A,463,0,8,8,180.0,1.0,1.0,709.609,1.0,462.0,14.0,1.13253,0.987571
White,13,Right,18,Female,Yes,English,A,464,1,8,16,180.0,1.0,1.0,671.97,1.0,463.0,14.0,1.18549,0.94351
White,13,Right,18,Female,Yes,English,A,465,1,4,4,0.0,0.0,1.0,664.121,1.0,464.0,14.0,1.08493,0.893844
White,13,Right,18,Female,Yes,English,A,466,0,0,8,180.0,1.0,1.0,873.12,1.0,465.0,14.0,1.09647,0.988941
White,13,Right,18,Female,Yes,English,A,467,0,4,4,0.0,0.0,1.0,630.07,1.0,466.0,14.0,1.0105,0.911217
White,13,Right,18,Female,Yes,English,A,468,1,4,16,180.0,1.0,1.0,773.669,1.0,467.0,14.0,1.1646,0.973766
White,13,Right,18,Female,Yes,English,A,469,1,0,16,180.0,1.0,1.0,831.331,1.0,468.0,14.0,1.0299,0.81536
White,13,Right,18,Female,Yes,English,A,470,0,8,16,180.0,1.0,1.0,738.093,1.0,469.0,14.0,1.02248,0.957064
White,13,Right,18,Female,Yes,English,A,471,1,4,8,0.0,0.0,1.0,762.39,1.0,470.0,14.0,1.05492,0.932298
White,13,Right,18,Female,Yes,English,A,472,0,4,0,0.0,0.0,1.0,735.91,1.0,471.0,14.0,1.10398,0.847334
White,13,Right,18,Female,Yes,English,A,473,0,16,8,0.0,0.0,1.0,675.803,1.0,472.0,14.0,1.06091,0.933237
White,13,Right,18,Female,Yes,English,A,474,1,8,8,0.0,0.0,1.0,614.361,1.0,473.0,14.0,1.05376,0.868306
White,13,Right,18,Female,Yes,English,A,475,1,16,16,0.0,0.0,1.0,672.568,1.0,474.0,14.0,1.18169,0.815062
White,13,Right,18,Female,Yes,English,A,476,1,8,0,180.0,1.0,1.0,610.029,1.0,475.0,14.0,1.0772,0.902315
White,13,Right,18,Female,Yes,English,A,477,0,4,8,180.0,1.0,1.0,745.167,1.0,476.0,14.0,1.15242,0.954179
White,13,Right,18,Female,Yes,English,A,478,0,0,16,0.0,0.0,1.0,662.502,1.0,477.0,14.0,1.02477,0.844717
White,13,Right,18,Female,Yes,English,A,479,0,4,16,0.0,0.0,1.0,706.458,1.0,478.0,14.0,1.15035,0.827371
White,13,Right,18,Female,Yes,English,A,480,1,16,4,0.0,0.0,1.0,724.699,1.0,479.0,14.0,1.12141,0.828128
White,13,Right,18,Female,Yes,English,A,481,0,0,0,180.0,1.0,1.0,641.754,1.0,480.0,15.0,1.05607,0.95332
White,13,Right,18,Female,Yes,English,A,482,1,4,16,0.0,0.0,1.0,888.988,1.0,481.0,15.0,1.16745,0.993944
White,13,Right,18,Female,Yes,English,A,483,1,0,0,0.0,0.0,1.0,584.546,1.0,482.0,15.0,1.08208,0.968994
White,13,Right,18,Female,Yes,English,A,484,0,16,4,180.0,1.0,1.0,1088.25,1.0,483.0,15.0,1.12149,0.843451
White,13,Right,18,Female,Yes,English,A,485,1,4,8,0.0,0.0,1.0,761.976,1.0,484.0,15.0,1.1054,0.959979
White,13,Right,18,Female,Yes,English,A,486,0,4,16,0.0,0.0,1.0,651.723,1.0,485.0,15.0,1.13975,0.938502
White,13,Right,18,Female,Yes,English,A,487,0,0,4,180.0,1.0,1.0,752.044,1.0,486.0,15.0,1.01899,0.874195
White,13,Right,18,Female,Yes,English,A,488,1,4,0,180.0,1.0,1.0,691.738,1.0,487.0,15.0,1.05208,0.956856
White,13,Right,18,Female,Yes,English,A,489,1,8,8,180.0,1.0,1.0,617.389,1.0,488.0,15.0,1.11848,0.809093
White,13,Right,18,Female,Yes,English,A,490,0,8,16,0.0,0.0,1.0,651.723,1.0,489.0,15.0,1.0966,0.851093
White,13,Right,18,Female,Yes,English,A,491,0,8,4,0.0,0.0,1.0,537.263,1.0,490.0,15.0,1.01776,0.912982
White,13,Right,18,Female,Yes,English,A,492,1,0,8,0.0,0.0,1.0,788.893,1.0,491.0,15.0,1.16335,0.869757
White,13,Right,18,Female,Yes,English,A,493,0,0,8,0.0,0.0,1.0,706.947,1.0,492.0,15.0,1.00307,0.877571
White,13,Right,18,Female,Yes,English,A,494,0,0,16,180.0,1.0,1.0,765.532,1.0,493.0,15.0,1.07924,0.897957
White,13,Right,18,Female,Yes,English,A,495,1,16,0,180.0,1.0,1.0,695.841,1.0,494.0,15.0,1.1142,0.951432
White,13,Right,18,Female,Yes,English,A,496,1,8,16,180.0,1.0,1.0,677.803,1.0,495.0,15.0,1.01775,0.909829
White,13,Right,18,Female,Yes,English,A,497,0,8,8,0.0,0.0,1.0,751.256,1.0,496.0,15.0,1.00214,0.802248
White,13,Right,18,Female,Yes,English,A,498,0,4,8,0.0,0.0,1.0,591.713,1.0,497.0,15.0,1.14419,0.847541
White,13,Right,18,Female,Yes,English,A,499,0,4,0,0.0,1.0,0.0,605.847,1.0,498.0,15.0,1.04852,0.968063
White,13,Right,18,Female,Yes,English,A,500,0,4,4,0.0,0.0,1.0,611.648,1.0,499.0,15.0,1.16512,0.818172
White,13,Right,18,Female,Yes,English,A,501,0,16,16,180.0,1.0,1.0,982.076,1.0,500.0,15.0,1.00226,0.855763
White,13,Right,18,Female,Yes,English,A,502,1,16,4,0.0,0.0,1.0,748.649,1.0,501.0,15.0,1.08236,0.910633
White,13,Right,18,Female,Yes,English,A,503,1,0,16,180.0,1.0,1.0,585.337,1.0,502.0,15.0,1.05344,0.874846
White,13,Right,18,Female,Yes,English,A,504,1,16,8,180.0,1.0,1.0,771.479,1.0,503.0,15.0,1.17442,0.942131
White,13,Right,18,Female,Yes,English,A,505,1,8,0,0.0,0.0,1.0,755.41,1.0,504.0,15.0,1.11528,0.998491
White,13,Right,18,Female,Yes,English,A,506,1,0,4,180.0,1.0,1.0,524.513,1.0,505.0,15.0,1.12428,0.929601
White,13,Right,18,Female,Yes,English,A,507,1,8,4,180.0,1.0,1.0,891.013,1.0,506.0,15.0,1.10833,0.86854
White,13,Right,18,Female,Yes,English,A,508,0,8,0,0.0,0.0,1.0,592.847,1.0,507.0,15.0,1.16885,0.982694
White,13,Right,18,Female,Yes,English,A,509,0,16,0,180.0,1.0,1.0,675.968,1.0,508.0,15.0,1.18486,0.870699
White,13,Right,18,Female,Yes,English,A,510,1,4,4,180.0,1.0,1.0,1316.77,1.0,509.0,15.0,1.18827,0.827138
White,13,Right,18,Female,Yes,English,A,511,0,16,8,0.0,0.0,1.0,727.099,1.0,510.0,15.0,1.18264,0.828854
White,13,Right,18,Female,Yes,English,A,512,1,16,16,180.0,1.0,1.0,732.077,1.0,511.0,15.0,1.13636,0.902706
White,13,Right,18,Female,Yes,English,A,513,1,4,4,180.0,1.0,1.0,549.512,1.0,512.0,16.0,1.03695,0.940772
White,13,Right,18,Female,Yes,English,A,514,1,8,16,0.0,0.0,1.0,1330.15,1.0,513.0,16.0,1.08271,0.971444
White,13,Right,18,Female,Yes,English,A,515,0,4,0,180.0,1.0,1.0,557.389,1.0,514.0,16.0,1.02943,0.878191
White,13,Right,18,Female,Yes,English,A,516,0,0,8,0.0,0.0,1.0,985.045,1.0,515.0,16.0,1.03196,0.935387
White,13,Right,18,Female,Yes,English,A,517,0,0,16,180.0,1.0,1.0,1110.07,1.0,516.0,16.0,1.08567,0.812671
White,13,Right,18,Female,Yes,English,A,518,1,8,4,180.0,1.0,1.0,576.025,1.0,517.0,16.0,1.13889,0.934866
White,13,Right,18,Female,Yes,English,A,519,0,8,4,0.0,0.0,1.0,675.757,1.0,518.0,16.0,1.0756,0.852284
White,13,Right,18,Female,Yes,English,A,520,0,8,8,180.0,1.0,1.0,1026.11,1.0,519.0,16.0,1.13752,0.991976
White,13,Right,18,Female,Yes,English,A,521,0,8,16,0.0,0.0,1.0,691.084,1.0,520.0,16.0,1.16134,0.957465
White,13,Right,18,Female,Yes,English,A,522,0,16,16,0.0,0.0,1.0,616.666,1.0,521.0,16.0,1.0017,0.904472
White,13,Right,18,Female,Yes,English,A,523,1,16,8,0.0,0.0,1.0,786.086,1.0,522.0,16.0,1.03042,0.969518
White,13,Right,18,Female,Yes,English,A,524,1,4,0,0.0,0.0,1.0,891.245,1.0,523.0,16.0,1.1588,0.92696
White,13,Right,18,Female,Yes,English,A,525,0,16,0,0.0,0.0,1.0,617.869,1.0,524.0,16.0,1.05474,0.90784
White,13,Right,18,Female,Yes,English,A,526,0,16,4,180.0,1.0,1.0,717.511,1.0,525.0,16.0,1.18691,0.928824
White,13,Right,18,Female,Yes,English,A,527,1,16,0,0.0,0.0,1.0,584.193,1.0,526.0,16.0,1.15084,0.805909
White,13,Right,18,Female,Yes,English,A,528,1,4,8,180.0,1.0,1.0,796.672,1.0,527.0,16.0,1.12411,0.985016
White,13,Right,18,Female,Yes,English,A,529,0,4,4,0.0,0.0,1.0,712.392,1.0,528.0,16.0,1.07583,0.860374
White,13,Right,18,Female,Yes,English,A,530,1,0,8,0.0,0.0,1.0,672.585,1.0,529.0,16.0,1.15743,0.912158
White,13,Right,18,Female,Yes,English,A,531,1,8,8,0.0,0.0,1.0,851.652,1.0,530.0,16.0,1.17077,0.901962
White,13,Right,18,Female,Yes,English,A,532,1,16,4,0.0,0.0,1.0,667.114,1.0,531.0,16.0,1.17692,0.926272
White,13,Right,18,Female,Yes,English,A,533,1,0,4,0.0,0.0,1.0,513.541,1.0,532.0,16.0,1.06207,0.913585
White,13,Right,18,Female,Yes,English,A,534,1,0,0,0.0,0.0,1.0,452.041,1.0,533.0,16.0,1.14259,0.944654
White,13,Right,18,Female,Yes,English,A,535,1,4,16,180.0,1.0,1.0,747.341,1.0,534.0,16.0,1.13314,0.837348
White,13,Right,18,Female,Yes,English,A,536,0,0,0,180.0,1.0,1.0,658.198,1.0,535.0,16.0,1.16304,0.90678
White,13,Right,18,Female,Yes,English,A,537,0,4,16,180.0,1.0,1.0,743.034,1.0,536.0,16.0,1.10728,0.98002
White,13,Right,18,Female,Yes,English,A,538,0,0,4,180.0,1.0,1.0,531.809,1.0,537.0,16.0,1.0042,0.823446
White,13,Right,18,Female,Yes,English,A,539,0,4,8,180.0,1.0,1.0,663.034,1.0,538.0,16.0,1.13053,0.955751
White,13,Right,18,Female,Yes,English,A,540,1,0,16,180.0,1.0,1.0,498.913,1.0,539.0,16.0,1.04205,0.966921
White,13,Right,18,Female,Yes,English,A,541,1,8,0,180.0,1.0,1.0,902.79,1.0,540.0,16.0,1.18808,0.841387
White,13,Right,18,Female,Yes,English,A,542,0,16,8,180.0,1.0,1.0,511.463,1.0,541.0,16.0,1.04276,0.858267
White,13,Right,18,Female,Yes,English,A,543,1,16,16,0.0,0.0,1.0,912.28,1.0,542.0,16.0,1.05871,0.814006
White,13,Right,18,Female,Yes,English,A,544,0,8,0,180.0,1.0,1.0,639.291,1.0,543.0,16.0,1.10074,0.965376
White,13,Right,18,Female,Yes,English,A,545,0,0,0,180.0,1.0,1.0,605.223,1.0,544.0,17.0,1.0426,0.807726
White,13,Right,18,Female,Yes,English,A,546,0,0,8,0.0,0.0,1.0,613.6,1.0,545.0,17.0,1.01183,0.961811
White,13,Right,18,Female,Yes,English,A,547,0,16,16,180.0,1.0,1.0,739.171,1.0,546.0,17.0,1.03588,0.869523
White,13,Right,18,Female,Yes,English,A,548,0,4,0,0.0,0.0,1.0,1071.0,1.0,547.0,17.0,1.18313,0.89673
White,13,Right,18,Female,Yes,English,A,549,1,4,16,0.0,0.0,1.0,732.791,1.0,548.0,17.0,1.19568,0.807407
White,13,Right,18,Female,Yes,English,A,550,1,8,16,0.0,0.0,1.0,718.034,1.0,549.0,17.0,1.0046,0.951101
White,13,Right,18,Female,Yes,English,A,551,0,4,16,0.0,0.0,1.0,909.601,1.0,550.0,17.0,1.12928,0.875692
White,13,Right,18,Female,Yes,English,A,552,0,0,4,180.0,1.0,1.0,551.78,1.0,551.0,17.0,1.11975,0.910912
White,13,Right,18,Female,Yes,English,A,553,0,8,8,180.0,1.0,1.0,837.201,1.0,552.0,17.0,1.02389,0.834101
White,13,Right,18,Female,Yes,English,A,554,1,0,0,180.0,1.0,1.0,713.949,1.0,553.0,17.0,1.16579,0.867585
White,13,Right,18,Female,Yes,English,A,555,1,4,4,0.0,0.0,1.0,674.677,1.0,554.0,17.0,1.11197,0.895853
White,13,Right,18,Female,Yes,English,A,556,1,0,8,180.0,1.0,1.0,786.028,1.0,555.0,17.0,1.01551,0.826278
White,13,Right,18,Female,Yes,English,A,557,1,16,0,0.0,0.0,1.0,712.33,1.0,556.0,17.0,1.14335,0.981777
White,13,Right,18,Female,Yes,English,A,558,0,8,4,0.0,0.0,1.0,584.571,1.0,557.0,17.0,1.13528,0.841478
White,13,Right,18,Female,Yes,English,A,559,1,8,8,0.0,0.0,1.0,683.644,1.0,558.0,17.0,1.05615,0.860403
White,13,Right,18,Female,Yes,English,A,560,1,8,4,180.0,1.0,1.0,976.81,1.0,559.0,17.0,1.05275,0.853626
White,13,Right,18,Female,Yes,English,A,561,0,16,4,0.0,0.0,1.0,501.703,1.0,560.0,17.0,1.14844,0.93049
White,13,Right,18,Female,Yes,English,A,562,1,4,8,180.0,1.0,1.0,714.813,1.0,561.0,17.0,1.00744,0.947541
White,13,Right,18,Female,Yes,English,A,563,1,0,16,180.0,1.0,1.0,844.27,1.0,562.0,17.0,1.1695,0.977127
White,13,Right,18,Female,Yes,English,A,564,0,8,0,180.0,1.0,1.0,489.298,1.0,563.0,17.0,1.12983,0.876202
White,13,Right,18,Female,Yes,English,A,565,0,4,8,180.0,1.0,1.0,681.858,1.0,564.0,17.0,1.08753,0.998432
White,13,Right,18,Female,Yes,English,A,566,1,16,8,180.0,1.0,1.0,653.97,1.0,565.0,17.0,1.02349,0.998936
White,13,Right,18,Female,Yes,English,A,567,1,16,16,180.0,1.0,1.0,798.277,1.0,566.0,17.0,1.07011,0.910996
White,13,Right,18,Female,Yes,English,A,568,0,4,4,0.0,0.0,1.0,1053.8,1.0,567.0,17.0,1.00546,0.833537
White,13,Right,18,Female,Yes,English,A,569,1,16,4,180.0,1.0,1.0,763.124,1.0,568.0,17.0,1.03356,0.934131
White,13,Right,18,Female,Yes,English,A,570,1,4,0,180.0,1.0,1.0,758.005,1.0,569.0,17.0,1.01028,0.841333
White,13,Right,18,Female,Yes,English,A,571,1,0,4,0.0,0.0,1.0,533.884,1.0,570.0,17.0,1.08543,0.810548
White,13,Right,18,Female,Yes,English,A,572,0,8,16,0.0,0.0,1.0,550.037,1.0,571.0,17.0,1.02668,0.950219
White,13,Right,18,Female,Yes,English,A,573,0,16,8,180.0,1.0,1.0,569.068,1.0,572.0,17.0,1.1605,0.806645
White,13,Right,18,Female,Yes,English,A,574,1,8,0,0.0,0.0,1.0,697.197,1.0,573.0,17.0,1.17605,0.922871
White,13,Right,18,Female,Yes,English,A,575,0,0,16,0.0,0.0,1.0,702.083,1.0,574.0,17.0,1.08431,0.998265
White,13,Right,18,Female,Yes,English,A,576,0,16,0,0.0,0.0,1.0,665.206,1.0,575.0,17.0,1.12494,0.842903
White,13,Right,18,Female,Yes,English,A,577,0,0,0,0.0,0.0,1.0,500.456,1.0,576.0,18.0,1.07198,0.875868
White,13,Right,18,Female,Yes,English,A,578,0,8,16,0.0,0.0,1.0,537.255,1.0,577.0,18.0,1.05839,0.837309
White,13,Right,18,Female,Yes,English,A,579,0,0,4,0.0,0.0,1.0,712.087,1.0,578.0,18.0,1.02412,0.935555
White,13,Right,18,Female,Yes,English,A,580,1,0,4,0.0,0.0,1.0,440.913,1.0,579.0,18.0,1.02155,0.802915
White,13,Right,18,Female,Yes,English,A,581,0,0,8,180.0,0.0,0.0,602.555,1.0,580.0,18.0,1.11604,0.917532
White,13,Right,18,Female,Yes,English,A,582,0,16,16,180.0,1.0,1.0,579.736,1.0,581.0,18.0,1.13619,0.804266
White,13,Right,18,Female,Yes,English,A,583,1,8,8,0.0,0.0,1.0,947.052,1.0,582.0,18.0,1.0235,0.985599
White,13,Right,18,Female,Yes,English,A,584,1,4,0,180.0,1.0,1.0,553.32,1.0,583.0,18.0,1.09841,0.841592
White,13,Right,18,Female,Yes,English,A,585,0,4,4,0.0,0.0,1.0,671.755,1.0,584.0,18.0,1.09253,0.956785
White,13,Right,18,Female,Yes,English,A,586,1,8,16,0.0,0.0,1.0,624.717,1.0,585.0,18.0,1.10474,0.815251
White,13,Right,18,Female,Yes,English,A,587,1,16,8,180.0,1.0,1.0,610.932,1.0,586.0,18.0,1.08433,0.996974
White,13,Right,18,Female,Yes,English,A,588,1,16,0,180.0,1.0,1.0,815.849,1.0,587.0,18.0,1.04096,0.912392
White,13,Right,18,Female,Yes,English,A,589,0,16,4,180.0,1.0,1.0,797.383,1.0,588.0,18.0,1.12185,0.949769
White,13,Right,18,Female,Yes,English,A,590,0,4,8,0.0,0.0,1.0,560.197,1.0,589.0,18.0,1.01542,0.947666
White,13,Right,18,Female,Yes,English,A,591,0,4,16,180.0,1.0,1.0,798.025,1.0,590.0,18.0,1.1772,0.837406
White,13,Right,18,Female,Yes,English,A,592,1,4,8,0.0,0.0,1.0,675.88,1.0,591.0,18.0,1.06315,0.849781
White,13,Right,18,Female,Yes,English,A,593,0,16,8,0.0,0.0,1.0,535.103,1.0,592.0,18.0,1.12991,0.894234
White,13,Right,18,Female,Yes,English,A,594,0,16,0,180.0,1.0,1.0,623.533,1.0,593.0,18.0,1.10074,0.874881
White,13,Right,18,Female,Yes,English,A,595,1,0,0,180.0,1.0,1.0,638.387,1.0,594.0,18.0,1.07006,0.905298
White,13,Right,18,Female,Yes,English,A,596,0,0,16,180.0,1.0,1.0,535.125,1.0,595.0,18.0,1.01692,0.946337
White,13,Right,18,Female,Yes,English,A,597,1,8,4,0.0,1.0,0.0,460.253,1.0,596.0,18.0,1.08999,0.84344
White,13,Right,18,Female,Yes,English,A,598,0,8,0,180.0,1.0,1.0,508.184,1.0,597.0,18.0,1.17142,0.981271
White,13,Right,18,Female,Yes,English,A,599,1,8,0,180.0,1.0,1.0,693.363,1.0,598.0,18.0,1.18095,0.92128
White,13,Right,18,Female,Yes,English,A,600,0,4,0,180.0,1.0,1.0,873.211,1.0,599.0,18.0,1.16177,0.906852
White,13,Right,18,Female,Yes,English,A,601,0,8,8,180.0,1.0,1.0,749.122,1.0,600.0,18.0,1.08562,0.905425
White,13,Right,18,Female,Yes,English,A,602,0,8,4,180.0,1.0,1.0,651.826,1.0,601.0,18.0,1.02943,0.885195
White,13,Right,18,Female,Yes,English,A,603,1,0,16,0.0,0.0,1.0,728.774,1.0,602.0,18.0,1.16474,0.840534
White,13,Right,18,Female,Yes,English,A,604,1,0,8,0.0,0.0,1.0,580.351,1.0,603.0,18.0,1.14446,0.967403
White,13,Right,18,Female,Yes,English,A,605,1,16,4,180.0,1.0,1.0,740.019,1.0,604.0,18.0,1.0775,0.986433
White,13,Right,18,Female,Yes,English,A,606,1,16,16,0.0,0.0,1.0,496.982,1.0,605.0,18.0,1.11013,0.846258
White,13,Right,18,Female,Yes,English,A,607,1,4,4,0.0,0.0,1.0,627.005,1.0,606.0,18.0,1.00678,0.932913
White,13,Right,18,Female,Yes,English,A,608,1,4,16,0.0,0.0,1.0,562.192,1.0,607.0,18.0,1.00205,0.850102
White,13,Right,18,Female,Yes,English,A,609,1,16,8,180.0,0.0,0.0,586.676,1.0,608.0,19.0,1.09709,0.918568
White,13,Right,18,Female,Yes,English,A,610,0,16,16,180.0,1.0,1.0,636.709,1.0,609.0,19.0,1.00249,0.926434
White,13,Right,18,Female,Yes,English,A,611,0,4,4,180.0,1.0,1.0,638.026,1.0,610.0,19.0,1.1053,0.863151
White,13,Right,18,Female,Yes,English,A,612,0,8,4,0.0,0.0,1.0,678.239,1.0,611.0,19.0,1.12216,0.800778
White,13,Right,18,Female,Yes,English,A,613,1,8,0,180.0,1.0,1.0,785.593,1.0,612.0,19.0,1.13537,0.813387
White,13,Right,18,Female,Yes,English,A,614,0,4,16,180.0,1.0,1.0,686.944,1.0,613.0,19.0,1.03064,0.81797
White,13,Right,18,Female,Yes,English,A,615,1,16,4,180.0,1.0,1.0,802.581,1.0,614.0,19.0,1.10353,0.836338
White,13,Right,18,Female,Yes,English,A,616,1,0,0,180.0,1.0,1.0,573.427,1.0,615.0,19.0,1.01666,0.883834
White,13,Right,18,Female,Yes,English,A,617,0,8,8,180.0,1.0,1.0,860.58,1.0,616.0,19.0,1.03707,0.811173
White,13,Right,18,Female,Yes,English,A,618,0,16,0,0.0,0.0,1.0,734.408,1.0,617.0,19.0,1.16975,0.91709
White,13,Right,18,Female,Yes,English,A,619,1,4,16,0.0,0.0,1.0,790.549,1.0,618.0,19.0,1.19816,0.872548
White,13,Right,18,Female,Yes,English,A,620,0,0,16,180.0,1.0,1.0,665.524,1.0,619.0,19.0,1.02132,0.886063
White,13,Right,18,Female,Yes,English,A,621,1,8,8,180.0,1.0,1.0,862.605,1.0,620.0,19.0,1.19103,0.89476
White,13,Right,18,Female,Yes,English,A,622,1,4,0,180.0,1.0,1.0,551.471,1.0,621.0,19.0,1.00166,0.980714
White,13,Right,18,Female,Yes,English,A,623,1,0,4,0.0,0.0,1.0,521.86,1.0,622.0,19.0,1.15104,0.804736
White,13,Right,18,Female,Yes,English,A,624,0,4,8,0.0,0.0,1.0,429.677,1.0,623.0,19.0,1.10552,0.813353
White,13,Right,18,Female,Yes,English,A,625,1,16,16,180.0,1.0,1.0,785.624,1.0,624.0,19.0,1.01362,0.933942
White,13,Right,18,Female,Yes,English,A,626,1,0,16,180.0,1.0,1.0,594.449,1.0,625.0,19.0,1.09291,0.86587
White,13,Right,18,Female,Yes,English,A,627,0,16,8,180.0,1.0,1.0,588.039,1.0,626.0,19.0,1.03806,0.875164
White,13,Right,18,Female,Yes,English,A,628,0,0,4,0.0,0.0,1.0,764.111,1.0,627.0,19.0,1.07151,0.968095
White,13,Right,18,Female,Yes,English,A,629,0,0,0,0.0,0.0,1.0,625.613,1.0,628.0,19.0,1.14844,0.920675
White,13,Right,18,Female,Yes,English,A,630,1,4,4,0.0,0.0,1.0,806.103,1.0,629.0,19.0,1.02306,0.891287
White,13,Right,18,Female,Yes,English,A,631,1,8,16,0.0,0.0,1.0,708.019,1.0,630.0,19.0,1.08161,0.937776
White,13,Right,18,Female,Yes,English,A,632,1,4,8,0.0,0.0,1.0,673.262,1.0,631.0,19.0,1.01691,0.953865
White,13,Right,18,Female,Yes,English,A,633,0,16,4,180.0,1.0,1.0,497.691,1.0,632.0,19.0,1.15411,0.800851
White,13,Right,18,Female,Yes,English,A,634,0,4,0,0.0,0.0,1.0,742.071,1.0,633.0,19.0,1.00683,0.856769
White,13,Right,18,Female,Yes,English,A,635,0,8,16,0.0,0.0,1.0,924.066,1.0,634.0,19.0,1.09621,0.964935
White,13,Right,18,Female,Yes,English,A,636,1,16,0,0.0,0.0,1.0,578.874,1.0,635.0,19.0,1.14672,0.842156
White,13,Right,18,Female,Yes,English,A,637,0,8,0,0.0,0.0,1.0,499.033,1.0,636.0,19.0,1.18577,0.874609
White,13,Right,18,Female,Yes,English,A,638,1,0,8,180.0,0.0,0.0,429.861,1.0,637.0,19.0,1.03526,0.90503
White,13,Right,18,Female,Yes,English,A,639,1,8,4,0.0,0.0,1.0,964.658,1.0,638.0,19.0,1.08626,0.957451
White,13,Right,18,Female,Yes,English,A,640,0,0,8,0.0,0.0,1.0,517.473,1.0,639.0,19.0,1.02151,0.818989
White,13,Right,18,Female,Yes,English,A,641,0,0,16,180.0,1.0,1.0,827.405,1.0,640.0,20.0,1.17427,0.993066
White,13,Right,18,Female,Yes,English,A,642,1,0,8,0.0,0.0,1.0,764.303,1.0,641.0,20.0,1.19754,0.938155
White,13,Right,18,Female,Yes,English,A,643,1,16,4,0.0,0.0,1.0,794.93,1.0,642.0,20.0,1.01746,0.835738
White,13,Right,18,Female,Yes,English,A,644,0,4,8,180.0,1.0,1.0,1215.99,1.0,643.0,20.0,1.15004,0.982091
White,13,Right,18,Female,Yes,English,A,645,0,0,0,180.0,1.0,1.0,571.083,1.0,644.0,20.0,1.12978,0.835192
White,13,Right,18,Female,Yes,English,A,646,1,0,16,180.0,1.0,1.0,570.21,1.0,645.0,20.0,1.01161,0.922625
White,13,Right,18,Female,Yes,English,A,647,0,8,4,180.0,1.0,1.0,728.36,1.0,646.0,20.0,1.04289,0.962444
White,13,Right,18,Female,Yes,English,A,648,0,4,4,180.0,1.0,1.0,520.254,1.0,647.0,20.0,1.04978,0.805806
White,13,Right,18,Female,Yes,English,A,649,0,8,16,180.0,1.0,1.0,608.268,1.0,648.0,20.0,1.1389,0.942824
White,13,Right,18,Female,Yes,English,A,650,1,8,8,0.0,0.0,1.0,773.037,1.0,649.0,20.0,1.1616,0.872352
White,13,Right,18,Female,Yes,English,A,651,1,8,16,180.0,1.0,1.0,649.158,1.0,650.0,20.0,1.00572,0.850803
White,13,Right,18,Female,Yes,English,A,652,0,8,8,180.0,1.0,1.0,537.485,1.0,651.0,20.0,1.03065,0.932305
White,13,Right,18,Female,Yes,English,A,653,0,8,0,180.0,1.0,1.0,851.925,1.0,652.0,20.0,1.16102,0.849788
White,13,Right,18,Female,Yes,English,A,654,1,16,8,180.0,1.0,1.0,605.615,1.0,653.0,20.0,1.04777,0.843633
White,13,Right,18,Female,Yes,English,A,655,0,4,16,180.0,1.0,1.0,540.746,1.0,654.0,20.0,1.02154,0.920774
White,13,Right,18,Female,Yes,English,A,656,0,16,16,0.0,0.0,1.0,572.583,1.0,655.0,20.0,1.12405,0.997584
White,13,Right,18,Female,Yes,English,A,657,1,4,8,0.0,0.0,1.0,784.635,1.0,656.0,20.0,1.01,0.992665
White,13,Right,18,Female,Yes,English,A,658,0,16,0,0.0,0.0,1.0,530.036,1.0,657.0,20.0,1.19824,0.956637
White,13,Right,18,Female,Yes,English,A,659,0,16,4,180.0,1.0,1.0,967.493,1.0,658.0,20.0,1.00693,0.963851
White,13,Right,18,Female,Yes,English,A,660,1,0,4,0.0,0.0,1.0,524.246,1.0,659.0,20.0,1.06916,0.90464
White,13,Right,18,Female,Yes,English,A,661,1,8,0,0.0,0.0,1.0,631.102,1.0,660.0,20.0,1.007,0.835031
White,13,Right,18,Female,Yes,English,A,662,1,4,16,180.0,1.0,1.0,665.583,1.0,661.0,20.0,1.16342,0.864643
White,13,Right,18,Female,Yes,English,A,663,1,4,0,0.0,1.0,0.0,498.173,1.0,662.0,20.0,1.1358,0.983587
White,13,Right,18,Female,Yes,English,A,664,1,16,16,0.0,0.0,1.0,625.467,1.0,663.0,20.0,1.05545,0.956957
White,13,Right,18,Female,Yes,English,A,665,0,4,0,180.0,0.0,0.0,521.641,1.0,664.0,20.0,1.08827,0.921743
White,13,Right,18,Female,Yes,English,A,666,1,8,4,0.0,0.0,1.0,809.457,1.0,665.0,20.0,1.01539,0.817764
White,13,Right,18,Female,Yes,English,A,667,0,0,8,180.0,1.0,1.0,764.008,1.0,666.0,20.0,1.08912,0.985577
White,13,Right,18,Female,Yes,English,A,668,1,0,0,0.0,0.0,1.0,543.212,1.0,667.0,20.0,1.11194,0.892358
White,13,Right,18,Female,Yes,English,A,669,0,16,8,0.0,0.0,1.0,886.89,1.0,668.0,20.0,1.05014,0.900043
White,13,Right,18,Female,Yes,English,A,670,0,0,4,0.0,0.0,1.0,643.608,1.0,669.0,20.0,1.00481,0.989803
White,13,Right,18,Female,Yes,English,A,671,1,16,0,0.0,0.0,1.0,648.902,1.0,670.0,20.0,1.13808,0.962066
White,13,Right,18,Female,Yes,English,A,672,1,4,4,0.0,0.0,1.0,1062.78,1.0,671.0,20.0,1.16409,0.896277
White,13,Right,18,Female,Yes,English,A,673,1,8,16,180.0,1.0,1.0,961.003,1.0,672.0,21.0,1.08466,0.928025
White,13,Right,18,Female,Yes,English,A,674,0,0,4,180.0,1.0,1.0,827.473,1.0,673.0,21.0,1.11623,0.876665
White,13,Right,18,Female,Yes,English,A,675,1,8,0,0.0,0.0,1.0,764.828,1.0,674.0,21.0,1.17136,0.919873
White,13,Right,18,Female,Yes,English,A,676,0,8,8,180.0,1.0,1.0,571.004,1.0,675.0,21.0,1.11151,0.950604
White,13,Right,18,Female,Yes,English,A,677,0,4,4,0.0,0.0,1.0,677.703,1.0,676.0,21.0,1.06927,0.895023
White,13,Right,18,Female,Yes,English,A,678,0,16,4,0.0,0.0,1.0,607.508,1.0,677.0,21.0,1.06179,0.819833
White,13,Right,18,Female,Yes,English,A,679,1,4,8,180.0,0.0,0.0,503.974,1.0,678.0,21.0,1.07044,0.845229
White,13,Right,18,Female,Yes,English,A,680,1,16,8,0.0,0.0,1.0,664.225,1.0,679.0,21.0,1.14866,0.893506
White,13,Right,18,Female,Yes,English,A,681,0,0,16,180.0,1.0,1.0,560.834,1.0,680.0,21.0,1.0714,0.993771
White,13,Right,18,Female,Yes,English,A,682,0,16,0,0.0,0.0,1.0,673.284,1.0,681.0,21.0,1.15077,0.863516
White,13,Right,18,Female,Yes,English,A,683,1,0,8,0.0,0.0,1.0,701.32,1.0,682.0,21.0,1.14211,0.822533
White,13,Right,18,Female,Yes,English,A,684,1,16,4,180.0,1.0,1.0,835.265,1.0,683.0,21.0,1.0817,0.869981
White,13,Right,18,Female,Yes,English,A,685,1,4,4,180.0,1.0,1.0,689.017,1.0,684.0,21.0,1.07016,0.947194
White,13,Right,18,Female,Yes,English,A,686,0,16,16,180.0,1.0,1.0,825.481,1.0,685.0,21.0,1.05289,0.930402
White,13,Right,18,Female,Yes,English,A,687,1,16,16,0.0,0.0,1.0,655.944,1.0,686.0,21.0,1.04355,0.811347
White,13,Right,18,Female,Yes,English,A,688,1,4,16,180.0,1.0,1.0,662.815,1.0,687.0,21.0,1.08412,0.920879
White,13,Right,18,Female,Yes,English,A,689,1,0,4,180.0,1.0,1.0,650.955,1.0,688.0,21.0,1.19581,0.842837
White,13,Right,18,Female,Yes,English,A,690,0,16,8,180.0,1.0,1.0,557.515,1.0,689.0,21.0,1.18341,0.950931
White,13,Right,18,Female,Yes,English,A,691,1,8,8,0.0,0.0,1.0,848.108,1.0,690.0,21.0,1.15787,0.860574
White,13,Right,18,Female,Yes,English,A,692,1,0,16,0.0,0.0,1.0,724.9,1.0,691.0,21.0,1.10111,0.847231
White,13,Right,18,Female,Yes,English,A,693,0,8,16,0.0,0.0,1.0,583.745,1.0,692.0,21.0,1.03715,0.943607
White,13,Right,18,Female,Yes,English,A,694,0,8,4,180.0,1.0,1.0,1188.13,1.0,693.0,21.0,1.04527,0.934364
White,13,Right,18,Female,Yes,English,A,695,1,8,4,0.0,0.0,1.0,747.517,1.0,694.0,21.0,1.03302,0.971236
White,13,Right,18,Female,Yes,English,A,696,1,0,0,0.0,0.0,1.0,612.752,1.0,695.0,21.0,1.11517,0.938606
White,13,Right,18,Female,Yes,English,A,697,0,0,8,0.0,0.0,1.0,636.62,1.0,696.0,21.0,1.04455,0.908271
White,13,Right,18,Female,Yes,English,A,698,0,8,0,180.0,1.0,1.0,656.76,1.0,697.0,21.0,1.07807,0.921832
White,13,Right,18,Female,Yes,English,A,699,0,0,0,0.0,0.0,1.0,633.326,1.0,698.0,21.0,1.01471,0.890895
White,13,Right,18,Female,Yes,English,A,700,0,4,16,0.0,0.0,1.0,462.994,1.0,699.0,21.0,1.09386,0.857916
White,13,Right,18,Female,Yes,English,A,701,1,16,0,180.0,1.0,1.0,733.148,1.0,700.0,21.0,1.15803,0.96959
White,13,Right,18,Female,Yes,English,A,702,0,4,8,0.0,0.0,1.0,713.936,1.0,701.0,21.0,1.12953,0.829318
White,13,Right,18,Female,Yes,English,A,703,1,4,0,180.0,0.0,0.0,612.401,1.0,702.0,21.0,1.09226,0.820328
White,13,Right,18,Female,Yes,English,A,704,0,4,0,180.0,1.0,1.0,721.324,1.0,703.0,21.0,1.04562,0.883699
White,13,Right,18,Female,Yes,English,A,705,0,8,8,0.0,0.0,1.0,682.807,1.0,704.0,22.0,1.01825,0.93115
White,13,Right,18,Female,Yes,English,A,706,0,16,0,0.0,0.0,1.0,599.956,1.0,705.0,22.0,1.14293,0.882078
White,13,Right,18,Female,Yes,English,A,707,0,0,0,180.0,1.0,1.0,925.314,1.0,706.0,22.0,1.00806,0.809231
White,13,Right,18,Female,Yes,English,A,708,1,8,16,180.0,1.0,1.0,1100.99,1.0,707.0,22.0,1.0852,0.980507
White,13,Right,18,Female,Yes,English,A,709,1,8,8,0.0,0.0,1.0,626.496,1.0,708.0,22.0,1.02997,0.913386
White,13,Right,18,Female,Yes,English,A,710,0,16,16,180.0,1.0,1.0,637.219,1.0,709.0,22.0,1.19796,0.950785
White,13,Right,18,Female,Yes,English,A,711,1,16,0,0.0,0.0,1.0,643.462,1.0,710.0,22.0,1.07837,0.913749
White,13,Right,18,Female,Yes,English,A,712,1,8,4,0.0,0.0,1.0,958.582,1.0,711.0,22.0,1.13566,0.931168
White,13,Right,18,Female,Yes,English,A,713,0,0,8,0.0,0.0,1.0,845.256,1.0,712.0,22.0,1.04938,0.885494
White,13,Right,18,Female,Yes,English,A,714,0,4,4,0.0,0.0,1.0,601.633,1.0,713.0,22.0,1.19943,0.860497
White,13,Right,18,Female,Yes,English,A,715,1,16,4,0.0,0.0,1.0,555.483,1.0,714.0,22.0,1.07406,0.960555
White,13,Right,18,Female,Yes,English,A,716,0,4,16,180.0,1.0,1.0,915.984,1.0,715.0,22.0,1.16531,0.811028
White,13,Right,18,Female,Yes,English,A,717,0,8,4,0.0,0.0,1.0,672.731,1.0,716.0,22.0,1.19971,0.884188
White,13,Right,18,Female,Yes,English,A,718,0,0,4,0.0,0.0,1.0,721.174,1.0,717.0,22.0,1.17115,0.99446
White,13,Right,18,Female,Yes,English,A,719,1,4,4,180.0,1.0,1.0,685.326,1.0,718.0,22.0,1.074,0.903479
White,13,Right,18,Female,Yes,English,A,720,1,4,16,180.0,1.0,1.0,649.135,1.0,719.0,22.0,1.18791,0.801233
White,13,Right,18,Female,Yes,English,A,721,1,4,0,180.0,1.0,1.0,837.932,1.0,720.0,22.0,1.02555,0.831171
White,13,Right,18,Female,Yes,English,A,722,1,0,8,180.0,1.0,1.0,817.567,1.0,721.0,22.0,1.15623,0.957736
White,13,Right,18,Female,Yes,English,A,723,1,4,8,0.0,0.0,1.0,919.872,1.0,722.0,22.0,1.03585,0.831657
White,13,Right,18,Female,Yes,English,A,724,1,0,4,180.0,1.0,1.0,723.626,1.0,723.0,22.0,1.18854,0.912071
White,13,Right,18,Female,Yes,English,A,725,0,8,0,0.0,0.0,1.0,584.05,1.0,724.0,22.0,1.02477,0.897117
White,13,Right,18,Female,Yes,English,A,726,0,16,8,180.0,1.0,1.0,1101.54,1.0,725.0,22.0,1.12549,0.831127
White,13,Right,18,Female,Yes,English,A,727,1,16,16,180.0,0.0,0.0,552.247,1.0,726.0,22.0,1.13549,0.82854
White,13,Right,18,Female,Yes,English,A,728,0,16,4,180.0,1.0,1.0,610.747,1.0,727.0,22.0,1.04337,0.803333
White,13,Right,18,Female,Yes,English,A,729,1,0,16,0.0,0.0,1.0,651.955,1.0,728.0,22.0,1.05267,0.871014
White,13,Right,18,Female,Yes,English,A,730,0,0,16,0.0,0.0,1.0,547.238,1.0,729.0,22.0,1.09603,0.945404
White,13,Right,18,Female,Yes,English,A,731,0,4,0,180.0,1.0,1.0,792.483,1.0,730.0,22.0,1.17886,0.862814
White,13,Right,18,Female,Yes,English,A,732,1,8,0,180.0,1.0,1.0,818.751,1.0,731.0,22.0,1.0133,0.931681
White,13,Right,18,Female,Yes,English,A,733,1,16,8,0.0,0.0,1.0,733.793,1.0,732.0,22.0,1.13877,0.987805
White,13,Right,18,Female,Yes,English,A,734,0,8,16,0.0,0.0,1.0,668.034,1.0,733.0,22.0,1.09662,0.968138
White,13,Right,18,Female,Yes,English,A,735,1,0,0,180.0,1.0,1.0,741.223,1.0,734.0,22.0,1.08106,0.974163
White,13,Right,18,Female,Yes,English,A,736,0,4,8,180.0,1.0,1.0,563.796,1.0,735.0,22.0,1.13504,0.848184
White,13,Right,18,Female,Yes,English,A,737,1,4,16,0.0,0.0,1.0,719.925,1.0,736.0,23.0,1.14022,0.829294
White,13,Right,18,Female,Yes,English,A,738,0,4,8,180.0,1.0,1.0,718.265,1.0,737.0,23.0,1.17594,0.988803
White,13,Right,18,Female,Yes,English,A,739,1,0,8,0.0,0.0,1.0,685.77,1.0,738.0,23.0,1.17973,0.826727
White,13,Right,18,Female,Yes,English,A,740,1,8,4,180.0,1.0,1.0,692.014,1.0,739.0,23.0,1.0445,0.982272
White,13,Right,18,Female,Yes,English,A,741,0,16,0,180.0,1.0,1.0,647.35,1.0,740.0,23.0,1.04541,0.862357
White,13,Right,18,Female,Yes,English,A,742,0,0,8,180.0,1.0,1.0,601.301,1.0,741.0,23.0,1.15831,0.898359
White,13,Right,18,Female,Yes,English,A,743,0,16,4,180.0,1.0,1.0,757.802,1.0,742.0,23.0,1.07326,0.882466
White,13,Right,18,Female,Yes,English,A,744,1,0,0,0.0,0.0,1.0,731.898,1.0,743.0,23.0,1.12177,0.967863
White,13,Right,18,Female,Yes,English,A,745,0,4,0,0.0,0.0,1.0,888.805,1.0,744.0,23.0,1.11972,0.87821
White,13,Right,18,Female,Yes,English,A,746,1,0,16,0.0,0.0,1.0,679.652,1.0,745.0,23.0,1.05017,0.81051
White,13,Right,18,Female,Yes,English,A,747,0,8,8,180.0,1.0,1.0,730.082,1.0,746.0,23.0,1.03088,0.95447
White,13,Right,18,Female,Yes,English,A,748,0,8,4,180.0,1.0,1.0,615.911,1.0,747.0,23.0,1.09983,0.96686
White,13,Right,18,Female,Yes,English,A,749,1,16,0,180.0,1.0,1.0,700.747,1.0,748.0,23.0,1.18376,0.810683
White,13,Right,18,Female,Yes,English,A,750,1,4,4,0.0,0.0,1.0,908.527,1.0,749.0,23.0,1.10811,0.848438
White,13,Right,18,Female,Yes,English,A,751,1,4,0,0.0,0.0,1.0,710.539,1.0,750.0,23.0,1.14079,0.828985
White,13,Right,18,Female,Yes,English,A,752,1,16,8,0.0,0.0,1.0,579.258,1.0,751.0,23.0,1.05894,0.854591
White,13,Right,18,Female,Yes,English,A,753,0,0,0,0.0,0.0,1.0,575.491,1.0,752.0,23.0,1.08992,0.863486
White,13,Right,18,Female,Yes,English,A,754,1,8,8,180.0,1.0,1.0,1112.52,1.0,753.0,23.0,1.03219,0.960139
White,13,Right,18,Female,Yes,English,A,755,1,8,0,180.0,1.0,1.0,676.077,1.0,754.0,23.0,1.11927,0.979151
White,13,Right,18,Female,Yes,English,A,756,0,4,16,180.0,1.0,1.0,1139.91,1.0,755.0,23.0,1.12398,0.970858
White,13,Right,18,Female,Yes,English,A,757,0,0,16,180.0,1.0,1.0,481.444,1.0,756.0,23.0,1.131,0.929012
White,13,Right,18,Female,Yes,English,A,758,1,0,4,0.0,0.0,1.0,760.123,1.0,757.0,23.0,1.15982,0.949201
White,13,Right,18,Female,Yes,English,A,759,0,8,0,180.0,1.0,1.0,687.71,1.0,758.0,23.0,1.14543,0.904435
White,13,Right,18,Female,Yes,English,A,760,0,16,8,180.0,1.0,1.0,517.56,1.0,759.0,23.0,1.15972,0.983683
White,13,Right,18,Female,Yes,English,A,761,0,0,4,0.0,0.0,1.0,572.294,1.0,760.0,23.0,1.00208,0.801709
White,13,Right,18,Female,Yes,English,A,762,1,8,16,180.0,1.0,1.0,505.453,1.0,761.0,23.0,1.147,0.953531
White,13,Right,18,Female,Yes,English,A,763,0,16,16,0.0,0.0,1.0,465.439,1.0,762.0,23.0,1.00996,0.806206
White,13,Right,18,Female,Yes,English,A,764,0,8,16,0.0,0.0,1.0,503.48,1.0,763.0,23.0,1.0996,0.999025
White,13,Right,18,Female,Yes,English,A,765,1,16,4,180.0,0.0,0.0,488.25,1.0,764.0,23.0,1.14654,0.846101
White,13,Right,18,Female,Yes,English,A,766,0,4,4,0.0,0.0,1.0,639.969,1.0,765.0,23.0,1.13519,0.892442
White,13,Right,18,Female,Yes,English,A,767,1,4,8,0.0,0.0,1.0,947.486,1.0,766.0,23.0,1.1045,0.893117
White,13,Right,18,Female,Yes,English,A,768,1,16,16,0.0,0.0,1.0,798.943,1.0,767.0,23.0,1.03445,0.955058
