Ethnicity,Subject Number,Preferred Hand,Age,Gender,Color blind,First Language,Room,TrialNumber,background,turtles,tortoises,target_id,resp,hit,rt,ran,order,block,iti,fix_duration
Multiracial,3,Left,18,Female,Yes,English,E,1,1,4,8,0.0,0.0,1.0,1081.49,1.0,0.0,0.0,1.01364,0.864538
Multiracial,3,Left,18,Female,Yes,English,E,2,1,8,8,0.0,0.0,1.0,631.361,1.0,1.0,0.0,1.15054,0.926299
Multiracial,3,Left,18,Female,Yes,English,E,3,1,0,16,0.0,0.0,1.0,766.866,1.0,2.0,0.0,1.1771,0.986985
Multiracial,3,Left,18,Female,Yes,English,E,4,0,8,8,180.0,1.0,1.0,1483.66,1.0,3.0,0.0,1.18247,0.976918
Multiracial,3,Left,18,Female,Yes,English,E,5,1,0,4,0.0,0.0,1.0,602.88,1.0,4.0,0.0,1.13372,0.837707
Multiracial,3,Left,18,Female,Yes,English,E,6,0,8,4,180.0,1.0,1.0,801.2,1.0,5.0,0.0,1.0395,0.959744
Multiracial,3,Left,18,Female,Yes,English,E,7,1,0,0,180.0,1.0,1.0,716.119,1.0,6.0,0.0,1.00749,0.948922
Multiracial,3,Left,18,Female,Yes,English,E,8,0,0,0,0.0,0.0,1.0,707.508,1.0,7.0,0.0,1.10382,0.938763
Multiracial,3,Left,18,Female,Yes,English,E,9,1,8,0,0.0,0.0,1.0,616.119,1.0,8.0,0.0,1.02446,0.806343
Multiracial,3,Left,18,Female,Yes,English,E,10,1,0,8,180.0,1.0,1.0,862.229,1.0,9.0,0.0,1.06197,0.848038
Multiracial,3,Left,18,Female,Yes,English,E,11,1,4,0,0.0,0.0,1.0,689.509,1.0,10.0,0.0,1.08236,0.975152
Multiracial,3,Left,18,Female,Yes,English,E,12,1,16,8,0.0,0.0,1.0,821.177,1.0,11.0,0.0,1.10809,0.992578
Multiracial,3,Left,18,Female,Yes,English,E,13,0,4,8,0.0,0.0,1.0,1145.84,1.0,12.0,0.0,1.05843,0.878554
Multiracial,3,Left,18,Female,Yes,English,E,14,0,16,8,180.0,1.0,1.0,977.355,1.0,13.0,0.0,1.12778,0.943767
Multiracial,3,Left,18,Female,Yes,English,E,15,0,4,16,0.0,0.0,1.0,681.63,1.0,14.0,0.0,1.1177,0.994972
Multiracial,3,Left,18,Female,Yes,English,E,16,1,4,4,180.0,1.0,1.0,1123.03,1.0,15.0,0.0,1.16668,0.997604
Multiracial,3,Left,18,Female,Yes,English,E,17,0,16,4,180.0,1.0,1.0,757.803,1.0,16.0,0.0,1.04852,0.875193
Multiracial,3,Left,18,Female,Yes,English,E,18,0,8,16,180.0,1.0,1.0,1154.52,1.0,17.0,0.0,1.14168,0.961682
Multiracial,3,Left,18,Female,Yes,English,E,19,0,4,4,180.0,1.0,1.0,704.001,1.0,18.0,0.0,1.08175,0.862992
Multiracial,3,Left,18,Female,Yes,English,E,20,0,16,16,0.0,0.0,1.0,719.507,1.0,19.0,0.0,1.03362,0.85809
Multiracial,3,Left,18,Female,Yes,English,E,21,1,4,16,0.0,0.0,1.0,548.839,1.0,20.0,0.0,1.09567,0.942301
Multiracial,3,Left,18,Female,Yes,English,E,22,1,8,16,180.0,0.0,0.0,517.082,1.0,21.0,0.0,1.12681,0.842497
Multiracial,3,Left,18,Female,Yes,English,E,23,1,16,0,0.0,0.0,1.0,1441.59,1.0,22.0,0.0,1.17643,0.915005
Multiracial,3,Left,18,Female,Yes,English,E,24,1,16,16,180.0,1.0,1.0,671.309,1.0,23.0,0.0,1.1985,0.879171
Multiracial,3,Left,18,Female,Yes,English,E,25,1,8,4,0.0,0.0,1.0,707.989,1.0,24.0,0.0,1.17202,0.99815
Multiracial,3,Left,18,Female,Yes,English,E,26,0,16,0,0.0,0.0,1.0,1257.63,1.0,25.0,0.0,1.07378,0.889747
Multiracial,3,Left,18,Female,Yes,English,E,27,0,8,0,180.0,1.0,1.0,1149.92,1.0,26.0,0.0,1.01636,0.862254
Multiracial,3,Left,18,Female,Yes,English,E,28,0,0,4,180.0,1.0,1.0,927.378,1.0,27.0,0.0,1.19037,0.948544
Multiracial,3,Left,18,Female,Yes,English,E,29,1,16,4,180.0,1.0,1.0,1381.39,1.0,28.0,0.0,1.09308,0.808758
Multiracial,3,Left,18,Female,Yes,English,E,30,0,4,0,180.0,1.0,1.0,805.5,1.0,29.0,0.0,1.16125,0.964315
Multiracial,3,Left,18,Female,Yes,English,E,31,0,0,8,180.0,1.0,1.0,700.674,1.0,30.0,0.0,1.1551,0.83417
Multiracial,3,Left,18,Female,Yes,English,E,32,0,0,16,0.0,0.0,1.0,697.674,1.0,31.0,0.0,1.16998,0.931479
Multiracial,3,Left,18,Female,Yes,English,E,33,1,0,4,0.0,0.0,1.0,574.26,1.0,32.0,1.0,1.01683,0.958321
Multiracial,3,Left,18,Female,Yes,English,E,34,1,16,16,180.0,1.0,1.0,942.098,1.0,33.0,1.0,1.03279,0.812642
Multiracial,3,Left,18,Female,Yes,English,E,35,0,4,4,180.0,1.0,1.0,743.887,1.0,34.0,1.0,1.07747,0.849043
Multiracial,3,Left,18,Female,Yes,English,E,36,0,16,0,180.0,1.0,1.0,1021.59,1.0,35.0,1.0,1.02099,0.900519
Multiracial,3,Left,18,Female,Yes,English,E,37,0,4,8,0.0,0.0,1.0,656.307,1.0,36.0,1.0,1.04981,0.931468
Multiracial,3,Left,18,Female,Yes,English,E,38,1,0,0,180.0,1.0,1.0,657.339,1.0,37.0,1.0,1.1151,0.975038
Multiracial,3,Left,18,Female,Yes,English,E,39,1,8,4,0.0,0.0,1.0,474.407,1.0,38.0,1.0,1.00673,0.911525
Multiracial,3,Left,18,Female,Yes,English,E,40,1,0,16,0.0,0.0,1.0,699.09,1.0,39.0,1.0,1.02524,0.887194
Multiracial,3,Left,18,Female,Yes,English,E,41,0,16,4,0.0,0.0,1.0,784.069,1.0,40.0,1.0,1.10743,0.802135
Multiracial,3,Left,18,Female,Yes,English,E,42,0,16,8,0.0,0.0,1.0,632.499,1.0,41.0,1.0,1.19246,0.943095
Multiracial,3,Left,18,Female,Yes,English,E,43,0,0,0,180.0,1.0,1.0,599.651,1.0,42.0,1.0,1.16515,0.98533
Multiracial,3,Left,18,Female,Yes,English,E,44,0,0,16,180.0,1.0,1.0,480.179,1.0,43.0,1.0,1.18268,0.932613
Multiracial,3,Left,18,Female,Yes,English,E,45,1,4,8,0.0,0.0,1.0,797.984,1.0,44.0,1.0,1.01646,0.853034
Multiracial,3,Left,18,Female,Yes,English,E,46,0,8,16,180.0,1.0,1.0,962.603,1.0,45.0,1.0,1.14296,0.98282
Multiracial,3,Left,18,Female,Yes,English,E,47,1,16,0,180.0,1.0,1.0,729.319,1.0,46.0,1.0,1.00368,0.853391
Multiracial,3,Left,18,Female,Yes,English,E,48,1,16,4,0.0,0.0,1.0,1083.25,1.0,47.0,1.0,1.06323,0.841228
Multiracial,3,Left,18,Female,Yes,English,E,49,1,8,16,180.0,1.0,1.0,730.472,1.0,48.0,1.0,1.13903,0.977456
Multiracial,3,Left,18,Female,Yes,English,E,50,0,16,16,180.0,1.0,1.0,877.914,1.0,49.0,1.0,1.17877,0.969087
Multiracial,3,Left,18,Female,Yes,English,E,51,1,4,4,180.0,1.0,1.0,783.618,1.0,50.0,1.0,1.12933,0.865753
Multiracial,3,Left,18,Female,Yes,English,E,52,0,0,8,180.0,1.0,1.0,781.446,1.0,51.0,1.0,1.08157,0.962332
Multiracial,3,Left,18,Female,Yes,English,E,53,1,4,16,0.0,0.0,1.0,662.025,1.0,52.0,1.0,1.07241,0.943588
Multiracial,3,Left,18,Female,Yes,English,E,54,0,4,16,0.0,0.0,1.0,565.128,1.0,53.0,1.0,1.13464,0.944087
Multiracial,3,Left,18,Female,Yes,English,E,55,1,8,8,180.0,1.0,1.0,509.701,1.0,54.0,1.0,1.18964,0.805833
Multiracial,3,Left,18,Female,Yes,English,E,56,0,8,8,0.0,0.0,1.0,1258.56,1.0,55.0,1.0,1.08663,0.92841
Multiracial,3,Left,18,Female,Yes,English,E,57,0,4,0,0.0,0.0,1.0,786.266,1.0,56.0,1.0,1.15275,0.874507
Multiracial,3,Left,18,Female,Yes,English,E,58,0,0,4,0.0,0.0,1.0,697.699,1.0,57.0,1.0,1.14898,0.810922
Multiracial,3,Left,18,Female,Yes,English,E,59,1,16,8,0.0,0.0,1.0,668.532,1.0,58.0,1.0,1.17657,0.813607
Multiracial,3,Left,18,Female,Yes,English,E,60,1,4,0,0.0,0.0,1.0,947.377,1.0,59.0,1.0,1.11025,0.974255
Multiracial,3,Left,18,Female,Yes,English,E,61,1,8,0,180.0,1.0,1.0,997.255,1.0,60.0,1.0,1.07219,0.871609
Multiracial,3,Left,18,Female,Yes,English,E,62,1,0,8,180.0,1.0,1.0,653.453,1.0,61.0,1.0,1.11721,0.833603
Multiracial,3,Left,18,Female,Yes,English,E,63,0,8,0,0.0,0.0,1.0,707.91,1.0,62.0,1.0,1.07127,0.833061
Multiracial,3,Left,18,Female,Yes,English,E,64,0,8,4,180.0,1.0,1.0,960.73,1.0,63.0,1.0,1.07357,0.892601
Multiracial,3,Left,18,Female,Yes,English,E,65,1,16,4,180.0,1.0,1.0,566.241,1.0,64.0,2.0,1.169,0.87686
Multiracial,3,Left,18,Female,Yes,English,E,66,1,16,16,180.0,1.0,1.0,720.604,1.0,65.0,2.0,1.0078,0.851261
Multiracial,3,Left,18,Female,Yes,English,E,67,1,8,0,0.0,0.0,1.0,1024.26,1.0,66.0,2.0,1.06091,0.941757
Multiracial,3,Left,18,Female,Yes,English,E,68,0,0,0,0.0,0.0,1.0,613.782,1.0,67.0,2.0,1.00865,0.822758
Multiracial,3,Left,18,Female,Yes,English,E,69,1,16,0,180.0,0.0,0.0,997.256,1.0,68.0,2.0,1.00123,0.935181
Multiracial,3,Left,18,Female,Yes,English,E,70,1,8,16,180.0,1.0,1.0,744.154,1.0,69.0,2.0,1.19839,0.959371
Multiracial,3,Left,18,Female,Yes,English,E,71,0,8,4,180.0,1.0,1.0,1283.9,1.0,70.0,2.0,1.1582,0.832327
Multiracial,3,Left,18,Female,Yes,English,E,72,0,16,0,180.0,1.0,1.0,693.622,1.0,71.0,2.0,1.07294,0.92348
Multiracial,3,Left,18,Female,Yes,English,E,73,0,8,16,180.0,1.0,1.0,760.275,1.0,72.0,2.0,1.19212,0.828336
Multiracial,3,Left,18,Female,Yes,English,E,74,0,0,16,180.0,1.0,1.0,918.72,1.0,73.0,2.0,1.09142,0.809432
Multiracial,3,Left,18,Female,Yes,English,E,75,1,4,8,180.0,1.0,1.0,508.302,1.0,74.0,2.0,1.05516,0.898513
Multiracial,3,Left,18,Female,Yes,English,E,76,1,8,8,180.0,1.0,1.0,683.799,1.0,75.0,2.0,1.11946,0.947752
Multiracial,3,Left,18,Female,Yes,English,E,77,1,4,0,180.0,1.0,1.0,762.293,1.0,76.0,2.0,1.01053,0.949907
Multiracial,3,Left,18,Female,Yes,English,E,78,1,4,16,0.0,0.0,1.0,1522.63,1.0,77.0,2.0,1.11908,0.876165
Multiracial,3,Left,18,Female,Yes,English,E,79,1,0,16,0.0,0.0,1.0,590.252,1.0,78.0,2.0,1.02712,0.823299
Multiracial,3,Left,18,Female,Yes,English,E,80,0,16,8,0.0,0.0,1.0,1228.43,1.0,79.0,2.0,1.03594,0.961738
Multiracial,3,Left,18,Female,Yes,English,E,81,1,16,8,0.0,0.0,1.0,1022.76,1.0,80.0,2.0,1.11707,0.965671
Multiracial,3,Left,18,Female,Yes,English,E,82,0,16,4,0.0,0.0,1.0,678.408,1.0,81.0,2.0,1.07057,0.869749
Multiracial,3,Left,18,Female,Yes,English,E,83,1,0,4,0.0,0.0,1.0,538.764,1.0,82.0,2.0,1.06469,0.912759
Multiracial,3,Left,18,Female,Yes,English,E,84,1,8,4,0.0,0.0,1.0,798.842,1.0,83.0,2.0,1.15729,0.879132
Multiracial,3,Left,18,Female,Yes,English,E,85,0,16,16,0.0,0.0,1.0,643.775,1.0,84.0,2.0,1.03721,0.952339
Multiracial,3,Left,18,Female,Yes,English,E,86,1,4,4,0.0,0.0,1.0,658.156,1.0,85.0,2.0,1.00407,0.82755
Multiracial,3,Left,18,Female,Yes,English,E,87,0,4,4,0.0,0.0,1.0,855.247,1.0,86.0,2.0,1.19547,0.826335
Multiracial,3,Left,18,Female,Yes,English,E,88,0,8,0,0.0,0.0,1.0,465.98,1.0,87.0,2.0,1.18271,0.883065
Multiracial,3,Left,18,Female,Yes,English,E,89,0,8,8,0.0,0.0,1.0,626.939,1.0,88.0,2.0,1.1315,0.941839
Multiracial,3,Left,18,Female,Yes,English,E,90,0,0,8,180.0,1.0,1.0,969.294,1.0,89.0,2.0,1.1632,0.895449
Multiracial,3,Left,18,Female,Yes,English,E,91,1,0,0,180.0,1.0,1.0,649.03,1.0,90.0,2.0,1.09405,0.800996
Multiracial,3,Left,18,Female,Yes,English,E,92,0,4,16,180.0,1.0,1.0,908.276,1.0,91.0,2.0,1.13041,0.995336
Multiracial,3,Left,18,Female,Yes,English,E,93,0,4,8,180.0,1.0,1.0,949.391,1.0,92.0,2.0,1.07366,0.9988
Multiracial,3,Left,18,Female,Yes,English,E,94,1,0,8,0.0,0.0,1.0,1667.38,1.0,93.0,2.0,1.17814,0.917749
Multiracial,3,Left,18,Female,Yes,English,E,95,0,0,4,180.0,0.0,0.0,460.266,1.0,94.0,2.0,1.07575,0.985505
Multiracial,3,Left,18,Female,Yes,English,E,96,0,4,0,0.0,0.0,1.0,956.637,1.0,95.0,2.0,1.04167,0.866163
Multiracial,3,Left,18,Female,Yes,English,E,97,1,8,4,180.0,1.0,1.0,903.942,1.0,96.0,3.0,1.19788,0.876652
Multiracial,3,Left,18,Female,Yes,English,E,98,0,0,8,0.0,0.0,1.0,677.401,1.0,97.0,3.0,1.03459,0.855509
Multiracial,3,Left,18,Female,Yes,English,E,99,0,8,8,0.0,0.0,1.0,703.646,1.0,98.0,3.0,1.0791,0.846576
Multiracial,3,Left,18,Female,Yes,English,E,100,1,4,16,180.0,1.0,1.0,595.038,1.0,99.0,3.0,1.02135,0.822737
Multiracial,3,Left,18,Female,Yes,English,E,101,1,0,8,0.0,0.0,1.0,841.129,1.0,100.0,3.0,1.06136,0.933223
Multiracial,3,Left,18,Female,Yes,English,E,102,1,16,8,0.0,0.0,1.0,632.529,1.0,101.0,3.0,1.1948,0.84244
Multiracial,3,Left,18,Female,Yes,English,E,103,1,8,0,180.0,1.0,1.0,802.979,1.0,102.0,3.0,1.1013,0.93953
Multiracial,3,Left,18,Female,Yes,English,E,104,0,4,0,0.0,0.0,1.0,824.439,1.0,103.0,3.0,1.17281,0.903517
Multiracial,3,Left,18,Female,Yes,English,E,105,1,0,16,180.0,1.0,1.0,673.911,1.0,104.0,3.0,1.06491,0.913347
Multiracial,3,Left,18,Female,Yes,English,E,106,0,4,16,0.0,0.0,1.0,705.799,1.0,105.0,3.0,1.13385,0.938749
Multiracial,3,Left,18,Female,Yes,English,E,107,0,0,0,0.0,0.0,1.0,493.879,1.0,106.0,3.0,1.18373,0.803625
Multiracial,3,Left,18,Female,Yes,English,E,108,1,0,4,180.0,1.0,1.0,529.785,1.0,107.0,3.0,1.01201,0.955301
Multiracial,3,Left,18,Female,Yes,English,E,109,0,16,16,0.0,0.0,1.0,625.566,1.0,108.0,3.0,1.01488,0.902659
Multiracial,3,Left,18,Female,Yes,English,E,110,1,16,4,180.0,1.0,1.0,633.58,1.0,109.0,3.0,1.11384,0.883043
Multiracial,3,Left,18,Female,Yes,English,E,111,0,16,8,0.0,0.0,1.0,931.782,1.0,110.0,3.0,1.02585,0.828076
Multiracial,3,Left,18,Female,Yes,English,E,112,0,16,4,0.0,0.0,1.0,806.623,1.0,111.0,3.0,1.00123,0.906102
Multiracial,3,Left,18,Female,Yes,English,E,113,1,4,8,180.0,1.0,1.0,559.897,1.0,112.0,3.0,1.1454,0.891204
Multiracial,3,Left,18,Female,Yes,English,E,114,0,8,0,0.0,0.0,1.0,689.737,1.0,113.0,3.0,1.15153,0.825626
Multiracial,3,Left,18,Female,Yes,English,E,115,0,4,4,0.0,0.0,1.0,668.973,1.0,114.0,3.0,1.04896,0.922342
Multiracial,3,Left,18,Female,Yes,English,E,116,1,0,0,180.0,1.0,1.0,468.745,1.0,115.0,3.0,1.13035,0.957191
Multiracial,3,Left,18,Female,Yes,English,E,117,1,8,16,180.0,0.0,0.0,513.541,1.0,116.0,3.0,1.13106,0.84677
Multiracial,3,Left,18,Female,Yes,English,E,118,1,16,0,180.0,1.0,1.0,863.817,1.0,117.0,3.0,1.17926,0.953512
Multiracial,3,Left,18,Female,Yes,English,E,119,1,4,4,180.0,1.0,1.0,995.768,1.0,118.0,3.0,1.12504,0.893539
Multiracial,3,Left,18,Female,Yes,English,E,120,0,0,16,0.0,0.0,1.0,746.974,1.0,119.0,3.0,1.09217,0.820138
Multiracial,3,Left,18,Female,Yes,English,E,121,0,4,8,0.0,0.0,1.0,1022.3,1.0,120.0,3.0,1.0213,0.872879
Multiracial,3,Left,18,Female,Yes,English,E,122,0,16,0,180.0,1.0,1.0,965.805,1.0,121.0,3.0,1.12422,0.917774
Multiracial,3,Left,18,Female,Yes,English,E,123,0,8,16,0.0,0.0,1.0,578.319,1.0,122.0,3.0,1.0313,0.953015
Multiracial,3,Left,18,Female,Yes,English,E,124,0,0,4,180.0,1.0,1.0,862.296,1.0,123.0,3.0,1.08391,0.974253
Multiracial,3,Left,18,Female,Yes,English,E,125,0,8,4,0.0,0.0,1.0,606.767,1.0,124.0,3.0,1.18675,0.860341
Multiracial,3,Left,18,Female,Yes,English,E,126,1,4,0,180.0,1.0,1.0,500.595,1.0,125.0,3.0,1.0902,0.853959
Multiracial,3,Left,18,Female,Yes,English,E,127,1,16,16,180.0,1.0,1.0,1001.31,1.0,126.0,3.0,1.06481,0.918277
Multiracial,3,Left,18,Female,Yes,English,E,128,1,8,8,180.0,1.0,1.0,830.696,1.0,127.0,3.0,1.18057,0.981774
Multiracial,3,Left,18,Female,Yes,English,E,129,0,8,4,0.0,0.0,1.0,775.787,1.0,128.0,4.0,1.13715,0.878865
Multiracial,3,Left,18,Female,Yes,English,E,130,0,0,0,0.0,0.0,1.0,477.096,1.0,129.0,4.0,1.01631,0.947212
Multiracial,3,Left,18,Female,Yes,English,E,131,1,4,16,180.0,1.0,1.0,829.136,1.0,130.0,4.0,1.06349,0.869869
Multiracial,3,Left,18,Female,Yes,English,E,132,1,8,16,180.0,1.0,1.0,921.348,1.0,131.0,4.0,1.08897,0.811726
Multiracial,3,Left,18,Female,Yes,English,E,133,1,4,8,180.0,1.0,1.0,562.518,1.0,132.0,4.0,1.06736,0.982935
Multiracial,3,Left,18,Female,Yes,English,E,134,0,0,8,0.0,0.0,1.0,1088.49,1.0,133.0,4.0,1.13243,0.805485
Multiracial,3,Left,18,Female,Yes,English,E,135,0,0,16,180.0,1.0,1.0,606.485,1.0,134.0,4.0,1.19227,0.918352
Multiracial,3,Left,18,Female,Yes,English,E,136,1,0,8,180.0,1.0,1.0,801.866,1.0,135.0,4.0,1.19756,0.810289
Multiracial,3,Left,18,Female,Yes,English,E,137,1,16,4,0.0,0.0,1.0,804.534,1.0,136.0,4.0,1.04424,0.974955
Multiracial,3,Left,18,Female,Yes,English,E,138,0,16,4,0.0,0.0,1.0,714.047,1.0,137.0,4.0,1.07459,0.910327
Multiracial,3,Left,18,Female,Yes,English,E,139,1,0,16,0.0,0.0,1.0,641.751,1.0,138.0,4.0,1.17428,0.97845
Multiracial,3,Left,18,Female,Yes,English,E,140,0,16,16,0.0,0.0,1.0,659.311,1.0,139.0,4.0,1.02898,0.989221
Multiracial,3,Left,18,Female,Yes,English,E,141,1,4,4,180.0,1.0,1.0,646.619,1.0,140.0,4.0,1.1474,0.908766
Multiracial,3,Left,18,Female,Yes,English,E,142,0,0,4,180.0,1.0,1.0,545.902,1.0,141.0,4.0,1.00185,0.858214
Multiracial,3,Left,18,Female,Yes,English,E,143,0,4,8,0.0,0.0,1.0,631.371,1.0,142.0,4.0,1.19399,0.80708
Multiracial,3,Left,18,Female,Yes,English,E,144,1,16,8,0.0,0.0,1.0,822.866,1.0,143.0,4.0,1.06449,0.920625
Multiracial,3,Left,18,Female,Yes,English,E,145,0,16,0,180.0,1.0,1.0,595.552,1.0,144.0,4.0,1.19676,0.929122
Multiracial,3,Left,18,Female,Yes,English,E,146,0,4,16,180.0,1.0,1.0,413.773,1.0,145.0,4.0,1.14206,0.963707
Multiracial,3,Left,18,Female,Yes,English,E,147,1,8,8,180.0,1.0,1.0,926.777,1.0,146.0,4.0,1.16371,0.972706
Multiracial,3,Left,18,Female,Yes,English,E,148,1,8,4,180.0,1.0,1.0,446.151,1.0,147.0,4.0,1.10294,0.965019
Multiracial,3,Left,18,Female,Yes,English,E,149,0,8,0,0.0,0.0,1.0,788.288,1.0,148.0,4.0,1.12973,0.844429
Multiracial,3,Left,18,Female,Yes,English,E,150,1,16,0,180.0,1.0,1.0,628.279,1.0,149.0,4.0,1.0309,0.802608
Multiracial,3,Left,18,Female,Yes,English,E,151,0,4,0,180.0,1.0,1.0,582.666,1.0,150.0,4.0,1.06886,0.951351
Multiracial,3,Left,18,Female,Yes,English,E,152,1,0,4,180.0,0.0,0.0,389.385,1.0,151.0,4.0,1.03846,0.926715
Multiracial,3,Left,18,Female,Yes,English,E,153,1,0,0,0.0,0.0,1.0,654.535,1.0,152.0,4.0,1.19799,0.812196
Multiracial,3,Left,18,Female,Yes,English,E,154,0,8,8,0.0,0.0,1.0,730.922,1.0,153.0,4.0,1.02253,0.959145
Multiracial,3,Left,18,Female,Yes,English,E,155,1,8,0,0.0,1.0,0.0,557.779,1.0,154.0,4.0,1.12782,0.913978
Multiracial,3,Left,18,Female,Yes,English,E,156,1,16,16,0.0,0.0,1.0,857.8,1.0,155.0,4.0,1.16059,0.938875
Multiracial,3,Left,18,Female,Yes,English,E,157,0,16,8,180.0,1.0,1.0,911.653,1.0,156.0,4.0,1.13555,0.888846
Multiracial,3,Left,18,Female,Yes,English,E,158,1,4,0,0.0,0.0,1.0,734.925,1.0,157.0,4.0,1.12201,0.90364
Multiracial,3,Left,18,Female,Yes,English,E,159,0,4,4,0.0,0.0,1.0,704.12,1.0,158.0,4.0,1.06717,0.944836
Multiracial,3,Left,18,Female,Yes,English,E,160,0,8,16,180.0,1.0,1.0,597.456,1.0,159.0,4.0,1.00893,0.864827
Multiracial,3,Left,18,Female,Yes,English,E,161,1,16,4,180.0,1.0,1.0,748.615,1.0,160.0,5.0,1.07362,0.979053
Multiracial,3,Left,18,Female,Yes,English,E,162,0,0,0,180.0,1.0,1.0,598.005,1.0,161.0,5.0,1.18568,0.99697
Multiracial,3,Left,18,Female,Yes,English,E,163,1,4,8,180.0,1.0,1.0,563.5,1.0,162.0,5.0,1.04488,0.968104
Multiracial,3,Left,18,Female,Yes,English,E,164,0,4,16,180.0,0.0,0.0,537.006,1.0,163.0,5.0,1.17434,0.904341
Multiracial,3,Left,18,Female,Yes,English,E,165,1,16,16,0.0,0.0,1.0,580.158,1.0,164.0,5.0,1.14505,0.873004
Multiracial,3,Left,18,Female,Yes,English,E,166,0,16,16,0.0,0.0,1.0,714.295,1.0,165.0,5.0,1.09763,0.844222
Multiracial,3,Left,18,Female,Yes,English,E,167,0,8,0,180.0,1.0,1.0,802.402,1.0,166.0,5.0,1.06953,0.927387
Multiracial,3,Left,18,Female,Yes,English,E,168,1,4,16,0.0,0.0,1.0,808.052,1.0,167.0,5.0,1.00911,0.891332
Multiracial,3,Left,18,Female,Yes,English,E,169,0,0,8,180.0,1.0,1.0,1703.74,1.0,168.0,5.0,1.13115,0.81015
Multiracial,3,Left,18,Female,Yes,English,E,170,0,0,4,0.0,0.0,1.0,858.577,1.0,169.0,5.0,1.11907,0.834056
Multiracial,3,Left,18,Female,Yes,English,E,171,0,8,4,0.0,0.0,1.0,1000.25,1.0,170.0,5.0,1.15315,0.835334
Multiracial,3,Left,18,Female,Yes,English,E,172,1,8,4,180.0,1.0,1.0,910.269,1.0,171.0,5.0,1.10172,0.923728
Multiracial,3,Left,18,Female,Yes,English,E,173,0,16,0,0.0,0.0,1.0,1364.53,1.0,172.0,5.0,1.1094,0.938857
Multiracial,3,Left,18,Female,Yes,English,E,174,1,8,16,0.0,0.0,1.0,460.058,1.0,173.0,5.0,1.19387,0.969092
Multiracial,3,Left,18,Female,Yes,English,E,175,0,8,8,0.0,0.0,1.0,902.656,1.0,174.0,5.0,1.10334,0.856548
Multiracial,3,Left,18,Female,Yes,English,E,176,1,16,0,0.0,0.0,1.0,730.297,1.0,175.0,5.0,1.04132,0.872968
Multiracial,3,Left,18,Female,Yes,English,E,177,0,8,16,0.0,0.0,1.0,632.356,1.0,176.0,5.0,1.11044,0.847432
Multiracial,3,Left,18,Female,Yes,English,E,178,0,4,8,180.0,1.0,1.0,817.541,1.0,177.0,5.0,1.155,0.906259
Multiracial,3,Left,18,Female,Yes,English,E,179,0,4,4,180.0,1.0,1.0,710.071,1.0,178.0,5.0,1.16767,0.844099
Multiracial,3,Left,18,Female,Yes,English,E,180,1,8,0,0.0,0.0,1.0,584.814,1.0,179.0,5.0,1.11801,0.945235
Multiracial,3,Left,18,Female,Yes,English,E,181,1,0,4,180.0,1.0,1.0,688.25,1.0,180.0,5.0,1.01007,0.857777
Multiracial,3,Left,18,Female,Yes,English,E,182,0,4,0,0.0,0.0,1.0,962.274,1.0,181.0,5.0,1.08339,0.996243
Multiracial,3,Left,18,Female,Yes,English,E,183,1,4,0,180.0,1.0,1.0,696.851,1.0,182.0,5.0,1.03252,0.858899
Multiracial,3,Left,18,Female,Yes,English,E,184,0,16,8,0.0,0.0,1.0,1737.12,1.0,183.0,5.0,1.05986,0.955525
Multiracial,3,Left,18,Female,Yes,English,E,185,0,16,4,180.0,1.0,1.0,619.009,1.0,184.0,5.0,1.17735,0.82573
Multiracial,3,Left,18,Female,Yes,English,E,186,0,0,16,180.0,1.0,1.0,582.337,1.0,185.0,5.0,1.07597,0.900422
Multiracial,3,Left,18,Female,Yes,English,E,187,1,4,4,180.0,1.0,1.0,869.275,1.0,186.0,5.0,1.10866,0.978776
Multiracial,3,Left,18,Female,Yes,English,E,188,1,16,8,0.0,0.0,1.0,676.014,1.0,187.0,5.0,1.02647,0.878004
Multiracial,3,Left,18,Female,Yes,English,E,189,1,8,8,180.0,1.0,1.0,766.509,1.0,188.0,5.0,1.03349,0.906414
Multiracial,3,Left,18,Female,Yes,English,E,190,1,0,0,0.0,0.0,1.0,555.51,1.0,189.0,5.0,1.09434,0.902305
Multiracial,3,Left,18,Female,Yes,English,E,191,1,0,8,180.0,1.0,1.0,515.047,1.0,190.0,5.0,1.08956,0.861579
Multiracial,3,Left,18,Female,Yes,English,E,192,1,0,16,0.0,0.0,1.0,590.033,1.0,191.0,5.0,1.01417,0.919648
Multiracial,3,Left,18,Female,Yes,English,E,193,1,4,8,180.0,1.0,1.0,1210.1,1.0,192.0,6.0,1.09261,0.893588
Multiracial,3,Left,18,Female,Yes,English,E,194,1,16,4,0.0,0.0,1.0,593.984,1.0,193.0,6.0,1.08395,0.919437
Multiracial,3,Left,18,Female,Yes,English,E,195,1,16,16,180.0,1.0,1.0,1037.0,1.0,194.0,6.0,1.02493,0.945108
Multiracial,3,Left,18,Female,Yes,English,E,196,0,0,16,180.0,1.0,1.0,926.574,1.0,195.0,6.0,1.16818,0.941916
Multiracial,3,Left,18,Female,Yes,English,E,197,1,4,0,0.0,0.0,1.0,547.363,1.0,196.0,6.0,1.12749,0.98537
Multiracial,3,Left,18,Female,Yes,English,E,198,0,0,8,180.0,1.0,1.0,796.636,1.0,197.0,6.0,1.09787,0.829214
Multiracial,3,Left,18,Female,Yes,English,E,199,1,16,8,0.0,0.0,1.0,721.63,1.0,198.0,6.0,1.09948,0.832085
Multiracial,3,Left,18,Female,Yes,English,E,200,1,16,0,180.0,1.0,1.0,708.736,1.0,199.0,6.0,1.11063,0.82121
Multiracial,3,Left,18,Female,Yes,English,E,201,0,4,16,180.0,1.0,1.0,537.889,1.0,200.0,6.0,1.01716,0.818806
Multiracial,3,Left,18,Female,Yes,English,E,202,0,4,8,0.0,0.0,1.0,651.127,1.0,201.0,6.0,1.02126,0.947521
Multiracial,3,Left,18,Female,Yes,English,E,203,1,0,4,180.0,1.0,1.0,681.195,1.0,202.0,6.0,1.01842,0.874718
Multiracial,3,Left,18,Female,Yes,English,E,204,1,4,16,0.0,1.0,0.0,410.505,1.0,203.0,6.0,1.03596,0.950202
Multiracial,3,Left,18,Female,Yes,English,E,205,1,4,4,180.0,1.0,1.0,652.133,1.0,204.0,6.0,1.11714,0.859203
Multiracial,3,Left,18,Female,Yes,English,E,206,0,16,8,0.0,0.0,1.0,943.796,1.0,205.0,6.0,1.05401,0.982919
Multiracial,3,Left,18,Female,Yes,English,E,207,1,0,8,0.0,0.0,1.0,756.636,1.0,206.0,6.0,1.19319,0.886258
Multiracial,3,Left,18,Female,Yes,English,E,208,0,16,0,0.0,0.0,1.0,727.894,1.0,207.0,6.0,1.07227,0.94812
Multiracial,3,Left,18,Female,Yes,English,E,209,1,0,16,180.0,1.0,1.0,640.432,1.0,208.0,6.0,1.14272,0.901227
Multiracial,3,Left,18,Female,Yes,English,E,210,0,8,4,180.0,1.0,1.0,692.186,1.0,209.0,6.0,1.19137,0.989986
Multiracial,3,Left,18,Female,Yes,English,E,211,0,0,4,0.0,0.0,1.0,531.732,1.0,210.0,6.0,1.10669,0.976992
Multiracial,3,Left,18,Female,Yes,English,E,212,0,16,16,180.0,1.0,1.0,925.845,1.0,211.0,6.0,1.15046,0.934415
Multiracial,3,Left,18,Female,Yes,English,E,213,1,0,0,0.0,0.0,1.0,553.392,1.0,212.0,6.0,1.08581,0.899293
Multiracial,3,Left,18,Female,Yes,English,E,214,1,8,16,0.0,0.0,1.0,671.001,1.0,213.0,6.0,1.06667,0.96153
Multiracial,3,Left,18,Female,Yes,English,E,215,1,8,4,0.0,0.0,1.0,684.847,1.0,214.0,6.0,1.19045,0.934803
Multiracial,3,Left,18,Female,Yes,English,E,216,0,16,4,180.0,1.0,1.0,1111.55,1.0,215.0,6.0,1.03716,0.999769
Multiracial,3,Left,18,Female,Yes,English,E,217,0,0,0,180.0,1.0,1.0,810.009,1.0,216.0,6.0,1.11512,0.858557
Multiracial,3,Left,18,Female,Yes,English,E,218,0,8,0,0.0,0.0,1.0,1060.83,1.0,217.0,6.0,1.02241,0.896606
Multiracial,3,Left,18,Female,Yes,English,E,219,1,8,8,180.0,1.0,1.0,628.788,1.0,218.0,6.0,1.05774,0.992149
Multiracial,3,Left,18,Female,Yes,English,E,220,0,8,8,0.0,0.0,1.0,741.39,1.0,219.0,6.0,1.09756,0.979606
Multiracial,3,Left,18,Female,Yes,English,E,221,0,4,0,180.0,1.0,1.0,678.46,1.0,220.0,6.0,1.1213,0.845891
Multiracial,3,Left,18,Female,Yes,English,E,222,1,8,0,0.0,0.0,1.0,638.791,1.0,221.0,6.0,1.13332,0.853779
Multiracial,3,Left,18,Female,Yes,English,E,223,0,8,16,0.0,0.0,1.0,726.43,1.0,222.0,6.0,1.04847,0.873201
Multiracial,3,Left,18,Female,Yes,English,E,224,0,4,4,180.0,1.0,1.0,671.746,1.0,223.0,6.0,1.15596,0.920887
Multiracial,3,Left,18,Female,Yes,English,E,225,1,0,4,180.0,1.0,1.0,637.761,1.0,224.0,7.0,1.02036,0.859553
Multiracial,3,Left,18,Female,Yes,English,E,226,1,8,4,180.0,1.0,1.0,1393.89,1.0,225.0,7.0,1.1426,0.982526
Multiracial,3,Left,18,Female,Yes,English,E,227,1,0,0,0.0,0.0,1.0,501.739,1.0,226.0,7.0,1.07383,0.895215
Multiracial,3,Left,18,Female,Yes,English,E,228,0,8,0,0.0,0.0,1.0,603.238,1.0,227.0,7.0,1.17769,0.836906
Multiracial,3,Left,18,Female,Yes,English,E,229,0,4,8,180.0,1.0,1.0,734.427,1.0,228.0,7.0,1.08777,0.959327
Multiracial,3,Left,18,Female,Yes,English,E,230,1,4,16,0.0,0.0,1.0,717.831,1.0,229.0,7.0,1.07846,0.823483
Multiracial,3,Left,18,Female,Yes,English,E,231,1,8,0,180.0,1.0,1.0,508.482,1.0,230.0,7.0,1.17008,0.973968
Multiracial,3,Left,18,Female,Yes,English,E,232,0,8,8,0.0,0.0,1.0,825.185,1.0,231.0,7.0,1.17194,0.886106
Multiracial,3,Left,18,Female,Yes,English,E,233,0,4,4,0.0,0.0,1.0,581.794,1.0,232.0,7.0,1.07801,0.867521
Multiracial,3,Left,18,Female,Yes,English,E,234,0,4,0,180.0,1.0,1.0,770.356,1.0,233.0,7.0,1.12118,0.817068
Multiracial,3,Left,18,Female,Yes,English,E,235,1,4,8,180.0,1.0,1.0,609.829,1.0,234.0,7.0,1.04596,0.863186
Multiracial,3,Left,18,Female,Yes,English,E,236,0,16,4,180.0,1.0,1.0,760.061,1.0,235.0,7.0,1.15702,0.885866
Multiracial,3,Left,18,Female,Yes,English,E,237,0,4,16,0.0,0.0,1.0,749.156,1.0,236.0,7.0,1.04645,0.966082
Multiracial,3,Left,18,Female,Yes,English,E,238,1,0,8,0.0,0.0,1.0,730.49,1.0,237.0,7.0,1.02816,0.907829
Multiracial,3,Left,18,Female,Yes,English,E,239,0,0,8,180.0,1.0,1.0,697.952,1.0,238.0,7.0,1.12644,0.94831
Multiracial,3,Left,18,Female,Yes,English,E,240,1,8,16,180.0,1.0,1.0,515.642,1.0,239.0,7.0,1.12737,0.98432
Multiracial,3,Left,18,Female,Yes,English,E,241,1,16,0,180.0,1.0,1.0,919.655,1.0,240.0,7.0,1.10904,0.888667
Multiracial,3,Left,18,Female,Yes,English,E,242,0,16,16,0.0,0.0,1.0,837.693,1.0,241.0,7.0,1.03799,0.990983
Multiracial,3,Left,18,Female,Yes,English,E,243,0,8,4,180.0,1.0,1.0,728.396,1.0,242.0,7.0,1.02224,0.935388
Multiracial,3,Left,18,Female,Yes,English,E,244,1,8,8,0.0,0.0,1.0,584.979,1.0,243.0,7.0,1.00557,0.899918
Multiracial,3,Left,18,Female,Yes,English,E,245,0,16,0,0.0,0.0,1.0,654.532,1.0,244.0,7.0,1.18331,0.923585
Multiracial,3,Left,18,Female,Yes,English,E,246,1,16,4,0.0,0.0,1.0,643.718,1.0,245.0,7.0,1.07114,0.961506
Multiracial,3,Left,18,Female,Yes,English,E,247,0,8,16,180.0,1.0,1.0,445.043,1.0,246.0,7.0,1.07632,0.926413
Multiracial,3,Left,18,Female,Yes,English,E,248,1,4,0,180.0,1.0,1.0,525.735,1.0,247.0,7.0,1.10456,0.847636
Multiracial,3,Left,18,Female,Yes,English,E,249,1,0,16,0.0,0.0,1.0,401.558,1.0,248.0,7.0,1.10599,0.85001
Multiracial,3,Left,18,Female,Yes,English,E,250,1,16,16,0.0,0.0,1.0,659.809,1.0,249.0,7.0,1.02572,0.962104
Multiracial,3,Left,18,Female,Yes,English,E,251,0,0,0,180.0,1.0,1.0,563.197,1.0,250.0,7.0,1.07218,0.813658
Multiracial,3,Left,18,Female,Yes,English,E,252,0,0,4,0.0,0.0,1.0,636.071,1.0,251.0,7.0,1.06112,0.99142
Multiracial,3,Left,18,Female,Yes,English,E,253,1,16,8,180.0,1.0,1.0,968.532,1.0,252.0,7.0,1.12444,0.839622
Multiracial,3,Left,18,Female,Yes,English,E,254,0,0,16,0.0,0.0,1.0,653.476,1.0,253.0,7.0,1.03776,0.940054
Multiracial,3,Left,18,Female,Yes,English,E,255,1,4,4,180.0,1.0,1.0,594.413,1.0,254.0,7.0,1.1463,0.84175
Multiracial,3,Left,18,Female,Yes,English,E,256,0,16,8,0.0,0.0,1.0,532.483,1.0,255.0,7.0,1.08325,0.930878
Multiracial,3,Left,18,Female,Yes,English,E,257,0,4,8,0.0,1.0,0.0,718.131,1.0,256.0,8.0,1.12762,0.801613
Multiracial,3,Left,18,Female,Yes,English,E,258,1,8,8,180.0,1.0,1.0,578.016,1.0,257.0,8.0,1.0334,0.979052
Multiracial,3,Left,18,Female,Yes,English,E,259,1,16,8,180.0,1.0,1.0,825.685,1.0,258.0,8.0,1.08192,0.995794
Multiracial,3,Left,18,Female,Yes,English,E,260,0,16,0,0.0,0.0,1.0,2156.86,1.0,259.0,8.0,1.12095,0.875473
Multiracial,3,Left,18,Female,Yes,English,E,261,1,8,4,0.0,0.0,1.0,902.669,1.0,260.0,8.0,1.02852,0.849652
Multiracial,3,Left,18,Female,Yes,English,E,262,0,16,4,180.0,1.0,1.0,852.014,1.0,261.0,8.0,1.09024,0.878939
Multiracial,3,Left,18,Female,Yes,English,E,263,1,16,0,180.0,1.0,1.0,594.409,1.0,262.0,8.0,1.15908,0.917625
Multiracial,3,Left,18,Female,Yes,English,E,264,0,8,8,0.0,0.0,1.0,663.196,1.0,263.0,8.0,1.03467,0.928262
Multiracial,3,Left,18,Female,Yes,English,E,265,1,0,4,0.0,0.0,1.0,456.408,1.0,264.0,8.0,1.15134,0.891021
Multiracial,3,Left,18,Female,Yes,English,E,266,1,16,4,180.0,1.0,1.0,989.038,1.0,265.0,8.0,1.14439,0.805345
Multiracial,3,Left,18,Female,Yes,English,E,267,0,8,4,0.0,0.0,1.0,966.986,1.0,266.0,8.0,1.02372,0.894828
Multiracial,3,Left,18,Female,Yes,English,E,268,0,0,4,180.0,1.0,1.0,893.653,1.0,267.0,8.0,1.19865,0.928605
Multiracial,3,Left,18,Female,Yes,English,E,269,1,0,0,180.0,1.0,1.0,795.152,1.0,268.0,8.0,1.06577,0.874531
Multiracial,3,Left,18,Female,Yes,English,E,270,0,4,4,0.0,0.0,1.0,712.299,1.0,269.0,8.0,1.05383,0.988303
Multiracial,3,Left,18,Female,Yes,English,E,271,0,16,16,0.0,0.0,1.0,612.379,1.0,270.0,8.0,1.02756,0.814747
Multiracial,3,Left,18,Female,Yes,English,E,272,1,4,4,180.0,1.0,1.0,760.915,1.0,271.0,8.0,1.16098,0.959901
Multiracial,3,Left,18,Female,Yes,English,E,273,1,0,8,180.0,1.0,1.0,984.003,1.0,272.0,8.0,1.17074,0.979558
Multiracial,3,Left,18,Female,Yes,English,E,274,0,8,16,180.0,1.0,1.0,640.586,1.0,273.0,8.0,1.07793,0.84797
Multiracial,3,Left,18,Female,Yes,English,E,275,1,4,16,180.0,1.0,1.0,502.558,1.0,274.0,8.0,1.16762,0.812844
Multiracial,3,Left,18,Female,Yes,English,E,276,1,8,0,0.0,0.0,1.0,746.295,1.0,275.0,8.0,1.11245,0.955431
Multiracial,3,Left,18,Female,Yes,English,E,277,1,0,16,0.0,1.0,0.0,431.779,1.0,276.0,8.0,1.12807,0.857658
Multiracial,3,Left,18,Female,Yes,English,E,278,0,0,0,180.0,1.0,1.0,633.779,1.0,277.0,8.0,1.06836,0.986203
Multiracial,3,Left,18,Female,Yes,English,E,279,1,4,8,0.0,0.0,1.0,808.509,1.0,278.0,8.0,1.14473,0.819669
Multiracial,3,Left,18,Female,Yes,English,E,280,0,16,8,0.0,0.0,1.0,680.565,1.0,279.0,8.0,1.1008,0.965826
Multiracial,3,Left,18,Female,Yes,English,E,281,1,8,16,0.0,0.0,1.0,774.904,1.0,280.0,8.0,1.10805,0.852375
Multiracial,3,Left,18,Female,Yes,English,E,282,0,0,8,180.0,1.0,1.0,833.826,1.0,281.0,8.0,1.15035,0.891737
Multiracial,3,Left,18,Female,Yes,English,E,283,0,8,0,180.0,1.0,1.0,532.541,1.0,282.0,8.0,1.03463,0.987314
Multiracial,3,Left,18,Female,Yes,English,E,284,0,4,0,180.0,1.0,1.0,605.373,1.0,283.0,8.0,1.07668,0.918404
Multiracial,3,Left,18,Female,Yes,English,E,285,1,4,0,0.0,0.0,1.0,602.081,1.0,284.0,8.0,1.17674,0.891527
Multiracial,3,Left,18,Female,Yes,English,E,286,0,0,16,180.0,1.0,1.0,646.027,1.0,285.0,8.0,1.09315,0.995393
Multiracial,3,Left,18,Female,Yes,English,E,287,0,4,16,0.0,0.0,1.0,524.512,1.0,286.0,8.0,1.08207,0.802676
Multiracial,3,Left,18,Female,Yes,English,E,288,1,16,16,0.0,0.0,1.0,634.752,1.0,287.0,8.0,1.0622,0.87331
Multiracial,3,Left,18,Female,Yes,English,E,289,0,4,8,0.0,0.0,1.0,863.265,1.0,288.0,9.0,1.16443,0.878084
Multiracial,3,Left,18,Female,Yes,English,E,290,0,8,8,0.0,0.0,1.0,591.576,1.0,289.0,9.0,1.0776,0.865799
Multiracial,3,Left,18,Female,Yes,English,E,291,1,0,16,0.0,0.0,1.0,577.947,1.0,290.0,9.0,1.15535,0.986555
Multiracial,3,Left,18,Female,Yes,English,E,292,0,4,4,180.0,0.0,0.0,493.664,1.0,291.0,9.0,1.18491,0.837811
Multiracial,3,Left,18,Female,Yes,English,E,293,1,8,0,180.0,1.0,1.0,758.094,1.0,292.0,9.0,1.03559,0.881199
Multiracial,3,Left,18,Female,Yes,English,E,294,1,16,16,180.0,1.0,1.0,665.714,1.0,293.0,9.0,1.04531,0.803346
Multiracial,3,Left,18,Female,Yes,English,E,295,0,0,8,0.0,0.0,1.0,562.338,1.0,294.0,9.0,1.01717,0.813389
Multiracial,3,Left,18,Female,Yes,English,E,296,1,8,4,180.0,1.0,1.0,835.058,1.0,295.0,9.0,1.15719,0.890729
Multiracial,3,Left,18,Female,Yes,English,E,297,1,0,8,180.0,1.0,1.0,497.867,1.0,296.0,9.0,1.14017,0.978328
Multiracial,3,Left,18,Female,Yes,English,E,298,1,16,8,180.0,1.0,1.0,534.65,1.0,297.0,9.0,1.05623,0.819774
Multiracial,3,Left,18,Female,Yes,English,E,299,1,4,8,180.0,1.0,1.0,450.074,1.0,298.0,9.0,1.18243,0.818674
Multiracial,3,Left,18,Female,Yes,English,E,300,0,8,0,0.0,1.0,0.0,482.819,1.0,299.0,9.0,1.10153,0.943003
Multiracial,3,Left,18,Female,Yes,English,E,301,1,0,0,0.0,0.0,1.0,593.6,1.0,300.0,9.0,1.09873,0.896955
Multiracial,3,Left,18,Female,Yes,English,E,302,0,8,4,180.0,1.0,1.0,770.591,1.0,301.0,9.0,1.03975,0.842914
Multiracial,3,Left,18,Female,Yes,English,E,303,1,8,8,0.0,0.0,1.0,600.17,1.0,302.0,9.0,1.09883,0.857507
Multiracial,3,Left,18,Female,Yes,English,E,304,0,16,0,180.0,1.0,1.0,822.722,1.0,303.0,9.0,1.08422,0.803243
Multiracial,3,Left,18,Female,Yes,English,E,305,0,8,16,180.0,1.0,1.0,1017.04,1.0,304.0,9.0,1.15199,0.963304
Multiracial,3,Left,18,Female,Yes,English,E,306,1,0,4,0.0,0.0,1.0,659.37,1.0,305.0,9.0,1.19263,0.900942
Multiracial,3,Left,18,Female,Yes,English,E,307,1,8,16,0.0,0.0,1.0,693.089,1.0,306.0,9.0,1.11893,0.901899
Multiracial,3,Left,18,Female,Yes,English,E,308,0,0,4,0.0,0.0,1.0,760.149,1.0,307.0,9.0,1.00691,0.829264
Multiracial,3,Left,18,Female,Yes,English,E,309,0,16,4,180.0,1.0,1.0,734.863,1.0,308.0,9.0,1.04214,0.955215
Multiracial,3,Left,18,Female,Yes,English,E,310,1,4,16,0.0,0.0,1.0,832.298,1.0,309.0,9.0,1.0328,0.920916
Multiracial,3,Left,18,Female,Yes,English,E,311,1,16,4,180.0,1.0,1.0,814.153,1.0,310.0,9.0,1.17538,0.96517
Multiracial,3,Left,18,Female,Yes,English,E,312,0,4,0,0.0,0.0,1.0,627.755,1.0,311.0,9.0,1.11969,0.871803
Multiracial,3,Left,18,Female,Yes,English,E,313,0,0,16,0.0,0.0,1.0,636.449,1.0,312.0,9.0,1.08448,0.820247
Multiracial,3,Left,18,Female,Yes,English,E,314,0,16,16,0.0,0.0,1.0,674.887,1.0,313.0,9.0,1.04509,0.810504
Multiracial,3,Left,18,Female,Yes,English,E,315,0,4,16,180.0,1.0,1.0,536.495,1.0,314.0,9.0,1.17576,0.94973
Multiracial,3,Left,18,Female,Yes,English,E,316,0,16,8,180.0,1.0,1.0,912.42,1.0,315.0,9.0,1.12038,0.863585
Multiracial,3,Left,18,Female,Yes,English,E,317,1,4,4,180.0,1.0,1.0,718.584,1.0,316.0,9.0,1.01397,0.811632
Multiracial,3,Left,18,Female,Yes,English,E,318,1,4,0,0.0,0.0,1.0,641.348,1.0,317.0,9.0,1.00953,0.992333
Multiracial,3,Left,18,Female,Yes,English,E,319,0,0,0,180.0,1.0,1.0,526.081,1.0,318.0,9.0,1.18371,0.884795
Multiracial,3,Left,18,Female,Yes,English,E,320,1,16,0,0.0,0.0,1.0,528.258,1.0,319.0,9.0,1.10308,0.891613
Multiracial,3,Left,18,Female,Yes,English,E,321,0,16,16,0.0,0.0,1.0,767.226,1.0,320.0,10.0,1.17417,0.88311
Multiracial,3,Left,18,Female,Yes,English,E,322,1,4,8,0.0,0.0,1.0,728.571,1.0,321.0,10.0,1.14128,0.812647
Multiracial,3,Left,18,Female,Yes,English,E,323,0,4,16,180.0,1.0,1.0,1408.89,1.0,322.0,10.0,1.05346,0.973654
Multiracial,3,Left,18,Female,Yes,English,E,324,0,0,16,180.0,1.0,1.0,604.336,1.0,323.0,10.0,1.01055,0.903445
Multiracial,3,Left,18,Female,Yes,English,E,325,0,16,4,0.0,0.0,1.0,538.977,1.0,324.0,10.0,1.05143,0.998513
Multiracial,3,Left,18,Female,Yes,English,E,326,0,8,4,0.0,0.0,1.0,617.335,1.0,325.0,10.0,1.09967,0.854866
Multiracial,3,Left,18,Female,Yes,English,E,327,1,0,16,180.0,1.0,1.0,810.331,1.0,326.0,10.0,1.16307,0.820657
Multiracial,3,Left,18,Female,Yes,English,E,328,1,4,0,180.0,0.0,0.0,570.624,1.0,327.0,10.0,1.16105,0.934263
Multiracial,3,Left,18,Female,Yes,English,E,329,0,4,4,0.0,0.0,1.0,698.157,1.0,328.0,10.0,1.1094,0.984899
Multiracial,3,Left,18,Female,Yes,English,E,330,0,16,8,180.0,1.0,1.0,847.409,1.0,329.0,10.0,1.05291,0.919998
Multiracial,3,Left,18,Female,Yes,English,E,331,0,8,0,0.0,0.0,1.0,645.944,1.0,330.0,10.0,1.1087,0.864402
Multiracial,3,Left,18,Female,Yes,English,E,332,1,8,4,180.0,1.0,1.0,926.034,1.0,331.0,10.0,1.13459,0.829415
Multiracial,3,Left,18,Female,Yes,English,E,333,1,4,16,0.0,0.0,1.0,647.11,1.0,332.0,10.0,1.05531,0.827253
Multiracial,3,Left,18,Female,Yes,English,E,334,0,4,8,0.0,0.0,1.0,577.748,1.0,333.0,10.0,1.04126,0.958946
Multiracial,3,Left,18,Female,Yes,English,E,335,1,4,4,180.0,1.0,1.0,622.167,1.0,334.0,10.0,1.06388,0.935444
Multiracial,3,Left,18,Female,Yes,English,E,336,1,8,8,180.0,1.0,1.0,663.341,1.0,335.0,10.0,1.18719,0.948481
Multiracial,3,Left,18,Female,Yes,English,E,337,1,8,16,180.0,1.0,1.0,516.681,1.0,336.0,10.0,1.18643,0.982827
Multiracial,3,Left,18,Female,Yes,English,E,338,0,8,16,0.0,0.0,1.0,764.549,1.0,337.0,10.0,1.09688,0.914563
Multiracial,3,Left,18,Female,Yes,English,E,339,1,16,8,0.0,0.0,1.0,654.256,1.0,338.0,10.0,1.19149,0.881917
Multiracial,3,Left,18,Female,Yes,English,E,340,1,0,4,180.0,1.0,1.0,962.514,1.0,339.0,10.0,1.01679,0.90244
Multiracial,3,Left,18,Female,Yes,English,E,341,1,8,0,180.0,1.0,1.0,588.715,1.0,340.0,10.0,1.03218,0.807554
Multiracial,3,Left,18,Female,Yes,English,E,342,0,0,4,180.0,1.0,1.0,589.225,1.0,341.0,10.0,1.13126,0.894578
Multiracial,3,Left,18,Female,Yes,English,E,343,0,16,0,0.0,0.0,1.0,589.943,1.0,342.0,10.0,1.12525,0.845777
Multiracial,3,Left,18,Female,Yes,English,E,344,1,16,4,0.0,0.0,1.0,652.474,1.0,343.0,10.0,1.1809,0.99529
Multiracial,3,Left,18,Female,Yes,English,E,345,0,8,8,0.0,0.0,1.0,601.829,1.0,344.0,10.0,1.01773,0.87169
Multiracial,3,Left,18,Female,Yes,English,E,346,1,0,8,0.0,0.0,1.0,491.133,1.0,345.0,10.0,1.06685,0.988791
Multiracial,3,Left,18,Female,Yes,English,E,347,1,0,0,180.0,1.0,1.0,595.058,1.0,346.0,10.0,1.17464,0.835253
Multiracial,3,Left,18,Female,Yes,English,E,348,0,0,0,0.0,0.0,1.0,577.951,1.0,347.0,10.0,1.15654,0.925184
Multiracial,3,Left,18,Female,Yes,English,E,349,0,4,0,180.0,1.0,1.0,517.85,1.0,348.0,10.0,1.04462,0.892942
Multiracial,3,Left,18,Female,Yes,English,E,350,1,16,0,180.0,1.0,1.0,539.944,1.0,349.0,10.0,1.08977,0.87343
Multiracial,3,Left,18,Female,Yes,English,E,351,1,16,16,0.0,1.0,0.0,655.298,1.0,350.0,10.0,1.1992,0.950858
Multiracial,3,Left,18,Female,Yes,English,E,352,0,0,8,180.0,1.0,1.0,660.415,1.0,351.0,10.0,1.0638,0.872204
Multiracial,3,Left,18,Female,Yes,English,E,353,1,16,8,0.0,0.0,1.0,730.449,1.0,352.0,11.0,1.08688,0.951788
Multiracial,3,Left,18,Female,Yes,English,E,354,1,16,16,180.0,1.0,1.0,1118.97,1.0,353.0,11.0,1.15009,0.826601
Multiracial,3,Left,18,Female,Yes,English,E,355,1,0,4,0.0,0.0,1.0,602.216,1.0,354.0,11.0,1.17304,0.93267
Multiracial,3,Left,18,Female,Yes,English,E,356,0,4,16,180.0,1.0,1.0,695.432,1.0,355.0,11.0,1.19103,0.976279
Multiracial,3,Left,18,Female,Yes,English,E,357,0,4,0,0.0,0.0,1.0,614.552,1.0,356.0,11.0,1.01573,0.959449
Multiracial,3,Left,18,Female,Yes,English,E,358,0,16,0,180.0,1.0,1.0,791.79,1.0,357.0,11.0,1.05421,0.962008
Multiracial,3,Left,18,Female,Yes,English,E,359,1,8,4,0.0,0.0,1.0,561.129,1.0,358.0,11.0,1.00818,0.956605
Multiracial,3,Left,18,Female,Yes,English,E,360,0,8,16,0.0,0.0,1.0,1009.83,1.0,359.0,11.0,1.12191,0.987455
Multiracial,3,Left,18,Female,Yes,English,E,361,0,0,4,180.0,1.0,1.0,670.672,1.0,360.0,11.0,1.022,0.940952
Multiracial,3,Left,18,Female,Yes,English,E,362,0,16,8,180.0,1.0,1.0,662.462,1.0,361.0,11.0,1.18374,0.82172
Multiracial,3,Left,18,Female,Yes,English,E,363,1,16,0,180.0,1.0,1.0,565.678,1.0,362.0,11.0,1.15902,0.902261
Multiracial,3,Left,18,Female,Yes,English,E,364,0,8,0,0.0,0.0,1.0,702.556,1.0,363.0,11.0,1.1935,0.805926
Multiracial,3,Left,18,Female,Yes,English,E,365,1,0,16,180.0,1.0,1.0,549.053,1.0,364.0,11.0,1.09118,0.823525
Multiracial,3,Left,18,Female,Yes,English,E,366,0,8,4,180.0,1.0,1.0,802.834,1.0,365.0,11.0,1.17754,0.842283
Multiracial,3,Left,18,Female,Yes,English,E,367,0,0,0,180.0,1.0,1.0,570.147,1.0,366.0,11.0,1.10689,0.826018
Multiracial,3,Left,18,Female,Yes,English,E,368,1,4,8,0.0,0.0,1.0,487.17,1.0,367.0,11.0,1.11579,0.909743
Multiracial,3,Left,18,Female,Yes,English,E,369,1,4,16,0.0,0.0,1.0,830.648,1.0,368.0,11.0,1.11379,0.961885
Multiracial,3,Left,18,Female,Yes,English,E,370,0,0,16,0.0,0.0,1.0,548.759,1.0,369.0,11.0,1.1855,0.902069
Multiracial,3,Left,18,Female,Yes,English,E,371,0,16,4,0.0,0.0,1.0,1027.22,1.0,370.0,11.0,1.03506,0.825958
Multiracial,3,Left,18,Female,Yes,English,E,372,1,8,0,0.0,0.0,1.0,462.459,1.0,371.0,11.0,1.09359,0.932593
Multiracial,3,Left,18,Female,Yes,English,E,373,1,8,16,180.0,1.0,1.0,792.454,1.0,372.0,11.0,1.12611,0.952423
Multiracial,3,Left,18,Female,Yes,English,E,374,0,4,8,0.0,0.0,1.0,653.143,1.0,373.0,11.0,1.09397,0.862159
Multiracial,3,Left,18,Female,Yes,English,E,375,1,8,8,180.0,1.0,1.0,640.676,1.0,374.0,11.0,1.01522,0.911443
Multiracial,3,Left,18,Female,Yes,English,E,376,1,0,8,180.0,1.0,1.0,542.078,1.0,375.0,11.0,1.09702,0.803465
Multiracial,3,Left,18,Female,Yes,English,E,377,1,0,0,0.0,0.0,1.0,686.725,1.0,376.0,11.0,1.11122,0.979279
Multiracial,3,Left,18,Female,Yes,English,E,378,1,16,4,180.0,1.0,1.0,732.725,1.0,377.0,11.0,1.17766,0.975085
Multiracial,3,Left,18,Female,Yes,English,E,379,0,0,8,0.0,0.0,1.0,480.598,1.0,378.0,11.0,1.10524,0.866104
Multiracial,3,Left,18,Female,Yes,English,E,380,0,4,4,0.0,0.0,1.0,570.022,1.0,379.0,11.0,1.11635,0.860543
Multiracial,3,Left,18,Female,Yes,English,E,381,0,8,8,180.0,1.0,1.0,574.962,1.0,380.0,11.0,1.05243,0.853133
Multiracial,3,Left,18,Female,Yes,English,E,382,1,4,4,180.0,1.0,1.0,669.337,1.0,381.0,11.0,1.00358,0.87261
Multiracial,3,Left,18,Female,Yes,English,E,383,1,4,0,180.0,1.0,1.0,580.558,1.0,382.0,11.0,1.13795,0.820153
Multiracial,3,Left,18,Female,Yes,English,E,384,0,16,16,0.0,0.0,1.0,595.299,1.0,383.0,11.0,1.11547,0.98887
Multiracial,3,Left,18,Female,Yes,English,E,385,0,8,0,0.0,0.0,1.0,638.358,1.0,384.0,12.0,1.01004,0.819021
Multiracial,3,Left,18,Female,Yes,English,E,386,0,4,0,180.0,1.0,1.0,518.451,1.0,385.0,12.0,1.11767,0.997392
Multiracial,3,Left,18,Female,Yes,English,E,387,1,8,0,0.0,0.0,1.0,1048.15,1.0,386.0,12.0,1.02578,0.927204
Multiracial,3,Left,18,Female,Yes,English,E,388,1,0,0,180.0,0.0,0.0,467.806,1.0,387.0,12.0,1.02923,0.947259
Multiracial,3,Left,18,Female,Yes,English,E,389,1,8,8,0.0,0.0,1.0,585.218,1.0,388.0,12.0,1.0534,0.89879
Multiracial,3,Left,18,Female,Yes,English,E,390,0,0,4,0.0,0.0,1.0,642.91,1.0,389.0,12.0,1.18638,0.94295
Multiracial,3,Left,18,Female,Yes,English,E,391,1,4,8,180.0,1.0,1.0,744.132,1.0,390.0,12.0,1.0638,0.923741
Multiracial,3,Left,18,Female,Yes,English,E,392,0,8,4,180.0,1.0,1.0,869.526,1.0,391.0,12.0,1.10855,0.845819
Multiracial,3,Left,18,Female,Yes,English,E,393,1,16,4,180.0,1.0,1.0,703.899,1.0,392.0,12.0,1.0805,0.867075
Multiracial,3,Left,18,Female,Yes,English,E,394,1,0,4,180.0,1.0,1.0,662.349,1.0,393.0,12.0,1.13731,0.981385
Multiracial,3,Left,18,Female,Yes,English,E,395,1,4,0,180.0,1.0,1.0,650.064,1.0,394.0,12.0,1.16717,0.978605
Multiracial,3,Left,18,Female,Yes,English,E,396,0,4,16,0.0,0.0,1.0,625.358,1.0,395.0,12.0,1.12344,0.878146
Multiracial,3,Left,18,Female,Yes,English,E,397,0,16,8,0.0,0.0,1.0,750.482,1.0,396.0,12.0,1.00353,0.879497
Multiracial,3,Left,18,Female,Yes,English,E,398,1,8,16,0.0,0.0,1.0,768.874,1.0,397.0,12.0,1.0012,0.828493
Multiracial,3,Left,18,Female,Yes,English,E,399,1,16,16,0.0,0.0,1.0,533.459,1.0,398.0,12.0,1.09821,0.87362
Multiracial,3,Left,18,Female,Yes,English,E,400,1,4,16,180.0,0.0,0.0,374.776,1.0,399.0,12.0,1.0077,0.929283
Multiracial,3,Left,18,Female,Yes,English,E,401,0,16,16,0.0,0.0,1.0,728.199,1.0,400.0,12.0,1.1856,0.848507
Multiracial,3,Left,18,Female,Yes,English,E,402,0,8,8,180.0,1.0,1.0,746.493,1.0,401.0,12.0,1.06188,0.873048
Multiracial,3,Left,18,Female,Yes,English,E,403,1,8,4,0.0,0.0,1.0,511.855,1.0,402.0,12.0,1.13609,0.896619
Multiracial,3,Left,18,Female,Yes,English,E,404,1,16,0,180.0,1.0,1.0,702.854,1.0,403.0,12.0,1.10969,0.895501
Multiracial,3,Left,18,Female,Yes,English,E,405,1,16,8,0.0,0.0,1.0,619.021,1.0,404.0,12.0,1.02617,0.924428
Multiracial,3,Left,18,Female,Yes,English,E,406,0,0,8,180.0,1.0,1.0,746.474,1.0,405.0,12.0,1.03443,0.813753
Multiracial,3,Left,18,Female,Yes,English,E,407,0,0,0,0.0,1.0,0.0,516.623,1.0,406.0,12.0,1.06265,0.968114
Multiracial,3,Left,18,Female,Yes,English,E,408,1,0,16,0.0,0.0,1.0,795.341,1.0,407.0,12.0,1.0648,0.986669
Multiracial,3,Left,18,Female,Yes,English,E,409,0,16,0,180.0,1.0,1.0,729.874,1.0,408.0,12.0,1.16932,0.907968
Multiracial,3,Left,18,Female,Yes,English,E,410,0,0,16,180.0,1.0,1.0,775.652,1.0,409.0,12.0,1.07545,0.822107
Multiracial,3,Left,18,Female,Yes,English,E,411,1,0,8,0.0,0.0,1.0,600.225,1.0,410.0,12.0,1.17183,0.814936
Multiracial,3,Left,18,Female,Yes,English,E,412,0,4,8,180.0,1.0,1.0,935.371,1.0,411.0,12.0,1.1207,0.825606
Multiracial,3,Left,18,Female,Yes,English,E,413,1,4,4,0.0,0.0,1.0,486.915,1.0,412.0,12.0,1.09835,0.810397
Multiracial,3,Left,18,Female,Yes,English,E,414,0,8,16,180.0,1.0,1.0,725.152,1.0,413.0,12.0,1.07987,0.948483
Multiracial,3,Left,18,Female,Yes,English,E,415,0,4,4,180.0,1.0,1.0,666.297,1.0,414.0,12.0,1.02047,0.895229
Multiracial,3,Left,18,Female,Yes,English,E,416,0,16,4,0.0,0.0,1.0,679.099,1.0,415.0,12.0,1.01357,0.943662
Multiracial,3,Left,18,Female,Yes,English,E,417,1,0,16,0.0,0.0,1.0,656.844,1.0,416.0,13.0,1.08566,0.930076
Multiracial,3,Left,18,Female,Yes,English,E,418,1,8,4,0.0,0.0,1.0,639.318,1.0,417.0,13.0,1.05671,0.963006
Multiracial,3,Left,18,Female,Yes,English,E,419,1,4,8,0.0,0.0,1.0,654.315,1.0,418.0,13.0,1.0625,0.840529
Multiracial,3,Left,18,Female,Yes,English,E,420,1,16,0,0.0,0.0,1.0,584.226,1.0,419.0,13.0,1.06948,0.868623
Multiracial,3,Left,18,Female,Yes,English,E,421,0,8,4,0.0,0.0,1.0,621.1,1.0,420.0,13.0,1.10239,0.83656
Multiracial,3,Left,18,Female,Yes,English,E,422,1,0,0,180.0,1.0,1.0,693.958,1.0,421.0,13.0,1.05812,0.90986
Multiracial,3,Left,18,Female,Yes,English,E,423,1,0,4,0.0,0.0,1.0,392.749,1.0,422.0,13.0,1.10825,0.964998
Multiracial,3,Left,18,Female,Yes,English,E,424,1,8,0,180.0,1.0,1.0,508.435,1.0,423.0,13.0,1.14371,0.86706
Multiracial,3,Left,18,Female,Yes,English,E,425,0,4,8,180.0,1.0,1.0,672.577,1.0,424.0,13.0,1.04249,0.983995
Multiracial,3,Left,18,Female,Yes,English,E,426,0,0,8,180.0,1.0,1.0,583.741,1.0,425.0,13.0,1.06864,0.877153
Multiracial,3,Left,18,Female,Yes,English,E,427,0,0,16,0.0,0.0,1.0,584.338,1.0,426.0,13.0,1.05082,0.872979
Multiracial,3,Left,18,Female,Yes,English,E,428,1,8,16,0.0,0.0,1.0,689.305,1.0,427.0,13.0,1.0728,0.843954
Multiracial,3,Left,18,Female,Yes,English,E,429,1,0,8,0.0,1.0,0.0,587.276,1.0,428.0,13.0,1.00895,0.873014
Multiracial,3,Left,18,Female,Yes,English,E,430,1,16,8,180.0,1.0,1.0,625.941,1.0,429.0,13.0,1.16439,0.954408
Multiracial,3,Left,18,Female,Yes,English,E,431,0,16,16,180.0,0.0,0.0,692.622,1.0,430.0,13.0,1.09287,0.90357
Multiracial,3,Left,18,Female,Yes,English,E,432,0,8,8,0.0,0.0,1.0,860.699,1.0,431.0,13.0,1.078,0.951524
Multiracial,3,Left,18,Female,Yes,English,E,433,1,4,4,180.0,1.0,1.0,691.419,1.0,432.0,13.0,1.157,0.833879
Multiracial,3,Left,18,Female,Yes,English,E,434,0,4,4,180.0,1.0,1.0,615.285,1.0,433.0,13.0,1.11172,0.827313
Multiracial,3,Left,18,Female,Yes,English,E,435,1,4,0,180.0,1.0,1.0,619.957,1.0,434.0,13.0,1.07332,0.850202
Multiracial,3,Left,18,Female,Yes,English,E,436,1,16,16,0.0,0.0,1.0,644.946,1.0,435.0,13.0,1.09134,0.982698
Multiracial,3,Left,18,Female,Yes,English,E,437,0,4,16,180.0,1.0,1.0,572.691,1.0,436.0,13.0,1.09472,0.827521
Multiracial,3,Left,18,Female,Yes,English,E,438,1,8,8,0.0,0.0,1.0,654.795,1.0,437.0,13.0,1.12468,0.822239
Multiracial,3,Left,18,Female,Yes,English,E,439,0,16,4,0.0,0.0,1.0,794.643,1.0,438.0,13.0,1.11883,0.855424
Multiracial,3,Left,18,Female,Yes,English,E,440,0,0,0,180.0,1.0,1.0,511.1,1.0,439.0,13.0,1.1939,0.853505
Multiracial,3,Left,18,Female,Yes,English,E,441,0,0,4,0.0,0.0,1.0,445.48,1.0,440.0,13.0,1.10972,0.9501
Multiracial,3,Left,18,Female,Yes,English,E,442,0,16,0,180.0,1.0,1.0,964.242,1.0,441.0,13.0,1.13803,0.958242
Multiracial,3,Left,18,Female,Yes,English,E,443,1,4,16,180.0,1.0,1.0,511.604,1.0,442.0,13.0,1.11938,0.944003
Multiracial,3,Left,18,Female,Yes,English,E,444,0,8,0,0.0,0.0,1.0,607.901,1.0,443.0,13.0,1.12743,0.869554
Multiracial,3,Left,18,Female,Yes,English,E,445,0,16,8,180.0,1.0,1.0,764.861,1.0,444.0,13.0,1.09423,0.834965
Multiracial,3,Left,18,Female,Yes,English,E,446,1,16,4,0.0,0.0,1.0,717.276,1.0,445.0,13.0,1.0221,0.939339
Multiracial,3,Left,18,Female,Yes,English,E,447,0,4,0,180.0,1.0,1.0,654.753,1.0,446.0,13.0,1.14016,0.978069
Multiracial,3,Left,18,Female,Yes,English,E,448,0,8,16,180.0,1.0,1.0,1123.18,1.0,447.0,13.0,1.1921,0.998186
Multiracial,3,Left,18,Female,Yes,English,E,449,1,8,0,0.0,0.0,1.0,799.615,1.0,448.0,14.0,1.01276,0.893124
Multiracial,3,Left,18,Female,Yes,English,E,450,1,0,0,0.0,0.0,1.0,435.289,1.0,449.0,14.0,1.04142,0.999977
Multiracial,3,Left,18,Female,Yes,English,E,451,1,0,4,180.0,1.0,1.0,497.755,1.0,450.0,14.0,1.00235,0.882808
Multiracial,3,Left,18,Female,Yes,English,E,452,0,16,0,0.0,0.0,1.0,625.375,1.0,451.0,14.0,1.09416,0.966437
Multiracial,3,Left,18,Female,Yes,English,E,453,0,4,16,180.0,0.0,0.0,556.328,1.0,452.0,14.0,1.01739,0.80113
Multiracial,3,Left,18,Female,Yes,English,E,454,1,4,0,180.0,1.0,1.0,915.534,1.0,453.0,14.0,1.02118,0.821367
Multiracial,3,Left,18,Female,Yes,English,E,455,0,0,4,180.0,1.0,1.0,809.002,1.0,454.0,14.0,1.02142,0.829393
Multiracial,3,Left,18,Female,Yes,English,E,456,0,8,16,0.0,0.0,1.0,699.255,1.0,455.0,14.0,1.04267,0.86077
Multiracial,3,Left,18,Female,Yes,English,E,457,1,4,4,0.0,0.0,1.0,658.962,1.0,456.0,14.0,1.10309,0.834128
Multiracial,3,Left,18,Female,Yes,English,E,458,1,0,8,0.0,0.0,1.0,561.848,1.0,457.0,14.0,1.04091,0.918091
Multiracial,3,Left,18,Female,Yes,English,E,459,0,16,16,180.0,1.0,1.0,681.0,1.0,458.0,14.0,1.05058,0.930966
Multiracial,3,Left,18,Female,Yes,English,E,460,1,16,0,0.0,0.0,1.0,543.664,1.0,459.0,14.0,1.18225,0.920763
Multiracial,3,Left,18,Female,Yes,English,E,461,0,0,16,0.0,0.0,1.0,668.876,1.0,460.0,14.0,1.00358,0.821766
Multiracial,3,Left,18,Female,Yes,English,E,462,1,16,4,0.0,0.0,1.0,637.816,1.0,461.0,14.0,1.05864,0.905369
Multiracial,3,Left,18,Female,Yes,English,E,463,1,8,16,0.0,0.0,1.0,669.664,1.0,462.0,14.0,1.11917,0.961537
Multiracial,3,Left,18,Female,Yes,English,E,464,0,0,0,0.0,0.0,1.0,510.717,1.0,463.0,14.0,1.09975,0.899578
Multiracial,3,Left,18,Female,Yes,English,E,465,1,16,8,0.0,0.0,1.0,629.443,1.0,464.0,14.0,1.04268,0.948578
Multiracial,3,Left,18,Female,Yes,English,E,466,0,8,4,180.0,1.0,1.0,613.923,1.0,465.0,14.0,1.17739,0.887212
Multiracial,3,Left,18,Female,Yes,English,E,467,1,16,16,180.0,1.0,1.0,569.26,1.0,466.0,14.0,1.13084,0.984349
Multiracial,3,Left,18,Female,Yes,English,E,468,0,0,8,180.0,1.0,1.0,549.908,1.0,467.0,14.0,1.09211,0.816546
Multiracial,3,Left,18,Female,Yes,English,E,469,1,4,16,180.0,1.0,1.0,575.517,1.0,468.0,14.0,1.1974,0.984501
Multiracial,3,Left,18,Female,Yes,English,E,470,0,16,4,180.0,1.0,1.0,806.859,1.0,469.0,14.0,1.0972,0.871741
Multiracial,3,Left,18,Female,Yes,English,E,471,0,8,0,180.0,1.0,1.0,552.699,1.0,470.0,14.0,1.07131,0.971124
Multiracial,3,Left,18,Female,Yes,English,E,472,0,16,8,180.0,1.0,1.0,662.697,1.0,471.0,14.0,1.10924,0.881954
Multiracial,3,Left,18,Female,Yes,English,E,473,0,4,4,180.0,1.0,1.0,617.128,1.0,472.0,14.0,1.07198,0.839349
Multiracial,3,Left,18,Female,Yes,English,E,474,1,0,16,0.0,1.0,0.0,477.049,1.0,473.0,14.0,1.12827,0.892928
Multiracial,3,Left,18,Female,Yes,English,E,475,1,8,8,180.0,1.0,1.0,734.787,1.0,474.0,14.0,1.13363,0.927673
Multiracial,3,Left,18,Female,Yes,English,E,476,1,4,8,0.0,0.0,1.0,651.621,1.0,475.0,14.0,1.13871,0.862678
Multiracial,3,Left,18,Female,Yes,English,E,477,0,8,8,0.0,0.0,1.0,781.341,1.0,476.0,14.0,1.08691,0.988874
Multiracial,3,Left,18,Female,Yes,English,E,478,1,8,4,180.0,1.0,1.0,660.474,1.0,477.0,14.0,1.14324,0.924633
Multiracial,3,Left,18,Female,Yes,English,E,479,0,4,0,0.0,0.0,1.0,949.81,1.0,478.0,14.0,1.19682,0.853253
Multiracial,3,Left,18,Female,Yes,English,E,480,0,4,8,180.0,1.0,1.0,584.68,1.0,479.0,14.0,1.0492,0.893364
Multiracial,3,Left,18,Female,Yes,English,E,481,0,16,4,180.0,1.0,1.0,1105.5,1.0,480.0,15.0,1.0718,0.830501
Multiracial,3,Left,18,Female,Yes,English,E,482,1,0,8,180.0,1.0,1.0,601.403,1.0,481.0,15.0,1.06468,0.996042
Multiracial,3,Left,18,Female,Yes,English,E,483,1,16,16,180.0,1.0,1.0,595.351,1.0,482.0,15.0,1.14203,0.844195
Multiracial,3,Left,18,Female,Yes,English,E,484,1,16,0,0.0,0.0,1.0,584.927,1.0,483.0,15.0,1.05682,0.871485
Multiracial,3,Left,18,Female,Yes,English,E,485,1,0,16,0.0,0.0,1.0,422.877,1.0,484.0,15.0,1.12417,0.853808
Multiracial,3,Left,18,Female,Yes,English,E,486,0,8,16,180.0,1.0,1.0,612.311,1.0,485.0,15.0,1.02713,0.838657
Multiracial,3,Left,18,Female,Yes,English,E,487,0,16,16,180.0,0.0,0.0,517.61,1.0,486.0,15.0,1.1193,0.885599
Multiracial,3,Left,18,Female,Yes,English,E,488,1,4,0,180.0,1.0,1.0,642.554,1.0,487.0,15.0,1.16163,0.944726
Multiracial,3,Left,18,Female,Yes,English,E,489,1,8,16,0.0,0.0,1.0,550.274,1.0,488.0,15.0,1.11797,0.905331
Multiracial,3,Left,18,Female,Yes,English,E,490,0,16,0,0.0,0.0,1.0,590.875,1.0,489.0,15.0,1.19401,0.83565
Multiracial,3,Left,18,Female,Yes,English,E,491,0,8,8,180.0,1.0,1.0,828.935,1.0,490.0,15.0,1.11822,0.858599
Multiracial,3,Left,18,Female,Yes,English,E,492,1,8,0,180.0,1.0,1.0,958.53,1.0,491.0,15.0,1.15074,0.969549
Multiracial,3,Left,18,Female,Yes,English,E,493,0,4,4,0.0,0.0,1.0,761.591,1.0,492.0,15.0,1.10395,0.988317
Multiracial,3,Left,18,Female,Yes,English,E,494,1,8,8,0.0,0.0,1.0,517.19,1.0,493.0,15.0,1.06149,0.912155
Multiracial,3,Left,18,Female,Yes,English,E,495,1,4,8,180.0,1.0,1.0,576.274,1.0,494.0,15.0,1.08754,0.899934
Multiracial,3,Left,18,Female,Yes,English,E,496,1,0,0,0.0,0.0,1.0,433.69,1.0,495.0,15.0,1.07262,0.939114
Multiracial,3,Left,18,Female,Yes,English,E,497,0,4,8,180.0,1.0,1.0,906.059,1.0,496.0,15.0,1.03964,0.937863
Multiracial,3,Left,18,Female,Yes,English,E,498,1,4,16,180.0,1.0,1.0,568.557,1.0,497.0,15.0,1.10379,0.805273
Multiracial,3,Left,18,Female,Yes,English,E,499,0,4,0,180.0,1.0,1.0,605.729,1.0,498.0,15.0,1.19907,0.933487
Multiracial,3,Left,18,Female,Yes,English,E,500,0,4,16,0.0,1.0,0.0,693.603,1.0,499.0,15.0,1.16386,0.820824
Multiracial,3,Left,18,Female,Yes,English,E,501,1,4,4,180.0,1.0,1.0,607.003,1.0,500.0,15.0,1.05742,0.804052
Multiracial,3,Left,18,Female,Yes,English,E,502,1,0,4,0.0,0.0,1.0,742.175,1.0,501.0,15.0,1.15042,0.881564
Multiracial,3,Left,18,Female,Yes,English,E,503,0,0,8,0.0,0.0,1.0,719.72,1.0,502.0,15.0,1.16718,0.818165
Multiracial,3,Left,18,Female,Yes,English,E,504,0,8,4,0.0,0.0,1.0,729.418,1.0,503.0,15.0,1.10547,0.876362
Multiracial,3,Left,18,Female,Yes,English,E,505,0,0,16,180.0,1.0,1.0,624.319,1.0,504.0,15.0,1.16858,0.979694
Multiracial,3,Left,18,Female,Yes,English,E,506,1,16,8,180.0,1.0,1.0,551.217,1.0,505.0,15.0,1.16588,0.811452
Multiracial,3,Left,18,Female,Yes,English,E,507,0,16,8,0.0,0.0,1.0,807.565,1.0,506.0,15.0,1.10252,0.911579
Multiracial,3,Left,18,Female,Yes,English,E,508,1,16,4,180.0,1.0,1.0,1068.94,1.0,507.0,15.0,1.02391,0.94626
Multiracial,3,Left,18,Female,Yes,English,E,509,0,0,0,0.0,0.0,1.0,517.93,1.0,508.0,15.0,1.00683,0.834943
Multiracial,3,Left,18,Female,Yes,English,E,510,1,8,4,0.0,0.0,1.0,585.994,1.0,509.0,15.0,1.19633,0.959785
Multiracial,3,Left,18,Female,Yes,English,E,511,0,0,4,0.0,0.0,1.0,872.873,1.0,510.0,15.0,1.0054,0.847385
Multiracial,3,Left,18,Female,Yes,English,E,512,0,8,0,0.0,0.0,1.0,673.442,1.0,511.0,15.0,1.10109,0.983505
Multiracial,3,Left,18,Female,Yes,English,E,513,1,8,8,0.0,0.0,1.0,1116.42,1.0,512.0,16.0,1.11513,0.810224
Multiracial,3,Left,18,Female,Yes,English,E,514,0,4,0,0.0,0.0,1.0,504.631,1.0,513.0,16.0,1.14896,0.913691
Multiracial,3,Left,18,Female,Yes,English,E,515,0,0,8,180.0,1.0,1.0,507.048,1.0,514.0,16.0,1.1883,0.951657
Multiracial,3,Left,18,Female,Yes,English,E,516,0,8,0,0.0,1.0,0.0,605.811,1.0,515.0,16.0,1.15917,0.874282
Multiracial,3,Left,18,Female,Yes,English,E,517,1,4,0,180.0,1.0,1.0,567.974,1.0,516.0,16.0,1.19008,0.988063
Multiracial,3,Left,18,Female,Yes,English,E,518,0,8,4,180.0,0.0,0.0,574.684,1.0,517.0,16.0,1.061,0.861381
Multiracial,3,Left,18,Female,Yes,English,E,519,0,16,8,180.0,1.0,1.0,839.715,1.0,518.0,16.0,1.15183,0.823532
Multiracial,3,Left,18,Female,Yes,English,E,520,1,4,4,180.0,1.0,1.0,824.371,1.0,519.0,16.0,1.17823,0.830449
Multiracial,3,Left,18,Female,Yes,English,E,521,1,8,0,180.0,1.0,1.0,643.773,1.0,520.0,16.0,1.07503,0.851567
Multiracial,3,Left,18,Female,Yes,English,E,522,0,8,8,0.0,0.0,1.0,708.057,1.0,521.0,16.0,1.09704,0.934312
Multiracial,3,Left,18,Female,Yes,English,E,523,1,0,4,180.0,1.0,1.0,747.326,1.0,522.0,16.0,1.03874,0.897498
Multiracial,3,Left,18,Female,Yes,English,E,524,1,0,8,180.0,1.0,1.0,559.723,1.0,523.0,16.0,1.08069,0.864064
Multiracial,3,Left,18,Female,Yes,English,E,525,1,16,4,180.0,1.0,1.0,995.147,1.0,524.0,16.0,1.04027,0.920776
Multiracial,3,Left,18,Female,Yes,English,E,526,0,4,16,0.0,1.0,0.0,965.289,1.0,525.0,16.0,1.12623,0.800324
Multiracial,3,Left,18,Female,Yes,English,E,527,1,4,16,180.0,1.0,1.0,684.896,1.0,526.0,16.0,1.09658,0.97359
Multiracial,3,Left,18,Female,Yes,English,E,528,1,4,8,0.0,0.0,1.0,570.922,1.0,527.0,16.0,1.02958,0.803016
Multiracial,3,Left,18,Female,Yes,English,E,529,1,8,4,180.0,1.0,1.0,731.131,1.0,528.0,16.0,1.02779,0.904173
Multiracial,3,Left,18,Female,Yes,English,E,530,0,0,16,0.0,0.0,1.0,965.269,1.0,529.0,16.0,1.05749,0.88101
Multiracial,3,Left,18,Female,Yes,English,E,531,0,0,4,180.0,1.0,1.0,717.85,1.0,530.0,16.0,1.01836,0.843894
Multiracial,3,Left,18,Female,Yes,English,E,532,1,8,16,0.0,0.0,1.0,681.511,1.0,531.0,16.0,1.19839,0.859738
Multiracial,3,Left,18,Female,Yes,English,E,533,0,0,0,0.0,0.0,1.0,631.294,1.0,532.0,16.0,1.10227,0.835117
Multiracial,3,Left,18,Female,Yes,English,E,534,1,0,16,180.0,1.0,1.0,638.394,1.0,533.0,16.0,1.18199,0.91068
Multiracial,3,Left,18,Female,Yes,English,E,535,0,4,4,0.0,0.0,1.0,765.721,1.0,534.0,16.0,1.06931,0.932573
Multiracial,3,Left,18,Female,Yes,English,E,536,1,16,8,0.0,0.0,1.0,836.352,1.0,535.0,16.0,1.19358,0.925282
Multiracial,3,Left,18,Female,Yes,English,E,537,0,16,16,0.0,0.0,1.0,670.024,1.0,536.0,16.0,1.17054,0.875411
Multiracial,3,Left,18,Female,Yes,English,E,538,1,16,16,180.0,1.0,1.0,1069.12,1.0,537.0,16.0,1.05127,0.9837
Multiracial,3,Left,18,Female,Yes,English,E,539,1,16,0,180.0,1.0,1.0,645.498,1.0,538.0,16.0,1.08266,0.969055
Multiracial,3,Left,18,Female,Yes,English,E,540,0,4,8,180.0,1.0,1.0,948.549,1.0,539.0,16.0,1.06123,0.994572
Multiracial,3,Left,18,Female,Yes,English,E,541,0,16,0,0.0,0.0,1.0,729.695,1.0,540.0,16.0,1.1921,0.829398
Multiracial,3,Left,18,Female,Yes,English,E,542,0,8,16,0.0,0.0,1.0,572.533,1.0,541.0,16.0,1.12249,0.889932
Multiracial,3,Left,18,Female,Yes,English,E,543,0,16,4,0.0,0.0,1.0,889.503,1.0,542.0,16.0,1.14284,0.995275
Multiracial,3,Left,18,Female,Yes,English,E,544,1,0,0,0.0,0.0,1.0,492.494,1.0,543.0,16.0,1.00033,0.803358
Multiracial,3,Left,18,Female,Yes,English,E,545,1,0,0,0.0,0.0,1.0,554.997,1.0,544.0,17.0,1.11922,0.81652
Multiracial,3,Left,18,Female,Yes,English,E,546,0,8,0,180.0,1.0,1.0,668.472,1.0,545.0,17.0,1.00871,0.932279
Multiracial,3,Left,18,Female,Yes,English,E,547,0,16,0,0.0,0.0,1.0,639.547,1.0,546.0,17.0,1.12837,0.81108
Multiracial,3,Left,18,Female,Yes,English,E,548,0,16,8,0.0,0.0,1.0,601.133,1.0,547.0,17.0,1.00789,0.982773
Multiracial,3,Left,18,Female,Yes,English,E,549,0,4,8,180.0,1.0,1.0,698.86,1.0,548.0,17.0,1.0269,0.860281
Multiracial,3,Left,18,Female,Yes,English,E,550,1,4,8,180.0,1.0,1.0,535.04,1.0,549.0,17.0,1.01986,0.970785
Multiracial,3,Left,18,Female,Yes,English,E,551,1,16,8,0.0,0.0,1.0,633.818,1.0,550.0,17.0,1.0244,0.803961
Multiracial,3,Left,18,Female,Yes,English,E,552,0,0,8,180.0,1.0,1.0,669.265,1.0,551.0,17.0,1.13465,0.893087
Multiracial,3,Left,18,Female,Yes,English,E,553,0,8,16,0.0,0.0,1.0,756.923,1.0,552.0,17.0,1.09209,0.996458
Multiracial,3,Left,18,Female,Yes,English,E,554,1,0,8,180.0,1.0,1.0,554.632,1.0,553.0,17.0,1.08625,0.980358
Multiracial,3,Left,18,Female,Yes,English,E,555,1,8,0,0.0,0.0,1.0,927.756,1.0,554.0,17.0,1.12216,0.94973
Multiracial,3,Left,18,Female,Yes,English,E,556,1,8,8,0.0,0.0,1.0,1154.23,1.0,555.0,17.0,1.0879,0.903671
Multiracial,3,Left,18,Female,Yes,English,E,557,0,16,16,180.0,1.0,1.0,585.966,1.0,556.0,17.0,1.06599,0.856232
Multiracial,3,Left,18,Female,Yes,English,E,558,0,0,4,0.0,0.0,1.0,726.737,1.0,557.0,17.0,1.12907,0.873746
Multiracial,3,Left,18,Female,Yes,English,E,559,1,4,0,180.0,1.0,1.0,523.011,1.0,558.0,17.0,1.11423,0.880186
Multiracial,3,Left,18,Female,Yes,English,E,560,1,4,16,180.0,1.0,1.0,567.313,1.0,559.0,17.0,1.05156,0.865757
Multiracial,3,Left,18,Female,Yes,English,E,561,1,16,4,180.0,1.0,1.0,759.993,1.0,560.0,17.0,1.10808,0.947259
Multiracial,3,Left,18,Female,Yes,English,E,562,0,4,16,180.0,1.0,1.0,689.712,1.0,561.0,17.0,1.0897,0.90248
Multiracial,3,Left,18,Female,Yes,English,E,563,1,16,16,180.0,1.0,1.0,1103.74,1.0,562.0,17.0,1.16936,0.901762
Multiracial,3,Left,18,Female,Yes,English,E,564,1,4,4,0.0,0.0,1.0,617.303,1.0,563.0,17.0,1.02204,0.829165
Multiracial,3,Left,18,Female,Yes,English,E,565,1,8,16,0.0,0.0,1.0,594.74,1.0,564.0,17.0,1.10569,0.944442
Multiracial,3,Left,18,Female,Yes,English,E,566,1,8,4,180.0,1.0,1.0,604.368,1.0,565.0,17.0,1.19353,0.917554
Multiracial,3,Left,18,Female,Yes,English,E,567,0,0,16,180.0,1.0,1.0,1108.74,1.0,566.0,17.0,1.09155,0.855335
Multiracial,3,Left,18,Female,Yes,English,E,568,0,8,8,180.0,1.0,1.0,759.134,1.0,567.0,17.0,1.11183,0.812272
Multiracial,3,Left,18,Female,Yes,English,E,569,0,16,4,180.0,1.0,1.0,522.422,1.0,568.0,17.0,1.18605,0.831692
Multiracial,3,Left,18,Female,Yes,English,E,570,0,4,0,0.0,0.0,1.0,595.472,1.0,569.0,17.0,1.18854,0.992904
Multiracial,3,Left,18,Female,Yes,English,E,571,0,0,0,0.0,0.0,1.0,502.247,1.0,570.0,17.0,1.02629,0.9445
Multiracial,3,Left,18,Female,Yes,English,E,572,1,0,4,0.0,0.0,1.0,498.184,1.0,571.0,17.0,1.13954,0.910055
Multiracial,3,Left,18,Female,Yes,English,E,573,0,8,4,0.0,0.0,1.0,547.966,1.0,572.0,17.0,1.08827,0.842478
Multiracial,3,Left,18,Female,Yes,English,E,574,1,16,0,0.0,0.0,1.0,452.279,1.0,573.0,17.0,1.09962,0.866116
Multiracial,3,Left,18,Female,Yes,English,E,575,0,4,4,180.0,0.0,0.0,468.796,1.0,574.0,17.0,1.1478,0.959561
Multiracial,3,Left,18,Female,Yes,English,E,576,1,0,16,0.0,0.0,1.0,492.938,1.0,575.0,17.0,1.1982,0.872521
Multiracial,3,Left,18,Female,Yes,English,E,577,0,4,0,180.0,1.0,1.0,562.068,1.0,576.0,18.0,1.19379,0.894416
Multiracial,3,Left,18,Female,Yes,English,E,578,0,16,4,180.0,1.0,1.0,538.303,1.0,577.0,18.0,1.16478,0.953263
Multiracial,3,Left,18,Female,Yes,English,E,579,1,16,16,180.0,1.0,1.0,793.873,1.0,578.0,18.0,1.01102,0.91864
Multiracial,3,Left,18,Female,Yes,English,E,580,1,16,8,180.0,1.0,1.0,1094.04,1.0,579.0,18.0,1.13356,0.860677
Multiracial,3,Left,18,Female,Yes,English,E,581,0,4,16,0.0,1.0,0.0,870.972,1.0,580.0,18.0,1.11394,0.806678
Multiracial,3,Left,18,Female,Yes,English,E,582,1,4,8,180.0,1.0,1.0,570.288,1.0,581.0,18.0,1.00235,0.805232
Multiracial,3,Left,18,Female,Yes,English,E,583,1,8,16,0.0,0.0,1.0,507.3,1.0,582.0,18.0,1.00614,0.945741
Multiracial,3,Left,18,Female,Yes,English,E,584,0,0,8,180.0,1.0,1.0,620.504,1.0,583.0,18.0,1.04577,0.879251
Multiracial,3,Left,18,Female,Yes,English,E,585,0,0,4,0.0,1.0,0.0,573.025,1.0,584.0,18.0,1.18385,0.856706
Multiracial,3,Left,18,Female,Yes,English,E,586,1,4,4,0.0,0.0,1.0,905.401,1.0,585.0,18.0,1.16104,0.905216
Multiracial,3,Left,18,Female,Yes,English,E,587,1,8,0,0.0,0.0,1.0,681.442,1.0,586.0,18.0,1.14171,0.875536
Multiracial,3,Left,18,Female,Yes,English,E,588,0,0,0,180.0,1.0,1.0,617.108,1.0,587.0,18.0,1.05445,0.943746
Multiracial,3,Left,18,Female,Yes,English,E,589,0,4,8,0.0,0.0,1.0,626.048,1.0,588.0,18.0,1.14305,0.966066
Multiracial,3,Left,18,Female,Yes,English,E,590,0,8,4,180.0,0.0,0.0,681.79,1.0,589.0,18.0,1.097,0.898875
Multiracial,3,Left,18,Female,Yes,English,E,591,1,0,0,0.0,0.0,1.0,478.801,1.0,590.0,18.0,1.19585,0.954294
Multiracial,3,Left,18,Female,Yes,English,E,592,1,16,0,180.0,1.0,1.0,890.832,1.0,591.0,18.0,1.1474,0.816438
Multiracial,3,Left,18,Female,Yes,English,E,593,0,4,4,180.0,1.0,1.0,790.56,1.0,592.0,18.0,1.02399,0.989613
Multiracial,3,Left,18,Female,Yes,English,E,594,0,8,16,0.0,0.0,1.0,932.75,1.0,593.0,18.0,1.12352,0.905918
Multiracial,3,Left,18,Female,Yes,English,E,595,0,0,16,180.0,1.0,1.0,636.405,1.0,594.0,18.0,1.02909,0.955184
Multiracial,3,Left,18,Female,Yes,English,E,596,1,4,0,0.0,0.0,1.0,522.419,1.0,595.0,18.0,1.12783,0.877009
Multiracial,3,Left,18,Female,Yes,English,E,597,0,8,0,180.0,1.0,1.0,735.937,1.0,596.0,18.0,1.03519,0.870198
Multiracial,3,Left,18,Female,Yes,English,E,598,0,16,0,180.0,1.0,1.0,1043.26,1.0,597.0,18.0,1.03585,0.931682
Multiracial,3,Left,18,Female,Yes,English,E,599,0,16,8,0.0,0.0,1.0,784.535,1.0,598.0,18.0,1.14799,0.806659
Multiracial,3,Left,18,Female,Yes,English,E,600,0,16,16,180.0,1.0,1.0,1233.83,1.0,599.0,18.0,1.10145,0.912777
Multiracial,3,Left,18,Female,Yes,English,E,601,1,0,16,0.0,0.0,1.0,929.105,1.0,600.0,18.0,1.06539,0.804623
Multiracial,3,Left,18,Female,Yes,English,E,602,1,4,16,0.0,0.0,1.0,555.61,1.0,601.0,18.0,1.00212,0.96238
Multiracial,3,Left,18,Female,Yes,English,E,603,1,16,4,0.0,0.0,1.0,530.688,1.0,602.0,18.0,1.01426,0.952829
Multiracial,3,Left,18,Female,Yes,English,E,604,1,0,4,0.0,0.0,1.0,382.202,1.0,603.0,18.0,1.01218,0.895703
Multiracial,3,Left,18,Female,Yes,English,E,605,0,8,8,180.0,1.0,1.0,772.046,1.0,604.0,18.0,1.11771,0.873258
Multiracial,3,Left,18,Female,Yes,English,E,606,1,8,8,180.0,1.0,1.0,535.544,1.0,605.0,18.0,1.04366,0.917939
Multiracial,3,Left,18,Female,Yes,English,E,607,1,8,4,0.0,0.0,1.0,820.318,1.0,606.0,18.0,1.13912,0.95648
Multiracial,3,Left,18,Female,Yes,English,E,608,1,0,8,0.0,0.0,1.0,550.23,1.0,607.0,18.0,1.07747,0.985863
Multiracial,3,Left,18,Female,Yes,English,E,609,0,8,0,0.0,1.0,0.0,667.414,1.0,608.0,19.0,1.13226,0.973611
Multiracial,3,Left,18,Female,Yes,English,E,610,0,0,4,180.0,1.0,1.0,1017.48,1.0,609.0,19.0,1.12038,0.881431
Multiracial,3,Left,18,Female,Yes,English,E,611,0,4,0,0.0,0.0,1.0,917.318,1.0,610.0,19.0,1.00656,0.939257
Multiracial,3,Left,18,Female,Yes,English,E,612,0,8,4,180.0,1.0,1.0,639.279,1.0,611.0,19.0,1.19615,0.851479
Multiracial,3,Left,18,Female,Yes,English,E,613,0,4,16,180.0,1.0,1.0,623.207,1.0,612.0,19.0,1.04991,0.946994
Multiracial,3,Left,18,Female,Yes,English,E,614,1,16,16,0.0,0.0,1.0,466.83,1.0,613.0,19.0,1.14385,0.915437
Multiracial,3,Left,18,Female,Yes,English,E,615,0,16,8,0.0,0.0,1.0,1201.34,1.0,614.0,19.0,1.16042,0.937728
Multiracial,3,Left,18,Female,Yes,English,E,616,1,16,4,180.0,1.0,1.0,792.581,1.0,615.0,19.0,1.1452,0.977448
Multiracial,3,Left,18,Female,Yes,English,E,617,1,16,0,180.0,1.0,1.0,885.883,1.0,616.0,19.0,1.18443,0.95674
Multiracial,3,Left,18,Female,Yes,English,E,618,1,8,16,0.0,0.0,1.0,764.617,1.0,617.0,19.0,1.05396,0.886479
Multiracial,3,Left,18,Female,Yes,English,E,619,1,4,4,180.0,1.0,1.0,1218.44,1.0,618.0,19.0,1.12481,0.906002
Multiracial,3,Left,18,Female,Yes,English,E,620,0,0,8,180.0,1.0,1.0,557.722,1.0,619.0,19.0,1.14634,0.967634
Multiracial,3,Left,18,Female,Yes,English,E,621,0,8,8,0.0,0.0,1.0,1021.72,1.0,620.0,19.0,1.19363,0.986622
Multiracial,3,Left,18,Female,Yes,English,E,622,0,4,4,180.0,1.0,1.0,636.249,1.0,621.0,19.0,1.13923,0.888681
Multiracial,3,Left,18,Female,Yes,English,E,623,1,0,0,0.0,0.0,1.0,430.557,1.0,622.0,19.0,1.05537,0.935107
Multiracial,3,Left,18,Female,Yes,English,E,624,0,4,8,180.0,1.0,1.0,640.601,1.0,623.0,19.0,1.1884,0.858482
Multiracial,3,Left,18,Female,Yes,English,E,625,1,0,16,0.0,0.0,1.0,471.045,1.0,624.0,19.0,1.10221,0.926623
Multiracial,3,Left,18,Female,Yes,English,E,626,1,0,8,0.0,0.0,1.0,585.728,1.0,625.0,19.0,1.17212,0.995738
Multiracial,3,Left,18,Female,Yes,English,E,627,0,16,4,0.0,0.0,1.0,1173.54,1.0,626.0,19.0,1.0143,0.914337
Multiracial,3,Left,18,Female,Yes,English,E,628,1,4,8,0.0,0.0,1.0,467.622,1.0,627.0,19.0,1.07678,0.90086
Multiracial,3,Left,18,Female,Yes,English,E,629,1,8,4,180.0,1.0,1.0,668.524,1.0,628.0,19.0,1.07403,0.893225
Multiracial,3,Left,18,Female,Yes,English,E,630,1,4,16,180.0,1.0,1.0,646.502,1.0,629.0,19.0,1.00613,0.980473
Multiracial,3,Left,18,Female,Yes,English,E,631,0,8,16,180.0,1.0,1.0,693.896,1.0,630.0,19.0,1.03201,0.834169
Multiracial,3,Left,18,Female,Yes,English,E,632,1,16,8,180.0,1.0,1.0,852.701,1.0,631.0,19.0,1.07024,0.889974
Multiracial,3,Left,18,Female,Yes,English,E,633,1,0,4,0.0,0.0,1.0,675.39,1.0,632.0,19.0,1.12266,0.849119
Multiracial,3,Left,18,Female,Yes,English,E,634,1,4,0,180.0,1.0,1.0,601.639,1.0,633.0,19.0,1.06656,0.949029
Multiracial,3,Left,18,Female,Yes,English,E,635,1,8,0,0.0,0.0,1.0,579.189,1.0,634.0,19.0,1.16282,0.850276
Multiracial,3,Left,18,Female,Yes,English,E,636,0,16,0,180.0,1.0,1.0,788.982,1.0,635.0,19.0,1.02247,0.937991
Multiracial,3,Left,18,Female,Yes,English,E,637,0,16,16,0.0,0.0,1.0,507.77,1.0,636.0,19.0,1.0178,0.831243
Multiracial,3,Left,18,Female,Yes,English,E,638,0,0,0,0.0,0.0,1.0,604.996,1.0,637.0,19.0,1.09147,0.871971
Multiracial,3,Left,18,Female,Yes,English,E,639,1,8,8,180.0,1.0,1.0,829.239,1.0,638.0,19.0,1.16091,0.85121
Multiracial,3,Left,18,Female,Yes,English,E,640,0,0,16,0.0,0.0,1.0,473.797,1.0,639.0,19.0,1.14795,0.929498
Multiracial,3,Left,18,Female,Yes,English,E,641,0,16,0,180.0,1.0,1.0,580.454,1.0,640.0,20.0,1.08335,0.945549
Multiracial,3,Left,18,Female,Yes,English,E,642,0,8,0,180.0,1.0,1.0,538.986,1.0,641.0,20.0,1.07752,0.896232
Multiracial,3,Left,18,Female,Yes,English,E,643,1,8,0,180.0,1.0,1.0,509.117,1.0,642.0,20.0,1.04936,0.975016
Multiracial,3,Left,18,Female,Yes,English,E,644,0,8,4,0.0,0.0,1.0,728.954,1.0,643.0,20.0,1.17928,0.965759
Multiracial,3,Left,18,Female,Yes,English,E,645,1,0,4,0.0,0.0,1.0,744.0,1.0,644.0,20.0,1.053,0.932379
Multiracial,3,Left,18,Female,Yes,English,E,646,0,0,8,180.0,1.0,1.0,581.157,1.0,645.0,20.0,1.01931,0.840409
Multiracial,3,Left,18,Female,Yes,English,E,647,0,4,4,180.0,0.0,0.0,529.466,1.0,646.0,20.0,1.05037,0.85518
Multiracial,3,Left,18,Female,Yes,English,E,648,0,4,8,180.0,1.0,1.0,748.899,1.0,647.0,20.0,1.03984,0.819435
Multiracial,3,Left,18,Female,Yes,English,E,649,1,16,16,180.0,1.0,1.0,1006.51,1.0,648.0,20.0,1.14736,0.813714
Multiracial,3,Left,18,Female,Yes,English,E,650,0,0,4,180.0,1.0,1.0,726.872,1.0,649.0,20.0,1.1535,0.959897
Multiracial,3,Left,18,Female,Yes,English,E,651,0,0,0,180.0,1.0,1.0,511.007,1.0,650.0,20.0,1.18809,0.905448
Multiracial,3,Left,18,Female,Yes,English,E,652,1,8,16,180.0,1.0,1.0,903.39,1.0,651.0,20.0,1.03028,0.93602
Multiracial,3,Left,18,Female,Yes,English,E,653,1,8,4,0.0,0.0,1.0,604.447,1.0,652.0,20.0,1.13078,0.952034
Multiracial,3,Left,18,Female,Yes,English,E,654,0,8,8,180.0,1.0,1.0,623.501,1.0,653.0,20.0,1.07302,0.951218
Multiracial,3,Left,18,Female,Yes,English,E,655,1,0,8,0.0,0.0,1.0,623.617,1.0,654.0,20.0,1.07714,0.939799
Multiracial,3,Left,18,Female,Yes,English,E,656,0,16,8,0.0,0.0,1.0,756.716,1.0,655.0,20.0,1.19431,0.975515
Multiracial,3,Left,18,Female,Yes,English,E,657,1,0,0,0.0,0.0,1.0,419.765,1.0,656.0,20.0,1.1883,0.94888
Multiracial,3,Left,18,Female,Yes,English,E,658,1,4,16,0.0,0.0,1.0,601.921,1.0,657.0,20.0,1.12537,0.977944
Multiracial,3,Left,18,Female,Yes,English,E,659,0,0,16,0.0,0.0,1.0,764.888,1.0,658.0,20.0,1.13462,0.853909
Multiracial,3,Left,18,Female,Yes,English,E,660,1,16,8,180.0,0.0,0.0,768.996,1.0,659.0,20.0,1.18298,0.926033
Multiracial,3,Left,18,Female,Yes,English,E,661,1,4,0,0.0,0.0,1.0,666.676,1.0,660.0,20.0,1.0113,0.875314
Multiracial,3,Left,18,Female,Yes,English,E,662,1,4,4,0.0,0.0,1.0,590.125,1.0,661.0,20.0,1.12694,0.885066
Multiracial,3,Left,18,Female,Yes,English,E,663,0,16,16,180.0,1.0,1.0,1126.17,1.0,662.0,20.0,1.19574,0.911151
Multiracial,3,Left,18,Female,Yes,English,E,664,0,8,16,180.0,1.0,1.0,1008.12,1.0,663.0,20.0,1.13256,0.896756
Multiracial,3,Left,18,Female,Yes,English,E,665,0,4,16,0.0,0.0,1.0,813.854,1.0,664.0,20.0,1.14974,0.825696
Multiracial,3,Left,18,Female,Yes,English,E,666,1,0,16,180.0,1.0,1.0,515.153,1.0,665.0,20.0,1.16568,0.937931
Multiracial,3,Left,18,Female,Yes,English,E,667,1,8,8,0.0,0.0,1.0,806.735,1.0,666.0,20.0,1.06305,0.823403
Multiracial,3,Left,18,Female,Yes,English,E,668,1,16,0,0.0,0.0,1.0,742.497,1.0,667.0,20.0,1.19702,0.808621
Multiracial,3,Left,18,Female,Yes,English,E,669,0,4,0,180.0,1.0,1.0,768.884,1.0,668.0,20.0,1.06616,0.922669
Multiracial,3,Left,18,Female,Yes,English,E,670,1,16,4,0.0,0.0,1.0,486.552,1.0,669.0,20.0,1.06169,0.836556
Multiracial,3,Left,18,Female,Yes,English,E,671,0,16,4,0.0,0.0,1.0,776.074,1.0,670.0,20.0,1.04729,0.811401
Multiracial,3,Left,18,Female,Yes,English,E,672,1,4,8,0.0,0.0,1.0,604.585,1.0,671.0,20.0,1.09723,0.973474
Multiracial,3,Left,18,Female,Yes,English,E,673,0,16,8,0.0,0.0,1.0,821.117,1.0,672.0,21.0,1.06936,0.86549
Multiracial,3,Left,18,Female,Yes,English,E,674,1,0,8,0.0,0.0,1.0,730.19,1.0,673.0,21.0,1.071,0.986553
Multiracial,3,Left,18,Female,Yes,English,E,675,1,4,4,180.0,1.0,1.0,617.861,1.0,674.0,21.0,1.09152,0.859709
Multiracial,3,Left,18,Female,Yes,English,E,676,0,8,4,0.0,0.0,1.0,573.324,1.0,675.0,21.0,1.1781,0.808997
Multiracial,3,Left,18,Female,Yes,English,E,677,1,16,16,0.0,1.0,0.0,665.448,1.0,676.0,21.0,1.01393,0.878271
Multiracial,3,Left,18,Female,Yes,English,E,678,0,8,16,180.0,1.0,1.0,552.686,1.0,677.0,21.0,1.14156,0.849413
Multiracial,3,Left,18,Female,Yes,English,E,679,0,4,8,180.0,1.0,1.0,805.643,1.0,678.0,21.0,1.16732,0.931557
Multiracial,3,Left,18,Female,Yes,English,E,680,1,4,8,180.0,1.0,1.0,624.925,1.0,679.0,21.0,1.16736,0.929654
Multiracial,3,Left,18,Female,Yes,English,E,681,1,4,16,180.0,1.0,1.0,509.634,1.0,680.0,21.0,1.16925,0.92051
Multiracial,3,Left,18,Female,Yes,English,E,682,0,0,8,0.0,0.0,1.0,737.526,1.0,681.0,21.0,1.17899,0.952982
Multiracial,3,Left,18,Female,Yes,English,E,683,0,0,0,180.0,0.0,0.0,428.59,1.0,682.0,21.0,1.14162,0.977043
Multiracial,3,Left,18,Female,Yes,English,E,684,1,8,4,0.0,0.0,1.0,864.82,1.0,683.0,21.0,1.17835,0.974565
Multiracial,3,Left,18,Female,Yes,English,E,685,1,0,0,0.0,0.0,1.0,655.523,1.0,684.0,21.0,1.09128,0.936184
Multiracial,3,Left,18,Female,Yes,English,E,686,0,4,4,0.0,0.0,1.0,631.172,1.0,685.0,21.0,1.06896,0.877333
Multiracial,3,Left,18,Female,Yes,English,E,687,0,0,16,180.0,1.0,1.0,609.845,1.0,686.0,21.0,1.0626,0.920009
Multiracial,3,Left,18,Female,Yes,English,E,688,1,0,4,180.0,1.0,1.0,556.915,1.0,687.0,21.0,1.17263,0.816359
Multiracial,3,Left,18,Female,Yes,English,E,689,1,8,8,180.0,1.0,1.0,632.505,1.0,688.0,21.0,1.16937,0.990234
Multiracial,3,Left,18,Female,Yes,English,E,690,1,8,0,0.0,0.0,1.0,748.309,1.0,689.0,21.0,1.12552,0.883911
Multiracial,3,Left,18,Female,Yes,English,E,691,0,4,16,0.0,0.0,1.0,596.708,1.0,690.0,21.0,1.04579,0.891317
Multiracial,3,Left,18,Female,Yes,English,E,692,1,0,16,180.0,1.0,1.0,530.723,1.0,691.0,21.0,1.02236,0.903767
Multiracial,3,Left,18,Female,Yes,English,E,693,1,4,0,180.0,1.0,1.0,628.034,1.0,692.0,21.0,1.08752,0.955921
Multiracial,3,Left,18,Female,Yes,English,E,694,0,8,8,0.0,0.0,1.0,611.681,1.0,693.0,21.0,1.04814,0.900604
Multiracial,3,Left,18,Female,Yes,English,E,695,0,16,16,180.0,1.0,1.0,881.065,1.0,694.0,21.0,1.00334,0.870506
Multiracial,3,Left,18,Female,Yes,English,E,696,0,8,0,180.0,1.0,1.0,581.566,1.0,695.0,21.0,1.1456,0.822859
Multiracial,3,Left,18,Female,Yes,English,E,697,1,16,8,0.0,1.0,0.0,1382.29,1.0,696.0,21.0,1.05234,0.975608
Multiracial,3,Left,18,Female,Yes,English,E,698,1,8,16,0.0,0.0,1.0,532.833,1.0,697.0,21.0,1.10614,0.95902
Multiracial,3,Left,18,Female,Yes,English,E,699,0,4,0,180.0,1.0,1.0,771.955,1.0,698.0,21.0,1.18033,0.805308
Multiracial,3,Left,18,Female,Yes,English,E,700,1,16,4,180.0,1.0,1.0,785.749,1.0,699.0,21.0,1.13912,0.814455
Multiracial,3,Left,18,Female,Yes,English,E,701,1,16,0,0.0,0.0,1.0,597.839,1.0,700.0,21.0,1.16662,0.908326
Multiracial,3,Left,18,Female,Yes,English,E,702,0,16,4,0.0,0.0,1.0,696.359,1.0,701.0,21.0,1.18283,0.935971
Multiracial,3,Left,18,Female,Yes,English,E,703,0,16,0,180.0,1.0,1.0,922.491,1.0,702.0,21.0,1.16862,0.961943
Multiracial,3,Left,18,Female,Yes,English,E,704,0,0,4,0.0,0.0,1.0,547.657,1.0,703.0,21.0,1.05412,0.907028
Multiracial,3,Left,18,Female,Yes,English,E,705,1,16,4,0.0,0.0,1.0,631.816,1.0,704.0,22.0,1.04166,0.996947
Multiracial,3,Left,18,Female,Yes,English,E,706,0,8,4,0.0,0.0,1.0,650.341,1.0,705.0,22.0,1.14095,0.846597
Multiracial,3,Left,18,Female,Yes,English,E,707,1,0,4,0.0,0.0,1.0,676.03,1.0,706.0,22.0,1.16278,0.974804
Multiracial,3,Left,18,Female,Yes,English,E,708,1,8,16,0.0,0.0,1.0,643.61,1.0,707.0,22.0,1.16704,0.860931
Multiracial,3,Left,18,Female,Yes,English,E,709,0,0,8,0.0,0.0,1.0,582.811,1.0,708.0,22.0,1.18377,0.939236
Multiracial,3,Left,18,Female,Yes,English,E,710,0,16,4,180.0,1.0,1.0,875.171,1.0,709.0,22.0,1.03902,0.887022
Multiracial,3,Left,18,Female,Yes,English,E,711,1,16,0,0.0,0.0,1.0,669.251,1.0,710.0,22.0,1.10688,0.968399
Multiracial,3,Left,18,Female,Yes,English,E,712,1,4,16,0.0,0.0,1.0,573.581,1.0,711.0,22.0,1.15629,0.866402
Multiracial,3,Left,18,Female,Yes,English,E,713,1,0,16,180.0,0.0,0.0,410.607,1.0,712.0,22.0,1.10343,0.806414
Multiracial,3,Left,18,Female,Yes,English,E,714,1,4,0,180.0,1.0,1.0,783.155,1.0,713.0,22.0,1.15787,0.948553
Multiracial,3,Left,18,Female,Yes,English,E,715,0,16,8,180.0,1.0,1.0,1204.49,1.0,714.0,22.0,1.07424,0.9433
Multiracial,3,Left,18,Female,Yes,English,E,716,0,0,0,180.0,1.0,1.0,632.714,1.0,715.0,22.0,1.06499,0.870032
Multiracial,3,Left,18,Female,Yes,English,E,717,1,8,4,180.0,1.0,1.0,556.115,1.0,716.0,22.0,1.0064,0.954023
Multiracial,3,Left,18,Female,Yes,English,E,718,0,4,8,0.0,0.0,1.0,708.333,1.0,717.0,22.0,1.07085,0.837102
Multiracial,3,Left,18,Female,Yes,English,E,719,0,16,0,180.0,1.0,1.0,675.178,1.0,718.0,22.0,1.06277,0.991709
Multiracial,3,Left,18,Female,Yes,English,E,720,1,4,8,0.0,0.0,1.0,693.449,1.0,719.0,22.0,1.0973,0.805537
Multiracial,3,Left,18,Female,Yes,English,E,721,1,16,8,180.0,1.0,1.0,1206.68,1.0,720.0,22.0,1.17824,0.935764
Multiracial,3,Left,18,Female,Yes,English,E,722,1,16,16,0.0,0.0,1.0,649.847,1.0,721.0,22.0,1.15978,0.948265
Multiracial,3,Left,18,Female,Yes,English,E,723,0,0,16,0.0,0.0,1.0,661.866,1.0,722.0,22.0,1.10931,0.97106
Multiracial,3,Left,18,Female,Yes,English,E,724,0,0,4,0.0,0.0,1.0,550.632,1.0,723.0,22.0,1.15411,0.959066
Multiracial,3,Left,18,Female,Yes,English,E,725,1,8,0,180.0,1.0,1.0,1040.11,1.0,724.0,22.0,1.18545,0.899709
Multiracial,3,Left,18,Female,Yes,English,E,726,0,4,0,0.0,0.0,1.0,535.493,1.0,725.0,22.0,1.10223,0.987812
Multiracial,3,Left,18,Female,Yes,English,E,727,0,8,0,180.0,1.0,1.0,608.069,1.0,726.0,22.0,1.13684,0.831852
Multiracial,3,Left,18,Female,Yes,English,E,728,1,0,8,180.0,1.0,1.0,442.193,1.0,727.0,22.0,1.08173,0.909791
Multiracial,3,Left,18,Female,Yes,English,E,729,1,8,8,0.0,0.0,1.0,593.145,1.0,728.0,22.0,1.01531,0.804237
Multiracial,3,Left,18,Female,Yes,English,E,730,0,8,16,180.0,1.0,1.0,589.965,1.0,729.0,22.0,1.09399,0.951314
Multiracial,3,Left,18,Female,Yes,English,E,731,0,4,16,0.0,0.0,1.0,557.112,1.0,730.0,22.0,1.02551,0.857581
Multiracial,3,Left,18,Female,Yes,English,E,732,0,4,4,180.0,1.0,1.0,574.375,1.0,731.0,22.0,1.16639,0.963848
Multiracial,3,Left,18,Female,Yes,English,E,733,0,8,8,180.0,1.0,1.0,679.259,1.0,732.0,22.0,1.13275,0.880269
Multiracial,3,Left,18,Female,Yes,English,E,734,1,4,4,0.0,0.0,1.0,684.71,1.0,733.0,22.0,1.10212,0.956473
Multiracial,3,Left,18,Female,Yes,English,E,735,1,0,0,180.0,1.0,1.0,528.828,1.0,734.0,22.0,1.18067,0.811605
Multiracial,3,Left,18,Female,Yes,English,E,736,0,16,16,180.0,1.0,1.0,631.693,1.0,735.0,22.0,1.0047,0.88554
Multiracial,3,Left,18,Female,Yes,English,E,737,1,8,16,0.0,0.0,1.0,632.102,1.0,736.0,23.0,1.08059,0.864509
Multiracial,3,Left,18,Female,Yes,English,E,738,0,16,16,180.0,1.0,1.0,601.921,1.0,737.0,23.0,1.16683,0.905931
Multiracial,3,Left,18,Female,Yes,English,E,739,0,0,0,0.0,0.0,1.0,535.932,1.0,738.0,23.0,1.04759,0.968543
Multiracial,3,Left,18,Female,Yes,English,E,740,0,0,16,0.0,0.0,1.0,524.855,1.0,739.0,23.0,1.09649,0.84437
Multiracial,3,Left,18,Female,Yes,English,E,741,1,8,0,0.0,0.0,1.0,852.517,1.0,740.0,23.0,1.03142,0.999115
Multiracial,3,Left,18,Female,Yes,English,E,742,0,8,0,180.0,1.0,1.0,683.135,1.0,741.0,23.0,1.09875,0.938462
Multiracial,3,Left,18,Female,Yes,English,E,743,0,4,0,180.0,1.0,1.0,556.48,1.0,742.0,23.0,1.11734,0.920267
Multiracial,3,Left,18,Female,Yes,English,E,744,1,4,16,0.0,0.0,1.0,784.398,1.0,743.0,23.0,1.02216,0.897967
Multiracial,3,Left,18,Female,Yes,English,E,745,0,4,16,180.0,1.0,1.0,843.883,1.0,744.0,23.0,1.07998,0.964561
Multiracial,3,Left,18,Female,Yes,English,E,746,1,4,8,180.0,1.0,1.0,510.695,1.0,745.0,23.0,1.01275,0.956953
Multiracial,3,Left,18,Female,Yes,English,E,747,0,16,4,180.0,1.0,1.0,522.49,1.0,746.0,23.0,1.1917,0.99606
Multiracial,3,Left,18,Female,Yes,English,E,748,0,0,8,0.0,0.0,1.0,612.439,1.0,747.0,23.0,1.08226,0.920414
Multiracial,3,Left,18,Female,Yes,English,E,749,1,0,8,180.0,1.0,1.0,670.675,1.0,748.0,23.0,1.11286,0.849031
Multiracial,3,Left,18,Female,Yes,English,E,750,1,16,4,0.0,0.0,1.0,842.39,1.0,749.0,23.0,1.00041,0.890008
Multiracial,3,Left,18,Female,Yes,English,E,751,0,4,4,0.0,0.0,1.0,1127.65,1.0,750.0,23.0,1.09273,0.95433
Multiracial,3,Left,18,Female,Yes,English,E,752,1,8,4,180.0,1.0,1.0,589.915,1.0,751.0,23.0,1.04574,0.876082
Multiracial,3,Left,18,Female,Yes,English,E,753,1,4,0,0.0,0.0,1.0,808.293,1.0,752.0,23.0,1.13773,0.975793
Multiracial,3,Left,18,Female,Yes,English,E,754,0,8,4,180.0,1.0,1.0,598.284,1.0,753.0,23.0,1.1546,0.998583
Multiracial,3,Left,18,Female,Yes,English,E,755,1,0,0,0.0,0.0,1.0,591.988,1.0,754.0,23.0,1.06143,0.856177
Multiracial,3,Left,18,Female,Yes,English,E,756,1,0,4,0.0,0.0,1.0,643.973,1.0,755.0,23.0,1.14996,0.88291
Multiracial,3,Left,18,Female,Yes,English,E,757,1,8,8,180.0,1.0,1.0,856.895,1.0,756.0,23.0,1.09284,0.998385
Multiracial,3,Left,18,Female,Yes,English,E,758,0,16,0,0.0,0.0,1.0,651.789,1.0,757.0,23.0,1.03103,0.930428
Multiracial,3,Left,18,Female,Yes,English,E,759,0,8,8,0.0,0.0,1.0,847.173,1.0,758.0,23.0,1.12541,0.873375
Multiracial,3,Left,18,Female,Yes,English,E,760,0,16,8,180.0,1.0,1.0,810.266,1.0,759.0,23.0,1.0482,0.900148
Multiracial,3,Left,18,Female,Yes,English,E,761,0,0,4,180.0,1.0,1.0,546.643,1.0,760.0,23.0,1.16139,0.943624
Multiracial,3,Left,18,Female,Yes,English,E,762,1,0,16,0.0,0.0,1.0,910.947,1.0,761.0,23.0,1.00682,0.993082
Multiracial,3,Left,18,Female,Yes,English,E,763,1,16,8,180.0,1.0,1.0,771.649,1.0,762.0,23.0,1.06023,0.88565
Multiracial,3,Left,18,Female,Yes,English,E,764,0,4,8,0.0,0.0,1.0,645.014,1.0,763.0,23.0,1.02136,0.822554
Multiracial,3,Left,18,Female,Yes,English,E,765,1,16,0,180.0,1.0,1.0,625.726,1.0,764.0,23.0,1.18623,0.851423
Multiracial,3,Left,18,Female,Yes,English,E,766,1,16,16,180.0,1.0,1.0,765.127,1.0,765.0,23.0,1.0115,0.98304
Multiracial,3,Left,18,Female,Yes,English,E,767,1,4,4,0.0,0.0,1.0,707.357,1.0,766.0,23.0,1.05172,0.806248
Multiracial,3,Left,18,Female,Yes,English,E,768,0,8,16,180.0,1.0,1.0,521.398,1.0,767.0,23.0,1.12687,0.90923
