Ethnicity,Subject Number,Preferred Hand,Age,Gender,Color blind,First Language,Room,TrialNumber,background,turtles,tortoises,target_id,resp,hit,rt,ran,order,block,iti,fix_duration
White,4,Right,18,Female,Yes,English,B,1,1,16,0,0.0,0.0,1.0,1464.67,1.0,0.0,0.0,1.14516,0.880309
White,4,Right,18,Female,Yes,English,B,2,1,16,4,180.0,1.0,1.0,672.409,1.0,1.0,0.0,1.09895,0.952508
White,4,Right,18,Female,Yes,English,B,3,0,0,0,180.0,1.0,1.0,682.324,1.0,2.0,0.0,1.15212,0.816695
White,4,Right,18,Female,Yes,English,B,4,0,16,0,0.0,0.0,1.0,638.171,1.0,3.0,0.0,1.16832,0.940628
White,4,Right,18,Female,Yes,English,B,5,1,8,4,0.0,0.0,1.0,755.817,1.0,4.0,0.0,1.1718,0.914615
White,4,Right,18,Female,Yes,English,B,6,0,16,16,0.0,0.0,1.0,870.674,1.0,5.0,0.0,1.01365,0.947083
White,4,Right,18,Female,Yes,English,B,7,0,16,4,0.0,0.0,1.0,832.088,1.0,6.0,0.0,1.08694,0.957144
White,4,Right,18,Female,Yes,English,B,8,1,16,16,180.0,1.0,1.0,1280.64,1.0,7.0,0.0,1.0654,0.973615
White,4,Right,18,Female,Yes,English,B,9,1,0,0,0.0,0.0,1.0,619.028,1.0,8.0,0.0,1.07848,0.964569
White,4,Right,18,Female,Yes,English,B,10,0,4,4,180.0,1.0,1.0,783.809,1.0,9.0,0.0,1.1866,0.991465
White,4,Right,18,Female,Yes,English,B,11,0,0,8,180.0,1.0,1.0,1423.98,1.0,10.0,0.0,1.13103,0.846323
White,4,Right,18,Female,Yes,English,B,12,1,8,8,180.0,1.0,1.0,517.331,1.0,11.0,0.0,1.17275,0.894511
White,4,Right,18,Female,Yes,English,B,13,0,8,16,0.0,0.0,1.0,980.984,1.0,12.0,0.0,1.15325,0.970471
White,4,Right,18,Female,Yes,English,B,14,0,4,16,0.0,0.0,1.0,672.166,1.0,13.0,0.0,1.11903,0.896451
White,4,Right,18,Female,Yes,English,B,15,1,0,8,180.0,1.0,1.0,759.48,1.0,14.0,0.0,1.00598,0.807272
White,4,Right,18,Female,Yes,English,B,16,1,0,16,180.0,0.0,0.0,863.718,1.0,15.0,0.0,1.19987,0.93352
White,4,Right,18,Female,Yes,English,B,17,1,8,0,180.0,1.0,1.0,779.944,1.0,16.0,0.0,1.02815,0.839356
White,4,Right,18,Female,Yes,English,B,18,0,8,4,0.0,0.0,1.0,1297.0,1.0,17.0,0.0,1.01569,0.93882
White,4,Right,18,Female,Yes,English,B,19,1,16,8,180.0,1.0,1.0,717.521,1.0,18.0,0.0,1.02957,0.990734
White,4,Right,18,Female,Yes,English,B,20,1,8,16,180.0,1.0,1.0,1801.53,1.0,19.0,0.0,1.06502,0.964601
White,4,Right,18,Female,Yes,English,B,21,0,8,8,0.0,0.0,1.0,832.528,1.0,20.0,0.0,1.0366,0.920454
White,4,Right,18,Female,Yes,English,B,22,1,4,16,0.0,0.0,1.0,1157.38,1.0,21.0,0.0,1.16395,0.883597
White,4,Right,18,Female,Yes,English,B,23,1,4,4,180.0,1.0,1.0,635.864,1.0,22.0,0.0,1.02293,0.948198
White,4,Right,18,Female,Yes,English,B,24,0,4,8,180.0,1.0,1.0,948.928,1.0,23.0,0.0,1.01205,0.939465
White,4,Right,18,Female,Yes,English,B,25,0,0,16,0.0,0.0,1.0,766.643,1.0,24.0,0.0,1.03963,0.909944
White,4,Right,18,Female,Yes,English,B,26,0,4,0,0.0,0.0,1.0,710.347,1.0,25.0,0.0,1.18831,0.870419
White,4,Right,18,Female,Yes,English,B,27,0,16,8,180.0,1.0,1.0,952.204,1.0,26.0,0.0,1.13153,0.927029
White,4,Right,18,Female,Yes,English,B,28,0,8,0,0.0,0.0,1.0,661.689,1.0,27.0,0.0,1.08524,0.824895
White,4,Right,18,Female,Yes,English,B,29,1,4,8,0.0,0.0,1.0,859.428,1.0,28.0,0.0,1.01031,0.923978
White,4,Right,18,Female,Yes,English,B,30,0,0,4,180.0,1.0,1.0,580.542,1.0,29.0,0.0,1.07738,0.930354
White,4,Right,18,Female,Yes,English,B,31,1,0,4,0.0,0.0,1.0,678.038,1.0,30.0,0.0,1.19458,0.808708
White,4,Right,18,Female,Yes,English,B,32,1,4,0,180.0,1.0,1.0,459.225,1.0,31.0,0.0,1.13566,0.837678
White,4,Right,18,Female,Yes,English,B,33,1,8,0,180.0,1.0,1.0,549.924,1.0,32.0,1.0,1.0679,0.883687
White,4,Right,18,Female,Yes,English,B,34,0,0,16,180.0,1.0,1.0,880.687,1.0,33.0,1.0,1.02112,0.857242
White,4,Right,18,Female,Yes,English,B,35,0,8,16,0.0,0.0,1.0,683.305,1.0,34.0,1.0,1.17713,0.808382
White,4,Right,18,Female,Yes,English,B,36,1,16,0,0.0,0.0,1.0,786.747,1.0,35.0,1.0,1.08207,0.845312
White,4,Right,18,Female,Yes,English,B,37,1,4,0,0.0,1.0,0.0,760.142,1.0,36.0,1.0,1.09555,0.837111
White,4,Right,18,Female,Yes,English,B,38,1,0,16,180.0,1.0,1.0,797.183,1.0,37.0,1.0,1.03558,0.979957
White,4,Right,18,Female,Yes,English,B,39,1,16,4,0.0,0.0,1.0,1202.87,1.0,38.0,1.0,1.19856,0.816247
White,4,Right,18,Female,Yes,English,B,40,0,0,0,180.0,1.0,1.0,698.606,1.0,39.0,1.0,1.19135,0.880304
White,4,Right,18,Female,Yes,English,B,41,1,16,8,180.0,1.0,1.0,1076.59,1.0,40.0,1.0,1.07679,0.93446
White,4,Right,18,Female,Yes,English,B,42,0,16,8,0.0,0.0,1.0,683.956,1.0,41.0,1.0,1.0522,0.988756
White,4,Right,18,Female,Yes,English,B,43,1,8,8,0.0,0.0,1.0,758.293,1.0,42.0,1.0,1.03336,0.817418
White,4,Right,18,Female,Yes,English,B,44,0,4,8,180.0,1.0,1.0,887.89,1.0,43.0,1.0,1.13209,0.98449
White,4,Right,18,Female,Yes,English,B,45,1,4,4,180.0,1.0,1.0,602.989,1.0,44.0,1.0,1.06946,0.971578
White,4,Right,18,Female,Yes,English,B,46,1,8,16,0.0,0.0,1.0,719.919,1.0,45.0,1.0,1.05473,0.95396
White,4,Right,18,Female,Yes,English,B,47,0,4,0,180.0,1.0,1.0,559.875,1.0,46.0,1.0,1.00728,0.961215
White,4,Right,18,Female,Yes,English,B,48,1,0,4,0.0,0.0,1.0,896.362,1.0,47.0,1.0,1.19689,0.90659
White,4,Right,18,Female,Yes,English,B,49,0,8,4,0.0,0.0,1.0,1014.84,1.0,48.0,1.0,1.08162,0.971365
White,4,Right,18,Female,Yes,English,B,50,0,4,4,0.0,0.0,1.0,617.888,1.0,49.0,1.0,1.19496,0.957425
White,4,Right,18,Female,Yes,English,B,51,0,16,4,180.0,1.0,1.0,707.757,1.0,50.0,1.0,1.18035,0.861289
White,4,Right,18,Female,Yes,English,B,52,1,8,4,180.0,1.0,1.0,1099.34,1.0,51.0,1.0,1.03546,0.929471
White,4,Right,18,Female,Yes,English,B,53,0,8,0,0.0,0.0,1.0,1022.94,1.0,52.0,1.0,1.04922,0.984172
White,4,Right,18,Female,Yes,English,B,54,0,16,0,180.0,1.0,1.0,506.297,1.0,53.0,1.0,1.08174,0.926256
White,4,Right,18,Female,Yes,English,B,55,1,4,16,180.0,1.0,1.0,1083.25,1.0,54.0,1.0,1.10632,0.830186
White,4,Right,18,Female,Yes,English,B,56,0,0,4,0.0,0.0,1.0,538.366,1.0,55.0,1.0,1.03024,0.952783
White,4,Right,18,Female,Yes,English,B,57,0,0,8,0.0,0.0,1.0,421.933,1.0,56.0,1.0,1.0004,0.842028
White,4,Right,18,Female,Yes,English,B,58,1,16,16,0.0,0.0,1.0,877.716,1.0,57.0,1.0,1.06633,0.887796
White,4,Right,18,Female,Yes,English,B,59,1,0,8,0.0,0.0,1.0,850.715,1.0,58.0,1.0,1.04978,0.949204
White,4,Right,18,Female,Yes,English,B,60,1,4,8,180.0,1.0,1.0,468.617,1.0,59.0,1.0,1.06781,0.931198
White,4,Right,18,Female,Yes,English,B,61,1,0,0,180.0,1.0,1.0,547.355,1.0,60.0,1.0,1.05215,0.852488
White,4,Right,18,Female,Yes,English,B,62,0,16,16,180.0,1.0,1.0,1179.93,1.0,61.0,1.0,1.02205,0.953473
White,4,Right,18,Female,Yes,English,B,63,0,4,16,0.0,0.0,1.0,554.882,1.0,62.0,1.0,1.00832,0.90916
White,4,Right,18,Female,Yes,English,B,64,0,8,8,180.0,1.0,1.0,711.056,1.0,63.0,1.0,1.09044,0.989852
White,4,Right,18,Female,Yes,English,B,65,1,4,8,0.0,0.0,1.0,855.403,1.0,64.0,2.0,1.14849,0.960825
White,4,Right,18,Female,Yes,English,B,66,1,16,0,180.0,1.0,1.0,806.179,1.0,65.0,2.0,1.10892,0.981171
White,4,Right,18,Female,Yes,English,B,67,0,0,4,180.0,1.0,1.0,629.713,1.0,66.0,2.0,1.04986,0.90968
White,4,Right,18,Female,Yes,English,B,68,1,8,16,0.0,0.0,1.0,1011.94,1.0,67.0,2.0,1.11978,0.802743
White,4,Right,18,Female,Yes,English,B,69,1,16,16,180.0,1.0,1.0,942.379,1.0,68.0,2.0,1.03127,0.858295
White,4,Right,18,Female,Yes,English,B,70,1,16,4,180.0,1.0,1.0,724.16,1.0,69.0,2.0,1.11692,0.889758
White,4,Right,18,Female,Yes,English,B,71,0,8,0,180.0,1.0,1.0,547.385,1.0,70.0,2.0,1.15096,0.964946
White,4,Right,18,Female,Yes,English,B,72,1,8,4,180.0,1.0,1.0,592.701,1.0,71.0,2.0,1.13893,0.94502
White,4,Right,18,Female,Yes,English,B,73,0,4,4,180.0,1.0,1.0,672.829,1.0,72.0,2.0,1.10384,0.874432
White,4,Right,18,Female,Yes,English,B,74,0,4,0,0.0,0.0,1.0,917.677,1.0,73.0,2.0,1.03647,0.968612
White,4,Right,18,Female,Yes,English,B,75,0,4,8,0.0,0.0,1.0,891.726,1.0,74.0,2.0,1.04595,0.885154
White,4,Right,18,Female,Yes,English,B,76,1,0,16,0.0,1.0,0.0,496.961,1.0,75.0,2.0,1.15049,0.916288
White,4,Right,18,Female,Yes,English,B,77,1,16,8,0.0,0.0,1.0,818.369,1.0,76.0,2.0,1.10875,0.95223
White,4,Right,18,Female,Yes,English,B,78,0,16,8,0.0,0.0,1.0,1223.15,1.0,77.0,2.0,1.11318,0.930184
White,4,Right,18,Female,Yes,English,B,79,0,16,16,0.0,0.0,1.0,797.017,1.0,78.0,2.0,1.10074,0.821793
White,4,Right,18,Female,Yes,English,B,80,0,16,4,180.0,1.0,1.0,1142.45,1.0,79.0,2.0,1.15454,0.960671
White,4,Right,18,Female,Yes,English,B,81,0,16,0,180.0,1.0,1.0,1042.74,1.0,80.0,2.0,1.08641,0.901063
White,4,Right,18,Female,Yes,English,B,82,0,0,16,180.0,1.0,1.0,814.403,1.0,81.0,2.0,1.03752,0.948098
White,4,Right,18,Female,Yes,English,B,83,0,8,8,0.0,0.0,1.0,574.953,1.0,82.0,2.0,1.00613,0.813977
White,4,Right,18,Female,Yes,English,B,84,0,0,0,0.0,0.0,1.0,614.384,1.0,83.0,2.0,1.08161,0.883925
White,4,Right,18,Female,Yes,English,B,85,1,8,0,0.0,0.0,1.0,757.567,1.0,84.0,2.0,1.06528,0.896885
White,4,Right,18,Female,Yes,English,B,86,1,0,4,180.0,1.0,1.0,771.745,1.0,85.0,2.0,1.18421,0.94828
White,4,Right,18,Female,Yes,English,B,87,0,8,4,0.0,0.0,1.0,737.159,1.0,86.0,2.0,1.17688,0.854429
White,4,Right,18,Female,Yes,English,B,88,1,0,0,180.0,1.0,1.0,695.134,1.0,87.0,2.0,1.11163,0.805239
White,4,Right,18,Female,Yes,English,B,89,0,4,16,180.0,0.0,0.0,734.586,1.0,88.0,2.0,1.00762,0.960221
White,4,Right,18,Female,Yes,English,B,90,1,4,4,180.0,1.0,1.0,1318.97,1.0,89.0,2.0,1.11467,0.87138
White,4,Right,18,Female,Yes,English,B,91,0,0,8,0.0,0.0,1.0,718.051,1.0,90.0,2.0,1.18298,0.868672
White,4,Right,18,Female,Yes,English,B,92,1,4,0,0.0,0.0,1.0,835.56,1.0,91.0,2.0,1.19381,0.971224
White,4,Right,18,Female,Yes,English,B,93,1,4,16,0.0,0.0,1.0,452.381,1.0,92.0,2.0,1.10243,0.987819
White,4,Right,18,Female,Yes,English,B,94,0,8,16,180.0,1.0,1.0,1196.31,1.0,93.0,2.0,1.19889,0.810227
White,4,Right,18,Female,Yes,English,B,95,1,8,8,180.0,1.0,1.0,753.564,1.0,94.0,2.0,1.0785,0.976564
White,4,Right,18,Female,Yes,English,B,96,1,0,8,0.0,0.0,1.0,665.152,1.0,95.0,2.0,1.14099,0.894592
White,4,Right,18,Female,Yes,English,B,97,1,8,8,0.0,0.0,1.0,871.996,1.0,96.0,3.0,1.19046,0.932616
White,4,Right,18,Female,Yes,English,B,98,0,8,0,180.0,1.0,1.0,1197.13,1.0,97.0,3.0,1.02963,0.980992
White,4,Right,18,Female,Yes,English,B,99,1,4,0,0.0,0.0,1.0,595.558,1.0,98.0,3.0,1.10206,0.849061
White,4,Right,18,Female,Yes,English,B,100,1,0,16,0.0,1.0,0.0,442.715,1.0,99.0,3.0,1.00917,0.808447
White,4,Right,18,Female,Yes,English,B,101,1,8,16,0.0,0.0,1.0,1035.46,1.0,100.0,3.0,1.03937,0.811887
White,4,Right,18,Female,Yes,English,B,102,1,16,4,180.0,1.0,1.0,945.086,1.0,101.0,3.0,1.14796,0.829694
White,4,Right,18,Female,Yes,English,B,103,0,0,4,180.0,1.0,1.0,773.691,1.0,102.0,3.0,1.17299,0.926568
White,4,Right,18,Female,Yes,English,B,104,0,16,8,0.0,0.0,1.0,898.267,1.0,103.0,3.0,1.12681,0.802354
White,4,Right,18,Female,Yes,English,B,105,0,16,0,0.0,0.0,1.0,1262.6,1.0,104.0,3.0,1.11161,0.939497
White,4,Right,18,Female,Yes,English,B,106,0,4,0,0.0,0.0,1.0,821.957,1.0,105.0,3.0,1.19118,0.993863
White,4,Right,18,Female,Yes,English,B,107,1,4,8,180.0,1.0,1.0,818.754,1.0,106.0,3.0,1.17691,0.962863
White,4,Right,18,Female,Yes,English,B,108,1,4,4,180.0,1.0,1.0,482.969,1.0,107.0,3.0,1.03841,0.848611
White,4,Right,18,Female,Yes,English,B,109,0,0,8,0.0,0.0,1.0,871.893,1.0,108.0,3.0,1.08155,0.815041
White,4,Right,18,Female,Yes,English,B,110,0,8,8,180.0,1.0,1.0,704.681,1.0,109.0,3.0,1.0789,0.861943
White,4,Right,18,Female,Yes,English,B,111,1,0,8,180.0,1.0,1.0,687.011,1.0,110.0,3.0,1.03182,0.821988
White,4,Right,18,Female,Yes,English,B,112,0,4,4,0.0,0.0,1.0,506.531,1.0,111.0,3.0,1.03212,0.955936
White,4,Right,18,Female,Yes,English,B,113,0,16,4,0.0,0.0,1.0,971.832,1.0,112.0,3.0,1.09428,0.858885
White,4,Right,18,Female,Yes,English,B,114,1,8,4,0.0,0.0,1.0,1196.75,1.0,113.0,3.0,1.09157,0.974837
White,4,Right,18,Female,Yes,English,B,115,1,0,0,0.0,1.0,0.0,535.299,1.0,114.0,3.0,1.07447,0.940817
White,4,Right,18,Female,Yes,English,B,116,1,4,16,180.0,1.0,1.0,723.733,1.0,115.0,3.0,1.01981,0.888357
White,4,Right,18,Female,Yes,English,B,117,0,8,16,180.0,1.0,1.0,763.657,1.0,116.0,3.0,1.13027,0.939076
White,4,Right,18,Female,Yes,English,B,118,0,0,16,180.0,1.0,1.0,906.904,1.0,117.0,3.0,1.11697,0.999715
White,4,Right,18,Female,Yes,English,B,119,1,8,0,0.0,0.0,1.0,775.263,1.0,118.0,3.0,1.01936,0.88763
White,4,Right,18,Female,Yes,English,B,120,1,16,0,0.0,0.0,1.0,762.003,1.0,119.0,3.0,1.09901,0.930514
White,4,Right,18,Female,Yes,English,B,121,1,16,16,180.0,1.0,1.0,1216.3,1.0,120.0,3.0,1.12705,0.82792
White,4,Right,18,Female,Yes,English,B,122,1,16,8,180.0,1.0,1.0,695.841,1.0,121.0,3.0,1.15636,0.858564
White,4,Right,18,Female,Yes,English,B,123,0,0,0,180.0,1.0,1.0,603.493,1.0,122.0,3.0,1.1124,0.916666
White,4,Right,18,Female,Yes,English,B,124,0,8,4,0.0,0.0,1.0,1238.14,1.0,123.0,3.0,1.02472,0.806612
White,4,Right,18,Female,Yes,English,B,125,0,4,8,180.0,1.0,1.0,899.839,1.0,124.0,3.0,1.13874,0.860714
White,4,Right,18,Female,Yes,English,B,126,1,0,4,0.0,0.0,1.0,752.305,1.0,125.0,3.0,1.17113,0.992565
White,4,Right,18,Female,Yes,English,B,127,0,4,16,180.0,1.0,1.0,686.143,1.0,126.0,3.0,1.16705,0.997574
White,4,Right,18,Female,Yes,English,B,128,0,16,16,180.0,1.0,1.0,759.667,1.0,127.0,3.0,1.09516,0.993864
White,4,Right,18,Female,Yes,English,B,129,0,16,16,0.0,0.0,1.0,917.134,1.0,128.0,4.0,1.0784,0.946063
White,4,Right,18,Female,Yes,English,B,130,1,0,16,180.0,1.0,1.0,708.625,1.0,129.0,4.0,1.14418,0.910403
White,4,Right,18,Female,Yes,English,B,131,1,16,0,0.0,0.0,1.0,967.791,1.0,130.0,4.0,1.04931,0.841451
White,4,Right,18,Female,Yes,English,B,132,1,4,0,180.0,1.0,1.0,551.039,1.0,131.0,4.0,1.09891,0.939725
White,4,Right,18,Female,Yes,English,B,133,0,16,0,0.0,0.0,1.0,1019.83,1.0,132.0,4.0,1.18,0.866533
White,4,Right,18,Female,Yes,English,B,134,1,16,4,0.0,0.0,1.0,664.994,1.0,133.0,4.0,1.1704,0.887374
White,4,Right,18,Female,Yes,English,B,135,0,8,8,180.0,1.0,1.0,1110.04,1.0,134.0,4.0,1.1816,0.95849
White,4,Right,18,Female,Yes,English,B,136,1,8,4,180.0,1.0,1.0,680.942,1.0,135.0,4.0,1.19379,0.84126
White,4,Right,18,Female,Yes,English,B,137,0,4,0,180.0,1.0,1.0,821.255,1.0,136.0,4.0,1.1759,0.927402
White,4,Right,18,Female,Yes,English,B,138,0,8,16,0.0,0.0,1.0,577.796,1.0,137.0,4.0,1.16124,0.94796
White,4,Right,18,Female,Yes,English,B,139,0,4,8,0.0,0.0,1.0,876.11,1.0,138.0,4.0,1.06878,0.871521
White,4,Right,18,Female,Yes,English,B,140,0,0,16,0.0,0.0,1.0,663.599,1.0,139.0,4.0,1.0197,0.978576
White,4,Right,18,Female,Yes,English,B,141,1,4,16,180.0,1.0,1.0,610.014,1.0,140.0,4.0,1.01354,0.966049
White,4,Right,18,Female,Yes,English,B,142,0,4,4,0.0,0.0,1.0,829.604,1.0,141.0,4.0,1.128,0.938269
White,4,Right,18,Female,Yes,English,B,143,0,0,0,0.0,0.0,1.0,646.783,1.0,142.0,4.0,1.02649,0.961429
White,4,Right,18,Female,Yes,English,B,144,1,16,16,180.0,1.0,1.0,1248.14,1.0,143.0,4.0,1.04775,0.864298
White,4,Right,18,Female,Yes,English,B,145,1,4,8,0.0,0.0,1.0,581.517,1.0,144.0,4.0,1.08319,0.856971
White,4,Right,18,Female,Yes,English,B,146,1,8,8,180.0,1.0,1.0,679.505,1.0,145.0,4.0,1.13768,0.814819
White,4,Right,18,Female,Yes,English,B,147,0,0,8,180.0,1.0,1.0,686.299,1.0,146.0,4.0,1.18971,0.966678
White,4,Right,18,Female,Yes,English,B,148,0,4,16,0.0,0.0,1.0,639.549,1.0,147.0,4.0,1.0984,0.956901
White,4,Right,18,Female,Yes,English,B,149,1,8,16,0.0,0.0,1.0,1362.31,1.0,148.0,4.0,1.12587,0.877043
White,4,Right,18,Female,Yes,English,B,150,1,0,4,180.0,1.0,1.0,572.151,1.0,149.0,4.0,1.18081,0.844187
White,4,Right,18,Female,Yes,English,B,151,0,8,4,0.0,0.0,1.0,1097.79,1.0,150.0,4.0,1.15094,0.873089
White,4,Right,18,Female,Yes,English,B,152,1,16,8,0.0,0.0,1.0,944.595,1.0,151.0,4.0,1.15621,0.872073
White,4,Right,18,Female,Yes,English,B,153,0,8,0,180.0,1.0,1.0,795.128,1.0,152.0,4.0,1.14359,0.914146
White,4,Right,18,Female,Yes,English,B,154,1,8,0,180.0,1.0,1.0,528.104,1.0,153.0,4.0,1.02549,0.947598
White,4,Right,18,Female,Yes,English,B,155,0,0,4,0.0,0.0,1.0,580.642,1.0,154.0,4.0,1.08234,0.86383
White,4,Right,18,Female,Yes,English,B,156,1,0,0,180.0,0.0,0.0,356.911,1.0,155.0,4.0,1.08467,0.991836
White,4,Right,18,Female,Yes,English,B,157,0,16,4,0.0,0.0,1.0,756.154,1.0,156.0,4.0,1.07839,0.990014
White,4,Right,18,Female,Yes,English,B,158,1,0,8,180.0,1.0,1.0,542.325,1.0,157.0,4.0,1.01861,0.920765
White,4,Right,18,Female,Yes,English,B,159,1,4,4,180.0,1.0,1.0,806.675,1.0,158.0,4.0,1.04171,0.900411
White,4,Right,18,Female,Yes,English,B,160,0,16,8,180.0,1.0,1.0,678.997,1.0,159.0,4.0,1.02933,0.997981
White,4,Right,18,Female,Yes,English,B,161,0,0,0,180.0,1.0,1.0,576.382,1.0,160.0,5.0,1.0404,0.861171
White,4,Right,18,Female,Yes,English,B,162,1,8,16,180.0,1.0,1.0,772.446,1.0,161.0,5.0,1.11527,0.958614
White,4,Right,18,Female,Yes,English,B,163,1,16,0,180.0,1.0,1.0,639.108,1.0,162.0,5.0,1.18402,0.839063
White,4,Right,18,Female,Yes,English,B,164,0,16,8,180.0,1.0,1.0,1552.76,1.0,163.0,5.0,1.07739,0.880492
White,4,Right,18,Female,Yes,English,B,165,1,8,4,180.0,1.0,1.0,1179.42,1.0,164.0,5.0,1.07633,0.894671
White,4,Right,18,Female,Yes,English,B,166,1,4,0,0.0,0.0,1.0,1113.26,1.0,165.0,5.0,1.05093,0.889872
White,4,Right,18,Female,Yes,English,B,167,0,4,16,180.0,1.0,1.0,524.146,1.0,166.0,5.0,1.17003,0.909484
White,4,Right,18,Female,Yes,English,B,168,1,8,0,180.0,1.0,1.0,701.391,1.0,167.0,5.0,1.16324,0.860406
White,4,Right,18,Female,Yes,English,B,169,0,4,0,180.0,1.0,1.0,888.921,1.0,168.0,5.0,1.00657,0.917831
White,4,Right,18,Female,Yes,English,B,170,1,0,0,0.0,0.0,1.0,649.902,1.0,169.0,5.0,1.04418,0.802656
White,4,Right,18,Female,Yes,English,B,171,0,8,8,180.0,1.0,1.0,573.252,1.0,170.0,5.0,1.08484,0.862693
White,4,Right,18,Female,Yes,English,B,172,1,16,8,0.0,0.0,1.0,941.677,1.0,171.0,5.0,1.18042,0.839469
White,4,Right,18,Female,Yes,English,B,173,1,0,8,180.0,1.0,1.0,537.663,1.0,172.0,5.0,1.07393,0.914445
White,4,Right,18,Female,Yes,English,B,174,0,0,16,0.0,0.0,1.0,639.929,1.0,173.0,5.0,1.08456,0.841973
White,4,Right,18,Female,Yes,English,B,175,0,4,8,0.0,0.0,1.0,692.772,1.0,174.0,5.0,1.04949,0.852684
White,4,Right,18,Female,Yes,English,B,176,1,4,8,0.0,0.0,1.0,1078.5,1.0,175.0,5.0,1.19878,0.923919
White,4,Right,18,Female,Yes,English,B,177,1,0,4,0.0,0.0,1.0,730.666,1.0,176.0,5.0,1.09958,0.821747
White,4,Right,18,Female,Yes,English,B,178,0,0,4,0.0,0.0,1.0,795.781,1.0,177.0,5.0,1.08047,0.918086
White,4,Right,18,Female,Yes,English,B,179,1,0,16,180.0,1.0,1.0,606.472,1.0,178.0,5.0,1.1973,0.906935
White,4,Right,18,Female,Yes,English,B,180,1,16,16,0.0,0.0,1.0,988.408,1.0,179.0,5.0,1.05113,0.97991
White,4,Right,18,Female,Yes,English,B,181,0,0,8,0.0,0.0,1.0,753.866,1.0,180.0,5.0,1.15004,0.919123
White,4,Right,18,Female,Yes,English,B,182,0,8,0,0.0,0.0,1.0,463.71,1.0,181.0,5.0,1.10047,0.88389
White,4,Right,18,Female,Yes,English,B,183,0,8,4,180.0,1.0,1.0,836.713,1.0,182.0,5.0,1.01512,0.835461
White,4,Right,18,Female,Yes,English,B,184,0,16,0,180.0,0.0,0.0,638.049,1.0,183.0,5.0,1.17931,0.896338
White,4,Right,18,Female,Yes,English,B,185,1,8,8,180.0,1.0,1.0,678.595,1.0,184.0,5.0,1.06646,0.995936
White,4,Right,18,Female,Yes,English,B,186,0,16,16,0.0,0.0,1.0,501.161,1.0,185.0,5.0,1.19904,0.965414
White,4,Right,18,Female,Yes,English,B,187,1,16,4,0.0,0.0,1.0,774.776,1.0,186.0,5.0,1.18282,0.950556
White,4,Right,18,Female,Yes,English,B,188,0,4,4,180.0,1.0,1.0,838.381,1.0,187.0,5.0,1.0488,0.867523
White,4,Right,18,Female,Yes,English,B,189,0,16,4,180.0,1.0,1.0,1103.43,1.0,188.0,5.0,1.08755,0.928959
White,4,Right,18,Female,Yes,English,B,190,1,4,16,0.0,0.0,1.0,997.456,1.0,189.0,5.0,1.1542,0.890771
White,4,Right,18,Female,Yes,English,B,191,0,8,16,0.0,0.0,1.0,738.944,1.0,190.0,5.0,1.08885,0.88819
White,4,Right,18,Female,Yes,English,B,192,1,4,4,0.0,0.0,1.0,1058.56,1.0,191.0,5.0,1.10253,0.937627
White,4,Right,18,Female,Yes,English,B,193,0,4,16,0.0,0.0,1.0,1617.72,1.0,192.0,6.0,1.06133,0.955642
White,4,Right,18,Female,Yes,English,B,194,0,8,16,0.0,0.0,1.0,1011.45,1.0,193.0,6.0,1.12422,0.977382
White,4,Right,18,Female,Yes,English,B,195,0,16,4,180.0,1.0,1.0,949.547,1.0,194.0,6.0,1.01927,0.997594
White,4,Right,18,Female,Yes,English,B,196,1,0,4,180.0,1.0,1.0,656.869,1.0,195.0,6.0,1.08944,0.852251
White,4,Right,18,Female,Yes,English,B,197,0,16,0,0.0,0.0,1.0,670.452,1.0,196.0,6.0,1.16779,0.819428
White,4,Right,18,Female,Yes,English,B,198,1,8,16,0.0,0.0,1.0,832.036,1.0,197.0,6.0,1.09787,0.905278
White,4,Right,18,Female,Yes,English,B,199,0,4,0,180.0,1.0,1.0,860.598,1.0,198.0,6.0,1.06483,0.889993
White,4,Right,18,Female,Yes,English,B,200,0,16,8,180.0,1.0,1.0,670.053,1.0,199.0,6.0,1.11086,0.972511
White,4,Right,18,Female,Yes,English,B,201,1,4,8,180.0,1.0,1.0,716.214,1.0,200.0,6.0,1.00047,0.917961
White,4,Right,18,Female,Yes,English,B,202,0,0,4,180.0,1.0,1.0,748.79,1.0,201.0,6.0,1.07702,0.850177
White,4,Right,18,Female,Yes,English,B,203,1,0,8,180.0,1.0,1.0,664.507,1.0,202.0,6.0,1.07505,0.907502
White,4,Right,18,Female,Yes,English,B,204,1,8,4,0.0,0.0,1.0,844.863,1.0,203.0,6.0,1.02974,0.979806
White,4,Right,18,Female,Yes,English,B,205,1,4,0,0.0,0.0,1.0,830.065,1.0,204.0,6.0,1.10621,0.827681
White,4,Right,18,Female,Yes,English,B,206,1,4,4,180.0,1.0,1.0,633.005,1.0,205.0,6.0,1.1383,0.950086
White,4,Right,18,Female,Yes,English,B,207,1,16,16,0.0,0.0,1.0,639.81,1.0,206.0,6.0,1.03745,0.973756
White,4,Right,18,Female,Yes,English,B,208,1,8,8,0.0,0.0,1.0,642.138,1.0,207.0,6.0,1.11124,0.942393
White,4,Right,18,Female,Yes,English,B,209,0,4,4,180.0,1.0,1.0,835.776,1.0,208.0,6.0,1.15283,0.976603
White,4,Right,18,Female,Yes,English,B,210,1,16,0,180.0,1.0,1.0,538.208,1.0,209.0,6.0,1.19917,0.916911
White,4,Right,18,Female,Yes,English,B,211,1,16,8,180.0,1.0,1.0,516.326,1.0,210.0,6.0,1.18268,0.990487
White,4,Right,18,Female,Yes,English,B,212,0,4,8,0.0,0.0,1.0,886.004,1.0,211.0,6.0,1.07173,0.872745
White,4,Right,18,Female,Yes,English,B,213,0,0,8,0.0,0.0,1.0,613.347,1.0,212.0,6.0,1.12266,0.949559
White,4,Right,18,Female,Yes,English,B,214,1,0,16,180.0,1.0,1.0,775.605,1.0,213.0,6.0,1.16261,0.912029
White,4,Right,18,Female,Yes,English,B,215,0,8,0,0.0,0.0,1.0,704.434,1.0,214.0,6.0,1.00119,0.833065
White,4,Right,18,Female,Yes,English,B,216,1,4,16,180.0,1.0,1.0,671.388,1.0,215.0,6.0,1.0561,0.957553
White,4,Right,18,Female,Yes,English,B,217,1,0,0,0.0,0.0,1.0,800.755,1.0,216.0,6.0,1.11365,0.836377
White,4,Right,18,Female,Yes,English,B,218,0,0,16,0.0,0.0,1.0,719.056,1.0,217.0,6.0,1.14331,0.885589
White,4,Right,18,Female,Yes,English,B,219,0,8,8,180.0,1.0,1.0,941.357,1.0,218.0,6.0,1.04452,0.931701
White,4,Right,18,Female,Yes,English,B,220,0,16,16,0.0,0.0,1.0,1156.44,1.0,219.0,6.0,1.01035,0.942889
White,4,Right,18,Female,Yes,English,B,221,0,0,0,180.0,0.0,0.0,537.968,1.0,220.0,6.0,1.14232,0.900129
White,4,Right,18,Female,Yes,English,B,222,1,8,0,0.0,0.0,1.0,494.491,1.0,221.0,6.0,1.06039,0.925045
White,4,Right,18,Female,Yes,English,B,223,0,8,4,180.0,1.0,1.0,1173.74,1.0,222.0,6.0,1.19747,0.88777
White,4,Right,18,Female,Yes,English,B,224,1,16,4,0.0,0.0,1.0,716.351,1.0,223.0,6.0,1.02339,0.937834
White,4,Right,18,Female,Yes,English,B,225,0,4,4,0.0,0.0,1.0,657.13,1.0,224.0,7.0,1.06835,0.982494
White,4,Right,18,Female,Yes,English,B,226,0,16,8,180.0,1.0,1.0,949.559,1.0,225.0,7.0,1.02629,0.858488
White,4,Right,18,Female,Yes,English,B,227,1,4,0,180.0,1.0,1.0,521.872,1.0,226.0,7.0,1.11954,0.830528
White,4,Right,18,Female,Yes,English,B,228,0,16,0,180.0,1.0,1.0,498.311,1.0,227.0,7.0,1.04898,0.867105
White,4,Right,18,Female,Yes,English,B,229,1,8,16,180.0,1.0,1.0,1024.54,1.0,228.0,7.0,1.04298,0.881692
White,4,Right,18,Female,Yes,English,B,230,1,16,8,0.0,0.0,1.0,1134.99,1.0,229.0,7.0,1.09401,0.975334
White,4,Right,18,Female,Yes,English,B,231,0,0,16,180.0,1.0,1.0,1069.18,1.0,230.0,7.0,1.17234,0.867626
White,4,Right,18,Female,Yes,English,B,232,1,16,4,180.0,1.0,1.0,752.978,1.0,231.0,7.0,1.0532,0.967046
White,4,Right,18,Female,Yes,English,B,233,0,8,4,0.0,0.0,1.0,779.977,1.0,232.0,7.0,1.05766,0.837878
White,4,Right,18,Female,Yes,English,B,234,0,8,8,180.0,1.0,1.0,644.434,1.0,233.0,7.0,1.00826,0.88272
White,4,Right,18,Female,Yes,English,B,235,1,16,16,0.0,0.0,1.0,966.075,1.0,234.0,7.0,1.02183,0.862524
White,4,Right,18,Female,Yes,English,B,236,0,4,8,0.0,0.0,1.0,705.998,1.0,235.0,7.0,1.17461,0.895818
White,4,Right,18,Female,Yes,English,B,237,0,0,8,0.0,0.0,1.0,730.46,1.0,236.0,7.0,1.0221,0.836285
White,4,Right,18,Female,Yes,English,B,238,0,8,0,180.0,1.0,1.0,597.164,1.0,237.0,7.0,1.17038,0.882991
White,4,Right,18,Female,Yes,English,B,239,0,4,16,180.0,1.0,1.0,786.153,1.0,238.0,7.0,1.11854,0.849638
White,4,Right,18,Female,Yes,English,B,240,0,16,4,0.0,0.0,1.0,714.734,1.0,239.0,7.0,1.08743,0.94077
White,4,Right,18,Female,Yes,English,B,241,1,8,0,0.0,0.0,1.0,872.683,1.0,240.0,7.0,1.1304,0.897065
White,4,Right,18,Female,Yes,English,B,242,1,4,8,0.0,0.0,1.0,580.781,1.0,241.0,7.0,1.10371,0.988912
White,4,Right,18,Female,Yes,English,B,243,1,0,4,180.0,1.0,1.0,634.861,1.0,242.0,7.0,1.16573,0.87143
White,4,Right,18,Female,Yes,English,B,244,1,4,4,180.0,1.0,1.0,496.156,1.0,243.0,7.0,1.06102,0.95262
White,4,Right,18,Female,Yes,English,B,245,0,8,16,0.0,0.0,1.0,746.094,1.0,244.0,7.0,1.03563,0.863316
White,4,Right,18,Female,Yes,English,B,246,1,0,16,180.0,1.0,1.0,831.315,1.0,245.0,7.0,1.041,0.85879
White,4,Right,18,Female,Yes,English,B,247,1,0,8,0.0,0.0,1.0,717.986,1.0,246.0,7.0,1.17019,0.91253
White,4,Right,18,Female,Yes,English,B,248,0,16,16,0.0,0.0,1.0,1098.08,1.0,247.0,7.0,1.08889,0.981743
White,4,Right,18,Female,Yes,English,B,249,0,4,0,180.0,1.0,1.0,690.702,1.0,248.0,7.0,1.10988,0.89068
White,4,Right,18,Female,Yes,English,B,250,0,0,0,180.0,1.0,1.0,668.419,1.0,249.0,7.0,1.19775,0.888658
White,4,Right,18,Female,Yes,English,B,251,1,8,8,0.0,0.0,1.0,1683.57,1.0,250.0,7.0,1.17181,0.880955
White,4,Right,18,Female,Yes,English,B,252,1,16,0,0.0,0.0,1.0,645.232,1.0,251.0,7.0,1.16901,0.822574
White,4,Right,18,Female,Yes,English,B,253,1,0,0,180.0,1.0,1.0,698.878,1.0,252.0,7.0,1.15515,0.905738
White,4,Right,18,Female,Yes,English,B,254,1,8,4,0.0,0.0,1.0,676.636,1.0,253.0,7.0,1.05844,0.820965
White,4,Right,18,Female,Yes,English,B,255,1,4,16,0.0,0.0,1.0,496.735,1.0,254.0,7.0,1.07003,0.996534
White,4,Right,18,Female,Yes,English,B,256,0,0,4,180.0,1.0,1.0,548.763,1.0,255.0,7.0,1.01473,0.821332
White,4,Right,18,Female,Yes,English,B,257,0,4,4,0.0,0.0,1.0,835.192,1.0,256.0,8.0,1.15407,0.999197
White,4,Right,18,Female,Yes,English,B,258,0,16,0,0.0,0.0,1.0,698.818,1.0,257.0,8.0,1.02476,0.976646
White,4,Right,18,Female,Yes,English,B,259,1,4,0,180.0,1.0,1.0,594.567,1.0,258.0,8.0,1.17826,0.9076
White,4,Right,18,Female,Yes,English,B,260,1,4,16,180.0,1.0,1.0,646.133,1.0,259.0,8.0,1.18452,0.985179
White,4,Right,18,Female,Yes,English,B,261,1,8,0,180.0,1.0,1.0,601.03,1.0,260.0,8.0,1.09191,0.903968
White,4,Right,18,Female,Yes,English,B,262,1,16,0,0.0,0.0,1.0,832.833,1.0,261.0,8.0,1.0907,0.938173
White,4,Right,18,Female,Yes,English,B,263,0,16,4,180.0,1.0,1.0,1040.68,1.0,262.0,8.0,1.14059,0.844747
White,4,Right,18,Female,Yes,English,B,264,0,8,4,0.0,0.0,1.0,737.179,1.0,263.0,8.0,1.02201,0.837405
White,4,Right,18,Female,Yes,English,B,265,1,8,16,180.0,1.0,1.0,1368.76,1.0,264.0,8.0,1.0065,0.847441
White,4,Right,18,Female,Yes,English,B,266,0,0,8,0.0,0.0,1.0,717.927,1.0,265.0,8.0,1.06286,0.934372
White,4,Right,18,Female,Yes,English,B,267,0,0,0,0.0,0.0,1.0,576.265,1.0,266.0,8.0,1.12414,0.979758
White,4,Right,18,Female,Yes,English,B,268,1,16,8,0.0,0.0,1.0,941.039,1.0,267.0,8.0,1.0169,0.866251
White,4,Right,18,Female,Yes,English,B,269,0,16,8,0.0,0.0,1.0,774.924,1.0,268.0,8.0,1.00211,0.893493
White,4,Right,18,Female,Yes,English,B,270,1,0,0,180.0,1.0,1.0,543.793,1.0,269.0,8.0,1.16444,0.909447
White,4,Right,18,Female,Yes,English,B,271,1,0,4,180.0,1.0,1.0,816.353,1.0,270.0,8.0,1.11285,0.857214
White,4,Right,18,Female,Yes,English,B,272,0,4,8,180.0,1.0,1.0,1058.5,1.0,271.0,8.0,1.10601,0.870411
White,4,Right,18,Female,Yes,English,B,273,0,8,8,180.0,1.0,1.0,680.316,1.0,272.0,8.0,1.17107,0.964652
White,4,Right,18,Female,Yes,English,B,274,0,16,16,0.0,0.0,1.0,862.745,1.0,273.0,8.0,1.14523,0.830607
White,4,Right,18,Female,Yes,English,B,275,1,8,8,180.0,1.0,1.0,787.9,1.0,274.0,8.0,1.08535,0.887217
White,4,Right,18,Female,Yes,English,B,276,1,16,4,0.0,0.0,1.0,933.45,1.0,275.0,8.0,1.03546,0.918036
White,4,Right,18,Female,Yes,English,B,277,1,16,16,0.0,0.0,1.0,1347.93,1.0,276.0,8.0,1.0095,0.819937
White,4,Right,18,Female,Yes,English,B,278,1,4,4,180.0,1.0,1.0,805.679,1.0,277.0,8.0,1.08994,0.977123
White,4,Right,18,Female,Yes,English,B,279,0,4,0,180.0,1.0,1.0,870.876,1.0,278.0,8.0,1.14738,0.92208
White,4,Right,18,Female,Yes,English,B,280,0,4,16,0.0,0.0,1.0,847.119,1.0,279.0,8.0,1.1924,0.813454
White,4,Right,18,Female,Yes,English,B,281,0,8,16,0.0,0.0,1.0,851.726,1.0,280.0,8.0,1.10579,0.910207
White,4,Right,18,Female,Yes,English,B,282,1,0,16,180.0,1.0,1.0,806.32,1.0,281.0,8.0,1.02904,0.809752
White,4,Right,18,Female,Yes,English,B,283,1,4,8,0.0,0.0,1.0,757.479,1.0,282.0,8.0,1.11616,0.916025
White,4,Right,18,Female,Yes,English,B,284,0,0,16,180.0,1.0,1.0,701.707,1.0,283.0,8.0,1.0424,0.835206
White,4,Right,18,Female,Yes,English,B,285,0,8,0,0.0,0.0,1.0,496.929,1.0,284.0,8.0,1.06491,0.911146
White,4,Right,18,Female,Yes,English,B,286,1,8,4,180.0,1.0,1.0,790.521,1.0,285.0,8.0,1.10785,0.805074
White,4,Right,18,Female,Yes,English,B,287,0,0,4,180.0,1.0,1.0,464.11,1.0,286.0,8.0,1.18113,0.875031
White,4,Right,18,Female,Yes,English,B,288,1,0,8,0.0,0.0,1.0,473.792,1.0,287.0,8.0,1.13723,0.882353
White,4,Right,18,Female,Yes,English,B,289,0,16,16,0.0,0.0,1.0,1319.48,1.0,288.0,9.0,1.17341,0.846772
White,4,Right,18,Female,Yes,English,B,290,0,8,4,0.0,0.0,1.0,803.765,1.0,289.0,9.0,1.01153,0.965724
White,4,Right,18,Female,Yes,English,B,291,1,16,8,180.0,1.0,1.0,1327.34,1.0,290.0,9.0,1.03542,0.932706
White,4,Right,18,Female,Yes,English,B,292,0,0,0,180.0,1.0,1.0,610.286,1.0,291.0,9.0,1.06953,0.915109
White,4,Right,18,Female,Yes,English,B,293,1,16,0,0.0,0.0,1.0,848.83,1.0,292.0,9.0,1.11294,0.928348
White,4,Right,18,Female,Yes,English,B,294,1,8,0,0.0,0.0,1.0,618.206,1.0,293.0,9.0,1.19691,0.950247
White,4,Right,18,Female,Yes,English,B,295,1,4,4,180.0,1.0,1.0,626.483,1.0,294.0,9.0,1.12404,0.897793
White,4,Right,18,Female,Yes,English,B,296,0,8,0,0.0,0.0,1.0,675.029,1.0,295.0,9.0,1.13081,0.86997
White,4,Right,18,Female,Yes,English,B,297,1,8,8,180.0,1.0,1.0,767.992,1.0,296.0,9.0,1.12399,0.934748
White,4,Right,18,Female,Yes,English,B,298,1,8,4,0.0,0.0,1.0,733.525,1.0,297.0,9.0,1.13279,0.819515
White,4,Right,18,Female,Yes,English,B,299,0,8,16,0.0,0.0,1.0,1007.81,1.0,298.0,9.0,1.09777,0.918691
White,4,Right,18,Female,Yes,English,B,300,1,8,16,0.0,0.0,1.0,935.481,1.0,299.0,9.0,1.1835,0.908076
White,4,Right,18,Female,Yes,English,B,301,0,4,0,180.0,1.0,1.0,934.157,1.0,300.0,9.0,1.0028,0.813242
White,4,Right,18,Female,Yes,English,B,302,0,0,4,0.0,0.0,1.0,616.137,1.0,301.0,9.0,1.13987,0.950316
White,4,Right,18,Female,Yes,English,B,303,0,0,8,180.0,1.0,1.0,732.056,1.0,302.0,9.0,1.16109,0.987588
White,4,Right,18,Female,Yes,English,B,304,1,0,4,0.0,0.0,1.0,640.721,1.0,303.0,9.0,1.14206,0.841624
White,4,Right,18,Female,Yes,English,B,305,1,0,0,0.0,0.0,1.0,564.844,1.0,304.0,9.0,1.0564,0.967311
White,4,Right,18,Female,Yes,English,B,306,0,16,8,0.0,0.0,1.0,1194.5,1.0,305.0,9.0,1.04636,0.891868
White,4,Right,18,Female,Yes,English,B,307,0,16,0,180.0,1.0,1.0,671.105,1.0,306.0,9.0,1.18504,0.977656
White,4,Right,18,Female,Yes,English,B,308,1,16,4,180.0,1.0,1.0,610.622,1.0,307.0,9.0,1.04133,0.901131
White,4,Right,18,Female,Yes,English,B,309,1,4,16,180.0,1.0,1.0,866.087,1.0,308.0,9.0,1.03582,0.990543
White,4,Right,18,Female,Yes,English,B,310,0,16,4,180.0,1.0,1.0,1082.68,1.0,309.0,9.0,1.0695,0.849322
White,4,Right,18,Female,Yes,English,B,311,0,8,8,180.0,1.0,1.0,834.95,1.0,310.0,9.0,1.18957,0.884604
White,4,Right,18,Female,Yes,English,B,312,0,4,8,0.0,0.0,1.0,720.423,1.0,311.0,9.0,1.08554,0.829024
White,4,Right,18,Female,Yes,English,B,313,1,4,0,180.0,1.0,1.0,598.485,1.0,312.0,9.0,1.17896,0.993273
White,4,Right,18,Female,Yes,English,B,314,0,4,16,180.0,1.0,1.0,1067.81,1.0,313.0,9.0,1.08905,0.954322
White,4,Right,18,Female,Yes,English,B,315,0,4,4,180.0,1.0,1.0,864.948,1.0,314.0,9.0,1.16037,0.986067
White,4,Right,18,Female,Yes,English,B,316,1,4,8,0.0,0.0,1.0,731.48,1.0,315.0,9.0,1.19374,0.992679
White,4,Right,18,Female,Yes,English,B,317,0,0,16,180.0,1.0,1.0,641.407,1.0,316.0,9.0,1.05536,0.802226
White,4,Right,18,Female,Yes,English,B,318,1,16,16,180.0,1.0,1.0,818.328,1.0,317.0,9.0,1.03384,0.925398
White,4,Right,18,Female,Yes,English,B,319,1,0,8,0.0,0.0,1.0,600.793,1.0,318.0,9.0,1.08002,0.922455
White,4,Right,18,Female,Yes,English,B,320,1,0,16,0.0,1.0,0.0,503.857,1.0,319.0,9.0,1.13578,0.908641
White,4,Right,18,Female,Yes,English,B,321,1,0,4,180.0,1.0,1.0,771.075,1.0,320.0,10.0,1.1825,0.866321
White,4,Right,18,Female,Yes,English,B,322,0,0,16,180.0,1.0,1.0,760.105,1.0,321.0,10.0,1.03191,0.825252
White,4,Right,18,Female,Yes,English,B,323,0,4,4,180.0,1.0,1.0,620.113,1.0,322.0,10.0,1.13599,0.908098
White,4,Right,18,Female,Yes,English,B,324,1,16,16,0.0,0.0,1.0,813.639,1.0,323.0,10.0,1.04085,0.8507
White,4,Right,18,Female,Yes,English,B,325,1,16,8,0.0,0.0,1.0,664.325,1.0,324.0,10.0,1.04449,0.80983
White,4,Right,18,Female,Yes,English,B,326,0,16,8,180.0,1.0,1.0,754.292,1.0,325.0,10.0,1.05507,0.923537
White,4,Right,18,Female,Yes,English,B,327,0,8,0,180.0,1.0,1.0,601.028,1.0,326.0,10.0,1.06264,0.922327
White,4,Right,18,Female,Yes,English,B,328,1,8,16,0.0,0.0,1.0,882.195,1.0,327.0,10.0,1.08592,0.973631
White,4,Right,18,Female,Yes,English,B,329,0,0,0,0.0,0.0,1.0,681.298,1.0,328.0,10.0,1.06406,0.824009
White,4,Right,18,Female,Yes,English,B,330,0,16,0,180.0,1.0,1.0,982.778,1.0,329.0,10.0,1.1553,0.911082
White,4,Right,18,Female,Yes,English,B,331,1,8,8,180.0,1.0,1.0,1122.82,1.0,330.0,10.0,1.1878,0.907534
White,4,Right,18,Female,Yes,English,B,332,0,0,4,0.0,0.0,1.0,587.484,1.0,331.0,10.0,1.03784,0.965002
White,4,Right,18,Female,Yes,English,B,333,1,4,0,180.0,1.0,1.0,684.807,1.0,332.0,10.0,1.08942,0.979682
White,4,Right,18,Female,Yes,English,B,334,1,0,0,0.0,0.0,1.0,578.101,1.0,333.0,10.0,1.13025,0.948554
White,4,Right,18,Female,Yes,English,B,335,1,4,4,180.0,1.0,1.0,1155.44,1.0,334.0,10.0,1.02674,0.939958
White,4,Right,18,Female,Yes,English,B,336,0,16,4,180.0,1.0,1.0,770.863,1.0,335.0,10.0,1.01975,0.858297
White,4,Right,18,Female,Yes,English,B,337,0,8,8,0.0,0.0,1.0,438.627,1.0,336.0,10.0,1.16117,0.936583
White,4,Right,18,Female,Yes,English,B,338,0,4,0,0.0,0.0,1.0,550.342,1.0,337.0,10.0,1.02111,0.838197
White,4,Right,18,Female,Yes,English,B,339,0,8,4,0.0,0.0,1.0,623.683,1.0,338.0,10.0,1.07972,0.832104
White,4,Right,18,Female,Yes,English,B,340,0,4,16,180.0,1.0,1.0,619.729,1.0,339.0,10.0,1.15771,0.921728
White,4,Right,18,Female,Yes,English,B,341,1,4,8,0.0,0.0,1.0,817.115,1.0,340.0,10.0,1.06291,0.893352
White,4,Right,18,Female,Yes,English,B,342,1,16,0,0.0,0.0,1.0,675.38,1.0,341.0,10.0,1.1188,0.82083
White,4,Right,18,Female,Yes,English,B,343,1,8,0,180.0,1.0,1.0,933.866,1.0,342.0,10.0,1.00635,0.915898
White,4,Right,18,Female,Yes,English,B,344,1,0,8,180.0,1.0,1.0,1185.62,1.0,343.0,10.0,1.06291,0.843145
White,4,Right,18,Female,Yes,English,B,345,0,16,16,0.0,0.0,1.0,1057.42,1.0,344.0,10.0,1.0641,0.860042
White,4,Right,18,Female,Yes,English,B,346,1,4,16,0.0,0.0,1.0,520.423,1.0,345.0,10.0,1.12618,0.944794
White,4,Right,18,Female,Yes,English,B,347,0,0,8,0.0,0.0,1.0,857.434,1.0,346.0,10.0,1.11759,0.95241
White,4,Right,18,Female,Yes,English,B,348,0,4,8,180.0,0.0,0.0,435.373,1.0,347.0,10.0,1.07823,0.946369
White,4,Right,18,Female,Yes,English,B,349,1,16,4,0.0,0.0,1.0,947.685,1.0,348.0,10.0,1.05875,0.874812
White,4,Right,18,Female,Yes,English,B,350,1,0,16,180.0,1.0,1.0,621.08,1.0,349.0,10.0,1.13063,0.954047
White,4,Right,18,Female,Yes,English,B,351,0,8,16,0.0,0.0,1.0,964.207,1.0,350.0,10.0,1.12789,0.965521
White,4,Right,18,Female,Yes,English,B,352,1,8,4,180.0,1.0,1.0,630.818,1.0,351.0,10.0,1.13733,0.829627
White,4,Right,18,Female,Yes,English,B,353,1,16,4,0.0,0.0,1.0,722.634,1.0,352.0,11.0,1.18333,0.848751
White,4,Right,18,Female,Yes,English,B,354,1,4,16,0.0,0.0,1.0,1820.05,1.0,353.0,11.0,1.08835,0.993053
White,4,Right,18,Female,Yes,English,B,355,0,4,0,180.0,1.0,1.0,662.351,1.0,354.0,11.0,1.18251,0.863334
White,4,Right,18,Female,Yes,English,B,356,0,4,16,0.0,0.0,1.0,768.47,1.0,355.0,11.0,1.07243,0.935532
White,4,Right,18,Female,Yes,English,B,357,1,16,16,0.0,0.0,1.0,729.218,1.0,356.0,11.0,1.1894,0.921359
White,4,Right,18,Female,Yes,English,B,358,0,4,4,180.0,1.0,1.0,1191.7,1.0,357.0,11.0,1.17785,0.936962
White,4,Right,18,Female,Yes,English,B,359,1,4,4,0.0,0.0,1.0,628.383,1.0,358.0,11.0,1.15636,0.950779
White,4,Right,18,Female,Yes,English,B,360,1,8,8,0.0,0.0,1.0,447.576,1.0,359.0,11.0,1.11349,0.819789
White,4,Right,18,Female,Yes,English,B,361,1,0,4,180.0,1.0,1.0,509.107,1.0,360.0,11.0,1.00038,0.954484
White,4,Right,18,Female,Yes,English,B,362,1,16,0,0.0,0.0,1.0,888.449,1.0,361.0,11.0,1.17509,0.887926
White,4,Right,18,Female,Yes,English,B,363,0,0,4,180.0,1.0,1.0,829.527,1.0,362.0,11.0,1.11709,0.879581
White,4,Right,18,Female,Yes,English,B,364,0,8,16,0.0,0.0,1.0,609.939,1.0,363.0,11.0,1.04198,0.941417
White,4,Right,18,Female,Yes,English,B,365,0,16,4,180.0,1.0,1.0,899.317,1.0,364.0,11.0,1.00967,0.888637
White,4,Right,18,Female,Yes,English,B,366,1,8,0,0.0,0.0,1.0,867.648,1.0,365.0,11.0,1.05298,0.900711
White,4,Right,18,Female,Yes,English,B,367,1,4,8,180.0,1.0,1.0,867.285,1.0,366.0,11.0,1.19988,0.808844
White,4,Right,18,Female,Yes,English,B,368,1,16,8,0.0,0.0,1.0,926.139,1.0,367.0,11.0,1.19642,0.999277
White,4,Right,18,Female,Yes,English,B,369,0,8,4,180.0,1.0,1.0,972.706,1.0,368.0,11.0,1.12129,0.803425
White,4,Right,18,Female,Yes,English,B,370,0,16,8,180.0,1.0,1.0,974.318,1.0,369.0,11.0,1.04001,0.971259
White,4,Right,18,Female,Yes,English,B,371,0,8,0,180.0,1.0,1.0,536.094,1.0,370.0,11.0,1.19627,0.968121
White,4,Right,18,Female,Yes,English,B,372,1,8,16,0.0,0.0,1.0,666.395,1.0,371.0,11.0,1.02634,0.91032
White,4,Right,18,Female,Yes,English,B,373,0,0,16,0.0,0.0,1.0,731.333,1.0,372.0,11.0,1.13219,0.906875
White,4,Right,18,Female,Yes,English,B,374,1,4,0,0.0,0.0,1.0,748.788,1.0,373.0,11.0,1.19881,0.939371
White,4,Right,18,Female,Yes,English,B,375,1,0,0,180.0,1.0,1.0,514.355,1.0,374.0,11.0,1.1365,0.886517
White,4,Right,18,Female,Yes,English,B,376,0,0,8,0.0,0.0,1.0,664.365,1.0,375.0,11.0,1.09654,0.995247
White,4,Right,18,Female,Yes,English,B,377,1,0,8,180.0,1.0,1.0,925.568,1.0,376.0,11.0,1.17774,0.937279
White,4,Right,18,Female,Yes,English,B,378,0,4,8,180.0,1.0,1.0,660.839,1.0,377.0,11.0,1.06959,0.904621
White,4,Right,18,Female,Yes,English,B,379,0,8,8,180.0,1.0,1.0,589.045,1.0,378.0,11.0,1.07261,0.972667
White,4,Right,18,Female,Yes,English,B,380,1,0,16,0.0,0.0,1.0,610.162,1.0,379.0,11.0,1.11816,0.877239
White,4,Right,18,Female,Yes,English,B,381,0,16,16,180.0,1.0,1.0,820.451,1.0,380.0,11.0,1.19954,0.958716
White,4,Right,18,Female,Yes,English,B,382,1,8,4,180.0,1.0,1.0,446.566,1.0,381.0,11.0,1.17091,0.81891
White,4,Right,18,Female,Yes,English,B,383,0,16,0,0.0,0.0,1.0,809.825,1.0,382.0,11.0,1.01747,0.827844
White,4,Right,18,Female,Yes,English,B,384,0,0,0,180.0,1.0,1.0,531.586,1.0,383.0,11.0,1.09028,0.851874
White,4,Right,18,Female,Yes,English,B,385,0,4,8,180.0,1.0,1.0,653.521,1.0,384.0,12.0,1.13589,0.924134
White,4,Right,18,Female,Yes,English,B,386,0,16,16,180.0,1.0,1.0,760.74,1.0,385.0,12.0,1.03613,0.905958
White,4,Right,18,Female,Yes,English,B,387,1,16,0,180.0,1.0,1.0,615.257,1.0,386.0,12.0,1.17065,0.956063
White,4,Right,18,Female,Yes,English,B,388,1,4,16,0.0,0.0,1.0,756.931,1.0,387.0,12.0,1.12077,0.831771
White,4,Right,18,Female,Yes,English,B,389,1,8,4,180.0,1.0,1.0,874.978,1.0,388.0,12.0,1.1648,0.804151
White,4,Right,18,Female,Yes,English,B,390,0,0,0,0.0,0.0,1.0,556.689,1.0,389.0,12.0,1.15433,0.835402
White,4,Right,18,Female,Yes,English,B,391,0,8,4,0.0,0.0,1.0,1434.35,1.0,390.0,12.0,1.08035,0.803641
White,4,Right,18,Female,Yes,English,B,392,1,0,16,180.0,1.0,1.0,609.878,1.0,391.0,12.0,1.04696,0.899457
White,4,Right,18,Female,Yes,English,B,393,0,4,4,180.0,1.0,1.0,860.03,1.0,392.0,12.0,1.06645,0.879265
White,4,Right,18,Female,Yes,English,B,394,0,0,8,0.0,1.0,0.0,571.037,1.0,393.0,12.0,1.11975,0.917056
White,4,Right,18,Female,Yes,English,B,395,1,8,0,180.0,1.0,1.0,801.188,1.0,394.0,12.0,1.04711,0.861955
White,4,Right,18,Female,Yes,English,B,396,1,4,0,0.0,0.0,1.0,779.134,1.0,395.0,12.0,1.03765,0.879233
White,4,Right,18,Female,Yes,English,B,397,0,16,4,0.0,0.0,1.0,764.004,1.0,396.0,12.0,1.09826,0.848971
White,4,Right,18,Female,Yes,English,B,398,0,4,0,180.0,1.0,1.0,535.868,1.0,397.0,12.0,1.02958,0.914766
White,4,Right,18,Female,Yes,English,B,399,0,0,4,180.0,1.0,1.0,688.024,1.0,398.0,12.0,1.07399,0.945764
White,4,Right,18,Female,Yes,English,B,400,1,8,16,180.0,1.0,1.0,502.995,1.0,399.0,12.0,1.1137,0.908528
White,4,Right,18,Female,Yes,English,B,401,0,4,16,0.0,0.0,1.0,652.517,1.0,400.0,12.0,1.09255,0.986311
White,4,Right,18,Female,Yes,English,B,402,0,8,8,180.0,1.0,1.0,593.156,1.0,401.0,12.0,1.08135,0.836032
White,4,Right,18,Female,Yes,English,B,403,1,16,8,180.0,1.0,1.0,930.559,1.0,402.0,12.0,1.04462,0.814512
White,4,Right,18,Female,Yes,English,B,404,0,16,0,0.0,0.0,1.0,906.343,1.0,403.0,12.0,1.04667,0.855346
White,4,Right,18,Female,Yes,English,B,405,1,0,8,180.0,1.0,1.0,1058.04,1.0,404.0,12.0,1.09861,0.913391
White,4,Right,18,Female,Yes,English,B,406,0,8,0,0.0,0.0,1.0,679.544,1.0,405.0,12.0,1.00828,0.908295
White,4,Right,18,Female,Yes,English,B,407,1,0,0,0.0,0.0,1.0,552.439,1.0,406.0,12.0,1.17132,0.865937
White,4,Right,18,Female,Yes,English,B,408,0,0,16,180.0,1.0,1.0,768.942,1.0,407.0,12.0,1.07514,0.839133
White,4,Right,18,Female,Yes,English,B,409,1,16,4,0.0,0.0,1.0,833.982,1.0,408.0,12.0,1.0694,0.824929
White,4,Right,18,Female,Yes,English,B,410,1,4,4,180.0,1.0,1.0,515.516,1.0,409.0,12.0,1.05765,0.86731
White,4,Right,18,Female,Yes,English,B,411,0,16,8,0.0,0.0,1.0,854.83,1.0,410.0,12.0,1.0487,0.852615
White,4,Right,18,Female,Yes,English,B,412,1,16,16,0.0,0.0,1.0,839.145,1.0,411.0,12.0,1.02555,0.88211
White,4,Right,18,Female,Yes,English,B,413,1,4,8,0.0,0.0,1.0,365.431,1.0,412.0,12.0,1.16666,0.934396
White,4,Right,18,Female,Yes,English,B,414,1,0,4,0.0,0.0,1.0,966.589,1.0,413.0,12.0,1.16143,0.80858
White,4,Right,18,Female,Yes,English,B,415,1,8,8,0.0,0.0,1.0,1071.81,1.0,414.0,12.0,1.05147,0.923903
White,4,Right,18,Female,Yes,English,B,416,0,8,16,180.0,1.0,1.0,1201.1,1.0,415.0,12.0,1.14648,0.866431
White,4,Right,18,Female,Yes,English,B,417,0,8,16,0.0,0.0,1.0,764.86,1.0,416.0,13.0,1.12522,0.864367
White,4,Right,18,Female,Yes,English,B,418,0,0,16,180.0,1.0,1.0,746.314,1.0,417.0,13.0,1.15184,0.974417
White,4,Right,18,Female,Yes,English,B,419,1,8,0,180.0,1.0,1.0,842.969,1.0,418.0,13.0,1.07863,0.832413
White,4,Right,18,Female,Yes,English,B,420,1,0,0,0.0,0.0,1.0,673.739,1.0,419.0,13.0,1.12336,0.925227
White,4,Right,18,Female,Yes,English,B,421,1,4,8,180.0,1.0,1.0,427.776,1.0,420.0,13.0,1.17492,0.895843
White,4,Right,18,Female,Yes,English,B,422,0,0,8,0.0,0.0,1.0,836.422,1.0,421.0,13.0,1.04354,0.88249
White,4,Right,18,Female,Yes,English,B,423,1,4,16,180.0,1.0,1.0,639.439,1.0,422.0,13.0,1.12144,0.943521
White,4,Right,18,Female,Yes,English,B,424,0,4,8,0.0,0.0,1.0,580.493,1.0,423.0,13.0,1.10629,0.827546
White,4,Right,18,Female,Yes,English,B,425,1,0,16,180.0,0.0,0.0,538.716,1.0,424.0,13.0,1.18493,0.903016
White,4,Right,18,Female,Yes,English,B,426,0,16,0,0.0,0.0,1.0,779.458,1.0,425.0,13.0,1.01239,0.850265
White,4,Right,18,Female,Yes,English,B,427,0,0,0,180.0,1.0,1.0,599.614,1.0,426.0,13.0,1.01357,0.957351
White,4,Right,18,Female,Yes,English,B,428,1,16,16,180.0,1.0,1.0,605.25,1.0,427.0,13.0,1.00643,0.841809
White,4,Right,18,Female,Yes,English,B,429,1,4,0,0.0,0.0,1.0,587.7,1.0,428.0,13.0,1.03495,0.804958
White,4,Right,18,Female,Yes,English,B,430,0,4,4,0.0,0.0,1.0,550.986,1.0,429.0,13.0,1.09735,0.926108
White,4,Right,18,Female,Yes,English,B,431,0,4,0,180.0,1.0,1.0,557.477,1.0,430.0,13.0,1.01434,0.810743
White,4,Right,18,Female,Yes,English,B,432,0,8,0,180.0,1.0,1.0,819.54,1.0,431.0,13.0,1.16419,0.817618
White,4,Right,18,Female,Yes,English,B,433,0,16,16,180.0,0.0,0.0,506.158,1.0,432.0,13.0,1.07149,0.920809
White,4,Right,18,Female,Yes,English,B,434,1,0,4,0.0,0.0,1.0,572.811,1.0,433.0,13.0,1.14746,0.985256
White,4,Right,18,Female,Yes,English,B,435,0,16,4,0.0,0.0,1.0,736.288,1.0,434.0,13.0,1.13123,0.940065
White,4,Right,18,Female,Yes,English,B,436,1,16,0,0.0,0.0,1.0,695.434,1.0,435.0,13.0,1.11941,0.875455
White,4,Right,18,Female,Yes,English,B,437,1,8,8,0.0,0.0,1.0,886.779,1.0,436.0,13.0,1.08011,0.936361
White,4,Right,18,Female,Yes,English,B,438,1,4,4,0.0,0.0,1.0,811.496,1.0,437.0,13.0,1.1445,0.965905
White,4,Right,18,Female,Yes,English,B,439,0,8,4,180.0,1.0,1.0,780.822,1.0,438.0,13.0,1.10582,0.990194
White,4,Right,18,Female,Yes,English,B,440,1,16,4,0.0,0.0,1.0,786.737,1.0,439.0,13.0,1.08883,0.889369
White,4,Right,18,Female,Yes,English,B,441,1,8,4,0.0,0.0,1.0,1177.83,1.0,440.0,13.0,1.17481,0.816924
White,4,Right,18,Female,Yes,English,B,442,0,8,8,0.0,0.0,1.0,596.744,1.0,441.0,13.0,1.14394,0.932531
White,4,Right,18,Female,Yes,English,B,443,1,8,16,180.0,1.0,1.0,688.681,1.0,442.0,13.0,1.08966,0.882827
White,4,Right,18,Female,Yes,English,B,444,0,16,8,180.0,1.0,1.0,653.654,1.0,443.0,13.0,1.12501,0.947292
White,4,Right,18,Female,Yes,English,B,445,1,0,8,180.0,1.0,1.0,692.388,1.0,444.0,13.0,1.14042,0.901063
White,4,Right,18,Female,Yes,English,B,446,1,16,8,180.0,1.0,1.0,460.058,1.0,445.0,13.0,1.13742,0.812201
White,4,Right,18,Female,Yes,English,B,447,0,4,16,180.0,1.0,1.0,567.267,1.0,446.0,13.0,1.13556,0.88597
White,4,Right,18,Female,Yes,English,B,448,0,0,4,0.0,0.0,1.0,1318.42,1.0,447.0,13.0,1.08904,0.848847
White,4,Right,18,Female,Yes,English,B,449,0,8,16,0.0,0.0,1.0,669.299,1.0,448.0,14.0,1.18169,0.906009
White,4,Right,18,Female,Yes,English,B,450,1,16,0,180.0,1.0,1.0,1163.58,1.0,449.0,14.0,1.1783,0.945839
White,4,Right,18,Female,Yes,English,B,451,1,8,16,180.0,1.0,1.0,633.284,1.0,450.0,14.0,1.15295,0.912923
White,4,Right,18,Female,Yes,English,B,452,0,4,8,0.0,0.0,1.0,712.593,1.0,451.0,14.0,1.16884,0.803854
White,4,Right,18,Female,Yes,English,B,453,0,8,8,180.0,1.0,1.0,892.463,1.0,452.0,14.0,1.00877,0.900053
White,4,Right,18,Female,Yes,English,B,454,0,0,8,0.0,0.0,1.0,683.798,1.0,453.0,14.0,1.02841,0.858811
White,4,Right,18,Female,Yes,English,B,455,0,0,4,0.0,0.0,1.0,653.91,1.0,454.0,14.0,1.04738,0.835962
White,4,Right,18,Female,Yes,English,B,456,1,16,8,0.0,0.0,1.0,652.412,1.0,455.0,14.0,1.10929,0.944296
White,4,Right,18,Female,Yes,English,B,457,0,16,0,180.0,1.0,1.0,1041.57,1.0,456.0,14.0,1.18966,0.934939
White,4,Right,18,Female,Yes,English,B,458,0,4,4,0.0,0.0,1.0,678.29,1.0,457.0,14.0,1.14815,0.842423
White,4,Right,18,Female,Yes,English,B,459,1,0,16,180.0,1.0,1.0,650.554,1.0,458.0,14.0,1.12752,0.825171
White,4,Right,18,Female,Yes,English,B,460,0,8,0,0.0,0.0,1.0,661.585,1.0,459.0,14.0,1.13287,0.819965
White,4,Right,18,Female,Yes,English,B,461,1,0,4,0.0,0.0,1.0,581.203,1.0,460.0,14.0,1.16097,0.974953
White,4,Right,18,Female,Yes,English,B,462,0,4,0,0.0,0.0,1.0,912.066,1.0,461.0,14.0,1.0444,0.950231
White,4,Right,18,Female,Yes,English,B,463,1,4,8,0.0,0.0,1.0,593.457,1.0,462.0,14.0,1.14817,0.852077
White,4,Right,18,Female,Yes,English,B,464,1,16,4,180.0,1.0,1.0,668.253,1.0,463.0,14.0,1.11503,0.8755
White,4,Right,18,Female,Yes,English,B,465,1,4,0,180.0,1.0,1.0,684.044,1.0,464.0,14.0,1.07927,0.804361
White,4,Right,18,Female,Yes,English,B,466,1,8,4,0.0,0.0,1.0,656.984,1.0,465.0,14.0,1.16201,0.970248
White,4,Right,18,Female,Yes,English,B,467,0,16,8,180.0,1.0,1.0,960.361,1.0,466.0,14.0,1.03616,0.924764
White,4,Right,18,Female,Yes,English,B,468,1,16,16,180.0,1.0,1.0,656.117,1.0,467.0,14.0,1.16511,0.967049
White,4,Right,18,Female,Yes,English,B,469,0,16,4,180.0,1.0,1.0,774.501,1.0,468.0,14.0,1.1332,0.959281
White,4,Right,18,Female,Yes,English,B,470,1,0,0,0.0,0.0,1.0,535.473,1.0,469.0,14.0,1.00327,0.929404
White,4,Right,18,Female,Yes,English,B,471,0,0,0,0.0,0.0,1.0,646.445,1.0,470.0,14.0,1.10347,0.95175
White,4,Right,18,Female,Yes,English,B,472,0,16,16,180.0,1.0,1.0,537.334,1.0,471.0,14.0,1.18473,0.913558
White,4,Right,18,Female,Yes,English,B,473,0,8,4,180.0,1.0,1.0,642.51,1.0,472.0,14.0,1.17213,0.828889
White,4,Right,18,Female,Yes,English,B,474,1,0,8,180.0,1.0,1.0,647.528,1.0,473.0,14.0,1.16476,0.931018
White,4,Right,18,Female,Yes,English,B,475,1,8,0,180.0,1.0,1.0,762.7,1.0,474.0,14.0,1.08093,0.840782
White,4,Right,18,Female,Yes,English,B,476,1,8,8,180.0,1.0,1.0,553.282,1.0,475.0,14.0,1.17526,0.971271
White,4,Right,18,Female,Yes,English,B,477,1,4,4,0.0,0.0,1.0,761.054,1.0,476.0,14.0,1.07459,0.843281
White,4,Right,18,Female,Yes,English,B,478,0,0,16,0.0,0.0,1.0,679.05,1.0,477.0,14.0,1.05273,0.858565
White,4,Right,18,Female,Yes,English,B,479,0,4,16,180.0,1.0,1.0,687.03,1.0,478.0,14.0,1.09927,0.894031
White,4,Right,18,Female,Yes,English,B,480,1,4,16,0.0,0.0,1.0,655.303,1.0,479.0,14.0,1.02268,0.847816
White,4,Right,18,Female,Yes,English,B,481,1,8,4,0.0,0.0,1.0,825.731,1.0,480.0,15.0,1.08241,0.876027
White,4,Right,18,Female,Yes,English,B,482,1,8,16,0.0,0.0,1.0,594.497,1.0,481.0,15.0,1.13801,0.899403
White,4,Right,18,Female,Yes,English,B,483,0,8,0,0.0,0.0,1.0,551.966,1.0,482.0,15.0,1.19969,0.934031
White,4,Right,18,Female,Yes,English,B,484,1,0,4,180.0,1.0,1.0,732.755,1.0,483.0,15.0,1.02273,0.874021
White,4,Right,18,Female,Yes,English,B,485,1,4,0,0.0,0.0,1.0,689.91,1.0,484.0,15.0,1.00022,0.802362
White,4,Right,18,Female,Yes,English,B,486,0,0,16,0.0,0.0,1.0,555.098,1.0,485.0,15.0,1.02926,0.803816
White,4,Right,18,Female,Yes,English,B,487,0,16,4,180.0,1.0,1.0,999.731,1.0,486.0,15.0,1.17892,0.925447
White,4,Right,18,Female,Yes,English,B,488,0,4,0,180.0,1.0,1.0,606.334,1.0,487.0,15.0,1.02758,0.989872
White,4,Right,18,Female,Yes,English,B,489,0,8,8,180.0,1.0,1.0,1040.5,1.0,488.0,15.0,1.13795,0.868583
White,4,Right,18,Female,Yes,English,B,490,1,4,16,0.0,0.0,1.0,661.142,1.0,489.0,15.0,1.02114,0.93396
White,4,Right,18,Female,Yes,English,B,491,1,0,16,0.0,0.0,1.0,746.721,1.0,490.0,15.0,1.10172,0.938003
White,4,Right,18,Female,Yes,English,B,492,0,0,4,0.0,0.0,1.0,739.709,1.0,491.0,15.0,1.02525,0.997771
White,4,Right,18,Female,Yes,English,B,493,0,8,16,180.0,1.0,1.0,702.74,1.0,492.0,15.0,1.13611,0.852464
White,4,Right,18,Female,Yes,English,B,494,0,4,4,0.0,0.0,1.0,864.278,1.0,493.0,15.0,1.00145,0.838373
White,4,Right,18,Female,Yes,English,B,495,1,0,0,180.0,1.0,1.0,682.863,1.0,494.0,15.0,1.11312,0.865181
White,4,Right,18,Female,Yes,English,B,496,1,16,0,180.0,1.0,1.0,713.474,1.0,495.0,15.0,1.07225,0.969773
White,4,Right,18,Female,Yes,English,B,497,1,16,8,180.0,1.0,1.0,530.127,1.0,496.0,15.0,1.03916,0.982984
White,4,Right,18,Female,Yes,English,B,498,0,16,0,180.0,1.0,1.0,665.372,1.0,497.0,15.0,1.15436,0.868398
White,4,Right,18,Female,Yes,English,B,499,0,0,0,180.0,1.0,1.0,491.965,1.0,498.0,15.0,1.16253,0.908376
White,4,Right,18,Female,Yes,English,B,500,1,16,16,0.0,0.0,1.0,448.519,1.0,499.0,15.0,1.11295,0.890727
White,4,Right,18,Female,Yes,English,B,501,1,0,8,0.0,0.0,1.0,647.708,1.0,500.0,15.0,1.05123,0.836035
White,4,Right,18,Female,Yes,English,B,502,1,4,4,180.0,1.0,1.0,715.725,1.0,501.0,15.0,1.0821,0.947197
White,4,Right,18,Female,Yes,English,B,503,0,0,8,0.0,0.0,1.0,527.559,1.0,502.0,15.0,1.02035,0.967333
White,4,Right,18,Female,Yes,English,B,504,1,16,4,180.0,1.0,1.0,636.292,1.0,503.0,15.0,1.099,0.861507
White,4,Right,18,Female,Yes,English,B,505,1,8,0,0.0,0.0,1.0,493.712,1.0,504.0,15.0,1.03708,0.828587
White,4,Right,18,Female,Yes,English,B,506,1,8,8,180.0,1.0,1.0,819.016,1.0,505.0,15.0,1.0224,0.862641
White,4,Right,18,Female,Yes,English,B,507,0,4,16,0.0,0.0,1.0,675.801,1.0,506.0,15.0,1.16565,0.988494
White,4,Right,18,Female,Yes,English,B,508,0,8,4,180.0,1.0,1.0,918.654,1.0,507.0,15.0,1.02481,0.887318
White,4,Right,18,Female,Yes,English,B,509,1,4,8,180.0,1.0,1.0,500.567,1.0,508.0,15.0,1.06331,0.980386
White,4,Right,18,Female,Yes,English,B,510,0,16,8,0.0,0.0,1.0,666.735,1.0,509.0,15.0,1.17496,0.927832
White,4,Right,18,Female,Yes,English,B,511,0,16,16,0.0,0.0,1.0,668.144,1.0,510.0,15.0,1.00327,0.816402
White,4,Right,18,Female,Yes,English,B,512,0,4,8,180.0,1.0,1.0,561.984,1.0,511.0,15.0,1.17616,0.950395
White,4,Right,18,Female,Yes,English,B,513,1,16,4,0.0,0.0,1.0,431.618,1.0,512.0,16.0,1.00306,0.806348
White,4,Right,18,Female,Yes,English,B,514,1,4,4,180.0,1.0,1.0,684.457,1.0,513.0,16.0,1.19149,0.905007
White,4,Right,18,Female,Yes,English,B,515,1,16,16,180.0,1.0,1.0,477.998,1.0,514.0,16.0,1.16314,0.876366
White,4,Right,18,Female,Yes,English,B,516,0,8,0,180.0,1.0,1.0,436.786,1.0,515.0,16.0,1.15039,0.943609
White,4,Right,18,Female,Yes,English,B,517,1,8,4,0.0,0.0,1.0,522.646,1.0,516.0,16.0,1.17817,0.95263
White,4,Right,18,Female,Yes,English,B,518,1,8,8,0.0,0.0,1.0,851.055,1.0,517.0,16.0,1.03152,0.953827
White,4,Right,18,Female,Yes,English,B,519,0,8,16,0.0,0.0,1.0,583.583,1.0,518.0,16.0,1.06331,0.969873
White,4,Right,18,Female,Yes,English,B,520,1,0,8,0.0,0.0,1.0,809.891,1.0,519.0,16.0,1.16067,0.81407
White,4,Right,18,Female,Yes,English,B,521,1,4,16,0.0,0.0,1.0,1196.46,1.0,520.0,16.0,1.11423,0.891528
White,4,Right,18,Female,Yes,English,B,522,0,4,4,180.0,1.0,1.0,753.195,1.0,521.0,16.0,1.11124,0.821986
White,4,Right,18,Female,Yes,English,B,523,0,0,16,180.0,1.0,1.0,574.921,1.0,522.0,16.0,1.14562,0.804239
White,4,Right,18,Female,Yes,English,B,524,0,16,8,180.0,1.0,1.0,828.287,1.0,523.0,16.0,1.0082,0.821201
White,4,Right,18,Female,Yes,English,B,525,0,0,4,180.0,1.0,1.0,642.468,1.0,524.0,16.0,1.13222,0.872173
White,4,Right,18,Female,Yes,English,B,526,0,4,16,0.0,0.0,1.0,626.717,1.0,525.0,16.0,1.15528,0.867127
White,4,Right,18,Female,Yes,English,B,527,0,16,4,0.0,0.0,1.0,665.429,1.0,526.0,16.0,1.08585,0.917691
White,4,Right,18,Female,Yes,English,B,528,1,16,0,0.0,0.0,1.0,695.793,1.0,527.0,16.0,1.16043,0.810872
White,4,Right,18,Female,Yes,English,B,529,1,4,0,0.0,0.0,1.0,677.429,1.0,528.0,16.0,1.12989,0.87316
White,4,Right,18,Female,Yes,English,B,530,0,16,0,180.0,1.0,1.0,903.706,1.0,529.0,16.0,1.14873,0.848179
White,4,Right,18,Female,Yes,English,B,531,1,8,0,0.0,0.0,1.0,717.047,1.0,530.0,16.0,1.14045,0.908234
White,4,Right,18,Female,Yes,English,B,532,0,16,16,180.0,1.0,1.0,875.992,1.0,531.0,16.0,1.16329,0.954096
White,4,Right,18,Female,Yes,English,B,533,1,0,16,180.0,1.0,1.0,1094.26,1.0,532.0,16.0,1.08368,0.805386
White,4,Right,18,Female,Yes,English,B,534,0,0,0,0.0,0.0,1.0,597.15,1.0,533.0,16.0,1.05227,0.907833
White,4,Right,18,Female,Yes,English,B,535,0,4,0,0.0,0.0,1.0,670.738,1.0,534.0,16.0,1.01685,0.96942
White,4,Right,18,Female,Yes,English,B,536,1,0,0,180.0,1.0,1.0,651.904,1.0,535.0,16.0,1.05824,0.861148
White,4,Right,18,Female,Yes,English,B,537,0,0,8,180.0,1.0,1.0,564.566,1.0,536.0,16.0,1.03146,0.961431
White,4,Right,18,Female,Yes,English,B,538,0,8,8,180.0,1.0,1.0,703.596,1.0,537.0,16.0,1.01148,0.895818
White,4,Right,18,Female,Yes,English,B,539,1,8,16,180.0,1.0,1.0,975.903,1.0,538.0,16.0,1.14451,0.818629
White,4,Right,18,Female,Yes,English,B,540,0,8,4,0.0,0.0,1.0,644.069,1.0,539.0,16.0,1.0644,0.975939
White,4,Right,18,Female,Yes,English,B,541,1,4,8,0.0,0.0,1.0,502.704,1.0,540.0,16.0,1.19102,0.865404
White,4,Right,18,Female,Yes,English,B,542,0,4,8,180.0,0.0,0.0,448.954,1.0,541.0,16.0,1.0566,0.958229
White,4,Right,18,Female,Yes,English,B,543,1,16,8,180.0,1.0,1.0,767.777,1.0,542.0,16.0,1.15147,0.864934
White,4,Right,18,Female,Yes,English,B,544,1,0,4,0.0,0.0,1.0,397.796,1.0,543.0,16.0,1.17138,0.882293
White,4,Right,18,Female,Yes,English,B,545,1,8,16,180.0,1.0,1.0,698.692,1.0,544.0,17.0,1.06963,0.98872
White,4,Right,18,Female,Yes,English,B,546,1,0,8,180.0,1.0,1.0,360.647,1.0,545.0,17.0,1.06042,0.912415
White,4,Right,18,Female,Yes,English,B,547,1,4,8,180.0,1.0,1.0,390.549,1.0,546.0,17.0,1.07692,0.916134
White,4,Right,18,Female,Yes,English,B,548,1,4,4,180.0,1.0,1.0,1056.03,1.0,547.0,17.0,1.13037,0.844575
White,4,Right,18,Female,Yes,English,B,549,1,16,8,0.0,0.0,1.0,707.671,1.0,548.0,17.0,1.16454,0.864071
White,4,Right,18,Female,Yes,English,B,550,1,16,16,180.0,1.0,1.0,504.147,1.0,549.0,17.0,1.03148,0.964919
White,4,Right,18,Female,Yes,English,B,551,0,4,4,0.0,0.0,1.0,845.573,1.0,550.0,17.0,1.0392,0.82029
White,4,Right,18,Female,Yes,English,B,552,1,16,0,0.0,0.0,1.0,1080.4,1.0,551.0,17.0,1.05967,0.886177
White,4,Right,18,Female,Yes,English,B,553,1,8,8,0.0,0.0,1.0,460.694,1.0,552.0,17.0,1.01684,0.855877
White,4,Right,18,Female,Yes,English,B,554,1,8,4,0.0,0.0,1.0,589.937,1.0,553.0,17.0,1.13487,0.972798
White,4,Right,18,Female,Yes,English,B,555,0,0,16,0.0,0.0,1.0,748.043,1.0,554.0,17.0,1.10541,0.818158
White,4,Right,18,Female,Yes,English,B,556,0,4,16,180.0,1.0,1.0,599.576,1.0,555.0,17.0,1.16366,0.991537
White,4,Right,18,Female,Yes,English,B,557,0,8,16,0.0,0.0,1.0,657.74,1.0,556.0,17.0,1.1248,0.92358
White,4,Right,18,Female,Yes,English,B,558,1,8,0,180.0,1.0,1.0,503.3,1.0,557.0,17.0,1.16937,0.883179
White,4,Right,18,Female,Yes,English,B,559,1,4,16,0.0,0.0,1.0,775.5,1.0,558.0,17.0,1.16613,0.957397
White,4,Right,18,Female,Yes,English,B,560,0,16,8,180.0,1.0,1.0,617.024,1.0,559.0,17.0,1.12818,0.856717
White,4,Right,18,Female,Yes,English,B,561,0,16,16,0.0,0.0,1.0,557.581,1.0,560.0,17.0,1.02055,0.844691
White,4,Right,18,Female,Yes,English,B,562,0,4,8,0.0,1.0,0.0,567.875,1.0,561.0,17.0,1.00083,0.829755
White,4,Right,18,Female,Yes,English,B,563,1,0,4,180.0,1.0,1.0,506.282,1.0,562.0,17.0,1.09198,0.991473
White,4,Right,18,Female,Yes,English,B,564,0,8,8,0.0,0.0,1.0,1053.33,1.0,563.0,17.0,1.07029,0.997153
White,4,Right,18,Female,Yes,English,B,565,0,16,0,180.0,1.0,1.0,542.149,1.0,564.0,17.0,1.15308,0.855225
White,4,Right,18,Female,Yes,English,B,566,1,0,16,180.0,1.0,1.0,760.57,1.0,565.0,17.0,1.14282,0.805611
White,4,Right,18,Female,Yes,English,B,567,0,16,4,180.0,1.0,1.0,1170.22,1.0,566.0,17.0,1.03169,0.852301
White,4,Right,18,Female,Yes,English,B,568,0,4,0,180.0,1.0,1.0,879.135,1.0,567.0,17.0,1.14885,0.853582
White,4,Right,18,Female,Yes,English,B,569,0,0,4,0.0,0.0,1.0,924.302,1.0,568.0,17.0,1.01985,0.932049
White,4,Right,18,Female,Yes,English,B,570,0,0,0,0.0,0.0,1.0,451.418,1.0,569.0,17.0,1.05037,0.864057
White,4,Right,18,Female,Yes,English,B,571,1,16,4,180.0,1.0,1.0,1174.45,1.0,570.0,17.0,1.07037,0.878659
White,4,Right,18,Female,Yes,English,B,572,0,0,8,0.0,0.0,1.0,606.79,1.0,571.0,17.0,1.01029,0.904984
White,4,Right,18,Female,Yes,English,B,573,1,0,0,0.0,0.0,1.0,620.11,1.0,572.0,17.0,1.00939,0.803594
White,4,Right,18,Female,Yes,English,B,574,0,8,0,0.0,0.0,1.0,553.442,1.0,573.0,17.0,1.14895,0.840942
White,4,Right,18,Female,Yes,English,B,575,0,8,4,180.0,1.0,1.0,939.219,1.0,574.0,17.0,1.15209,0.87948
White,4,Right,18,Female,Yes,English,B,576,1,4,0,180.0,1.0,1.0,445.824,1.0,575.0,17.0,1.03651,0.872627
White,4,Right,18,Female,Yes,English,B,577,1,0,4,0.0,0.0,1.0,557.075,1.0,576.0,18.0,1.04988,0.973781
White,4,Right,18,Female,Yes,English,B,578,0,16,0,180.0,1.0,1.0,1187.19,1.0,577.0,18.0,1.1548,0.979619
White,4,Right,18,Female,Yes,English,B,579,0,8,0,180.0,1.0,1.0,601.566,1.0,578.0,18.0,1.17332,0.809764
White,4,Right,18,Female,Yes,English,B,580,1,8,4,0.0,0.0,1.0,847.619,1.0,579.0,18.0,1.19326,0.822289
White,4,Right,18,Female,Yes,English,B,581,0,4,4,0.0,0.0,1.0,817.642,1.0,580.0,18.0,1.06026,0.999099
White,4,Right,18,Female,Yes,English,B,582,0,8,4,180.0,1.0,1.0,541.143,1.0,581.0,18.0,1.07624,0.990052
White,4,Right,18,Female,Yes,English,B,583,0,0,16,0.0,0.0,1.0,1056.55,1.0,582.0,18.0,1.00991,0.895679
White,4,Right,18,Female,Yes,English,B,584,1,0,8,0.0,0.0,1.0,414.249,1.0,583.0,18.0,1.08391,0.808284
White,4,Right,18,Female,Yes,English,B,585,0,8,16,180.0,1.0,1.0,804.234,1.0,584.0,18.0,1.00135,0.918499
White,4,Right,18,Female,Yes,English,B,586,1,0,0,180.0,1.0,1.0,632.635,1.0,585.0,18.0,1.16288,0.96139
White,4,Right,18,Female,Yes,English,B,587,1,8,0,0.0,1.0,0.0,440.975,1.0,586.0,18.0,1.12203,0.961288
White,4,Right,18,Female,Yes,English,B,588,0,16,16,0.0,0.0,1.0,688.733,1.0,587.0,18.0,1.08802,0.951729
White,4,Right,18,Female,Yes,English,B,589,1,16,0,0.0,0.0,1.0,801.518,1.0,588.0,18.0,1.09088,0.950318
White,4,Right,18,Female,Yes,English,B,590,1,16,4,0.0,0.0,1.0,805.883,1.0,589.0,18.0,1.15766,0.898219
White,4,Right,18,Female,Yes,English,B,591,1,0,16,180.0,1.0,1.0,658.639,1.0,590.0,18.0,1.05872,0.868905
White,4,Right,18,Female,Yes,English,B,592,1,8,8,0.0,0.0,1.0,1276.91,1.0,591.0,18.0,1.01261,0.876986
White,4,Right,18,Female,Yes,English,B,593,0,4,16,180.0,1.0,1.0,863.9,1.0,592.0,18.0,1.15642,0.933843
White,4,Right,18,Female,Yes,English,B,594,1,16,16,0.0,0.0,1.0,769.259,1.0,593.0,18.0,1.02429,0.870114
White,4,Right,18,Female,Yes,English,B,595,1,8,16,0.0,0.0,1.0,948.913,1.0,594.0,18.0,1.07552,0.956401
White,4,Right,18,Female,Yes,English,B,596,0,0,0,0.0,0.0,1.0,656.425,1.0,595.0,18.0,1.01895,0.851286
White,4,Right,18,Female,Yes,English,B,597,0,4,8,0.0,0.0,1.0,645.684,1.0,596.0,18.0,1.14637,0.976099
White,4,Right,18,Female,Yes,English,B,598,0,0,4,0.0,0.0,1.0,657.795,1.0,597.0,18.0,1.10304,0.950084
White,4,Right,18,Female,Yes,English,B,599,0,4,0,180.0,1.0,1.0,806.313,1.0,598.0,18.0,1.17669,0.857159
White,4,Right,18,Female,Yes,English,B,600,1,4,4,180.0,1.0,1.0,577.905,1.0,599.0,18.0,1.03354,0.829739
White,4,Right,18,Female,Yes,English,B,601,0,8,8,180.0,1.0,1.0,824.704,1.0,600.0,18.0,1.15206,0.969112
White,4,Right,18,Female,Yes,English,B,602,0,16,4,180.0,1.0,1.0,817.04,1.0,601.0,18.0,1.11656,0.956572
White,4,Right,18,Female,Yes,English,B,603,1,16,8,180.0,1.0,1.0,1340.99,1.0,602.0,18.0,1.08956,0.932849
White,4,Right,18,Female,Yes,English,B,604,0,16,8,180.0,1.0,1.0,806.259,1.0,603.0,18.0,1.08271,0.955111
White,4,Right,18,Female,Yes,English,B,605,0,0,8,180.0,1.0,1.0,753.623,1.0,604.0,18.0,1.0543,0.966091
White,4,Right,18,Female,Yes,English,B,606,1,4,0,0.0,0.0,1.0,723.806,1.0,605.0,18.0,1.02669,0.996432
White,4,Right,18,Female,Yes,English,B,607,1,4,8,180.0,1.0,1.0,697.978,1.0,606.0,18.0,1.08491,0.948803
White,4,Right,18,Female,Yes,English,B,608,1,4,16,180.0,1.0,1.0,780.324,1.0,607.0,18.0,1.18202,0.80469
White,4,Right,18,Female,Yes,English,B,609,1,4,0,180.0,1.0,1.0,549.377,1.0,608.0,19.0,1.0575,0.836773
White,4,Right,18,Female,Yes,English,B,610,0,0,0,180.0,1.0,1.0,569.439,1.0,609.0,19.0,1.16793,0.840678
White,4,Right,18,Female,Yes,English,B,611,1,16,8,0.0,1.0,0.0,462.783,1.0,610.0,19.0,1.10013,0.806863
White,4,Right,18,Female,Yes,English,B,612,1,4,16,180.0,1.0,1.0,763.823,1.0,611.0,19.0,1.16994,0.862895
White,4,Right,18,Female,Yes,English,B,613,1,4,4,180.0,1.0,1.0,684.335,1.0,612.0,19.0,1.06833,0.926615
White,4,Right,18,Female,Yes,English,B,614,1,4,8,180.0,1.0,1.0,631.551,1.0,613.0,19.0,1.11223,0.904953
White,4,Right,18,Female,Yes,English,B,615,0,4,16,180.0,1.0,1.0,776.189,1.0,614.0,19.0,1.09191,0.973911
White,4,Right,18,Female,Yes,English,B,616,0,8,4,0.0,0.0,1.0,781.731,1.0,615.0,19.0,1.18819,0.801385
White,4,Right,18,Female,Yes,English,B,617,1,8,4,0.0,0.0,1.0,738.922,1.0,616.0,19.0,1.13584,0.8767
White,4,Right,18,Female,Yes,English,B,618,1,16,16,180.0,1.0,1.0,706.748,1.0,617.0,19.0,1.00251,0.832169
White,4,Right,18,Female,Yes,English,B,619,0,4,8,180.0,1.0,1.0,798.416,1.0,618.0,19.0,1.07974,0.853804
White,4,Right,18,Female,Yes,English,B,620,1,0,16,0.0,0.0,1.0,635.448,1.0,619.0,19.0,1.13718,0.959706
White,4,Right,18,Female,Yes,English,B,621,0,16,8,0.0,0.0,1.0,752.394,1.0,620.0,19.0,1.00735,0.900195
White,4,Right,18,Female,Yes,English,B,622,0,8,16,0.0,0.0,1.0,704.53,1.0,621.0,19.0,1.01271,0.97234
White,4,Right,18,Female,Yes,English,B,623,1,0,0,0.0,0.0,1.0,676.25,1.0,622.0,19.0,1.14133,0.959305
White,4,Right,18,Female,Yes,English,B,624,1,0,4,180.0,1.0,1.0,725.047,1.0,623.0,19.0,1.02209,0.960583
White,4,Right,18,Female,Yes,English,B,625,1,8,0,0.0,0.0,1.0,867.034,1.0,624.0,19.0,1.13879,0.888473
White,4,Right,18,Female,Yes,English,B,626,0,16,16,0.0,0.0,1.0,968.42,1.0,625.0,19.0,1.18811,0.899424
White,4,Right,18,Female,Yes,English,B,627,1,0,8,0.0,0.0,1.0,484.304,1.0,626.0,19.0,1.0225,0.873104
White,4,Right,18,Female,Yes,English,B,628,0,16,4,180.0,1.0,1.0,698.317,1.0,627.0,19.0,1.13258,0.882437
White,4,Right,18,Female,Yes,English,B,629,0,4,4,180.0,1.0,1.0,694.663,1.0,628.0,19.0,1.05564,0.974803
White,4,Right,18,Female,Yes,English,B,630,1,8,8,0.0,0.0,1.0,510.252,1.0,629.0,19.0,1.03129,0.813826
White,4,Right,18,Female,Yes,English,B,631,0,8,0,180.0,1.0,1.0,508.332,1.0,630.0,19.0,1.1541,0.853803
White,4,Right,18,Female,Yes,English,B,632,0,0,4,0.0,0.0,1.0,555.657,1.0,631.0,19.0,1.04708,0.9443
White,4,Right,18,Female,Yes,English,B,633,1,16,4,0.0,0.0,1.0,711.021,1.0,632.0,19.0,1.19406,0.931942
White,4,Right,18,Female,Yes,English,B,634,1,8,16,180.0,1.0,1.0,910.784,1.0,633.0,19.0,1.17671,0.912041
White,4,Right,18,Female,Yes,English,B,635,0,0,16,180.0,1.0,1.0,986.753,1.0,634.0,19.0,1.10372,0.84758
White,4,Right,18,Female,Yes,English,B,636,0,16,0,180.0,1.0,1.0,910.566,1.0,635.0,19.0,1.16507,0.99416
White,4,Right,18,Female,Yes,English,B,637,0,8,8,0.0,0.0,1.0,1010.03,1.0,636.0,19.0,1.02662,0.830715
White,4,Right,18,Female,Yes,English,B,638,0,4,0,180.0,1.0,1.0,701.159,1.0,637.0,19.0,1.01694,0.903952
White,4,Right,18,Female,Yes,English,B,639,0,0,8,0.0,0.0,1.0,608.317,1.0,638.0,19.0,1.19424,0.883364
White,4,Right,18,Female,Yes,English,B,640,1,16,0,0.0,1.0,0.0,513.228,1.0,639.0,19.0,1.05337,0.841022
White,4,Right,18,Female,Yes,English,B,641,1,4,0,180.0,1.0,1.0,521.075,1.0,640.0,20.0,1.15858,0.823404
White,4,Right,18,Female,Yes,English,B,642,1,8,16,0.0,0.0,1.0,559.619,1.0,641.0,20.0,1.02645,0.921564
White,4,Right,18,Female,Yes,English,B,643,0,16,16,0.0,0.0,1.0,801.823,1.0,642.0,20.0,1.12805,0.847637
White,4,Right,18,Female,Yes,English,B,644,0,0,4,0.0,0.0,1.0,715.265,1.0,643.0,20.0,1.08306,0.979708
White,4,Right,18,Female,Yes,English,B,645,0,4,8,180.0,1.0,1.0,715.961,1.0,644.0,20.0,1.06948,0.965566
White,4,Right,18,Female,Yes,English,B,646,1,0,8,180.0,1.0,1.0,782.119,1.0,645.0,20.0,1.13963,0.954025
White,4,Right,18,Female,Yes,English,B,647,1,0,16,180.0,1.0,1.0,695.499,1.0,646.0,20.0,1.17846,0.944505
White,4,Right,18,Female,Yes,English,B,648,0,8,16,180.0,1.0,1.0,703.636,1.0,647.0,20.0,1.16844,0.848772
White,4,Right,18,Female,Yes,English,B,649,1,0,0,180.0,1.0,1.0,476.634,1.0,648.0,20.0,1.15519,0.969168
White,4,Right,18,Female,Yes,English,B,650,1,0,4,0.0,1.0,0.0,438.685,1.0,649.0,20.0,1.05025,0.970527
White,4,Right,18,Female,Yes,English,B,651,0,0,0,180.0,1.0,1.0,846.804,1.0,650.0,20.0,1.13423,0.90817
White,4,Right,18,Female,Yes,English,B,652,1,8,8,0.0,0.0,1.0,1308.2,1.0,651.0,20.0,1.0892,0.921832
White,4,Right,18,Female,Yes,English,B,653,1,4,16,180.0,1.0,1.0,480.226,1.0,652.0,20.0,1.04166,0.830095
White,4,Right,18,Female,Yes,English,B,654,0,4,4,180.0,1.0,1.0,840.378,1.0,653.0,20.0,1.1277,0.980697
White,4,Right,18,Female,Yes,English,B,655,0,16,0,0.0,0.0,1.0,1001.67,1.0,654.0,20.0,1.10596,0.894571
White,4,Right,18,Female,Yes,English,B,656,1,4,4,180.0,1.0,1.0,986.64,1.0,655.0,20.0,1.18364,0.923127
White,4,Right,18,Female,Yes,English,B,657,1,16,0,0.0,0.0,1.0,841.455,1.0,656.0,20.0,1.03971,0.857406
White,4,Right,18,Female,Yes,English,B,658,0,4,0,0.0,0.0,1.0,908.045,1.0,657.0,20.0,1.00164,0.846685
White,4,Right,18,Female,Yes,English,B,659,1,8,0,0.0,0.0,1.0,673.771,1.0,658.0,20.0,1.08911,0.963271
White,4,Right,18,Female,Yes,English,B,660,0,0,16,0.0,0.0,1.0,728.202,1.0,659.0,20.0,1.02677,0.906627
White,4,Right,18,Female,Yes,English,B,661,0,16,4,180.0,1.0,1.0,720.3,1.0,660.0,20.0,1.16885,0.820405
White,4,Right,18,Female,Yes,English,B,662,0,8,0,0.0,0.0,1.0,573.62,1.0,661.0,20.0,1.05868,0.911129
White,4,Right,18,Female,Yes,English,B,663,1,16,8,0.0,0.0,1.0,813.813,1.0,662.0,20.0,1.17773,0.837729
White,4,Right,18,Female,Yes,English,B,664,0,16,8,0.0,0.0,1.0,1273.76,1.0,663.0,20.0,1.16093,0.869915
White,4,Right,18,Female,Yes,English,B,665,0,4,16,0.0,0.0,1.0,491.07,1.0,664.0,20.0,1.06794,0.909173
White,4,Right,18,Female,Yes,English,B,666,1,8,4,180.0,1.0,1.0,873.371,1.0,665.0,20.0,1.10997,0.953944
White,4,Right,18,Female,Yes,English,B,667,1,16,16,180.0,1.0,1.0,630.919,1.0,666.0,20.0,1.1463,0.919865
White,4,Right,18,Female,Yes,English,B,668,0,8,8,180.0,1.0,1.0,808.035,1.0,667.0,20.0,1.04764,0.87031
White,4,Right,18,Female,Yes,English,B,669,1,16,4,180.0,1.0,1.0,612.035,1.0,668.0,20.0,1.13401,0.921357
White,4,Right,18,Female,Yes,English,B,670,0,8,4,0.0,0.0,1.0,965.107,1.0,669.0,20.0,1.12162,0.897437
White,4,Right,18,Female,Yes,English,B,671,1,4,8,180.0,1.0,1.0,593.516,1.0,670.0,20.0,1.08605,0.971218
White,4,Right,18,Female,Yes,English,B,672,0,0,8,0.0,0.0,1.0,557.683,1.0,671.0,20.0,1.10783,0.91832
White,4,Right,18,Female,Yes,English,B,673,1,16,4,0.0,0.0,1.0,737.466,1.0,672.0,21.0,1.0708,0.891207
White,4,Right,18,Female,Yes,English,B,674,0,0,4,180.0,0.0,0.0,437.055,1.0,673.0,21.0,1.05318,0.811402
White,4,Right,18,Female,Yes,English,B,675,0,8,8,180.0,1.0,1.0,829.3,1.0,674.0,21.0,1.00331,0.859145
White,4,Right,18,Female,Yes,English,B,676,0,16,0,0.0,0.0,1.0,553.548,1.0,675.0,21.0,1.10212,0.972518
White,4,Right,18,Female,Yes,English,B,677,1,0,0,180.0,1.0,1.0,475.226,1.0,676.0,21.0,1.05923,0.877725
White,4,Right,18,Female,Yes,English,B,678,1,8,0,0.0,0.0,1.0,595.988,1.0,677.0,21.0,1.10663,0.889063
White,4,Right,18,Female,Yes,English,B,679,1,4,16,0.0,0.0,1.0,764.308,1.0,678.0,21.0,1.18825,0.94071
White,4,Right,18,Female,Yes,English,B,680,0,0,0,180.0,0.0,0.0,466.26,1.0,679.0,21.0,1.07555,0.881155
White,4,Right,18,Female,Yes,English,B,681,0,4,0,180.0,1.0,1.0,434.784,1.0,680.0,21.0,1.15737,0.882623
White,4,Right,18,Female,Yes,English,B,682,1,16,0,180.0,1.0,1.0,632.323,1.0,681.0,21.0,1.11423,0.868949
White,4,Right,18,Female,Yes,English,B,683,1,0,4,0.0,0.0,1.0,868.117,1.0,682.0,21.0,1.19115,0.846239
White,4,Right,18,Female,Yes,English,B,684,0,8,16,0.0,0.0,1.0,612.253,1.0,683.0,21.0,1.18741,0.858438
White,4,Right,18,Female,Yes,English,B,685,0,16,8,180.0,1.0,1.0,624.945,1.0,684.0,21.0,1.12291,0.860455
White,4,Right,18,Female,Yes,English,B,686,0,4,4,0.0,0.0,1.0,885.009,1.0,685.0,21.0,1.15706,0.888818
White,4,Right,18,Female,Yes,English,B,687,0,8,4,0.0,0.0,1.0,573.095,1.0,686.0,21.0,1.14274,0.908859
White,4,Right,18,Female,Yes,English,B,688,1,16,16,0.0,1.0,0.0,932.913,1.0,687.0,21.0,1.10731,0.896293
White,4,Right,18,Female,Yes,English,B,689,1,8,16,180.0,1.0,1.0,1036.02,1.0,688.0,21.0,1.01254,0.945096
White,4,Right,18,Female,Yes,English,B,690,1,0,16,180.0,1.0,1.0,727.595,1.0,689.0,21.0,1.01641,0.85306
White,4,Right,18,Female,Yes,English,B,691,0,0,8,0.0,0.0,1.0,561.477,1.0,690.0,21.0,1.04645,0.986678
White,4,Right,18,Female,Yes,English,B,692,1,8,8,0.0,0.0,1.0,881.627,1.0,691.0,21.0,1.1849,0.936129
White,4,Right,18,Female,Yes,English,B,693,1,0,8,180.0,1.0,1.0,478.038,1.0,692.0,21.0,1.15803,0.842959
White,4,Right,18,Female,Yes,English,B,694,0,0,16,180.0,1.0,1.0,877.424,1.0,693.0,21.0,1.03301,0.967879
White,4,Right,18,Female,Yes,English,B,695,1,4,4,0.0,0.0,1.0,739.689,1.0,694.0,21.0,1.05377,0.903413
White,4,Right,18,Female,Yes,English,B,696,0,4,8,0.0,0.0,1.0,892.495,1.0,695.0,21.0,1.13291,0.93739
White,4,Right,18,Female,Yes,English,B,697,1,8,4,180.0,1.0,1.0,877.896,1.0,696.0,21.0,1.14851,0.925375
White,4,Right,18,Female,Yes,English,B,698,0,4,16,0.0,0.0,1.0,768.848,1.0,697.0,21.0,1.1008,0.855577
White,4,Right,18,Female,Yes,English,B,699,1,4,8,180.0,1.0,1.0,766.372,1.0,698.0,21.0,1.18234,0.945687
White,4,Right,18,Female,Yes,English,B,700,0,16,4,180.0,1.0,1.0,792.896,1.0,699.0,21.0,1.17951,0.855072
White,4,Right,18,Female,Yes,English,B,701,0,8,0,0.0,0.0,1.0,626.624,1.0,700.0,21.0,1.0619,0.949805
White,4,Right,18,Female,Yes,English,B,702,1,16,8,180.0,1.0,1.0,711.421,1.0,701.0,21.0,1.08774,0.880976
White,4,Right,18,Female,Yes,English,B,703,1,4,0,0.0,0.0,1.0,667.916,1.0,702.0,21.0,1.17608,0.876375
White,4,Right,18,Female,Yes,English,B,704,0,16,16,180.0,1.0,1.0,960.131,1.0,703.0,21.0,1.06039,0.931191
White,4,Right,18,Female,Yes,English,B,705,1,4,4,180.0,0.0,0.0,728.44,1.0,704.0,22.0,1.19575,0.828331
White,4,Right,18,Female,Yes,English,B,706,0,0,4,180.0,1.0,1.0,739.566,1.0,705.0,22.0,1.01338,0.823218
White,4,Right,18,Female,Yes,English,B,707,1,0,4,180.0,1.0,1.0,595.096,1.0,706.0,22.0,1.02784,0.861731
White,4,Right,18,Female,Yes,English,B,708,0,4,4,0.0,0.0,1.0,736.154,1.0,707.0,22.0,1.02263,0.817624
White,4,Right,18,Female,Yes,English,B,709,0,8,0,180.0,1.0,1.0,624.661,1.0,708.0,22.0,1.14502,0.869429
White,4,Right,18,Female,Yes,English,B,710,0,4,8,0.0,0.0,1.0,865.514,1.0,709.0,22.0,1.19863,0.860292
White,4,Right,18,Female,Yes,English,B,711,1,8,16,0.0,1.0,0.0,508.961,1.0,710.0,22.0,1.07404,0.987305
White,4,Right,18,Female,Yes,English,B,712,0,8,8,180.0,1.0,1.0,779.517,1.0,711.0,22.0,1.19984,0.828777
White,4,Right,18,Female,Yes,English,B,713,1,4,16,0.0,0.0,1.0,822.745,1.0,712.0,22.0,1.04736,0.857945
White,4,Right,18,Female,Yes,English,B,714,0,8,16,180.0,1.0,1.0,659.667,1.0,713.0,22.0,1.04476,0.988237
White,4,Right,18,Female,Yes,English,B,715,1,8,0,180.0,1.0,1.0,522.573,1.0,714.0,22.0,1.11368,0.88717
White,4,Right,18,Female,Yes,English,B,716,1,0,16,180.0,1.0,1.0,660.424,1.0,715.0,22.0,1.14593,0.903345
White,4,Right,18,Female,Yes,English,B,717,1,4,0,180.0,1.0,1.0,717.77,1.0,716.0,22.0,1.10614,0.953011
White,4,Right,18,Female,Yes,English,B,718,0,16,4,180.0,1.0,1.0,1409.91,1.0,717.0,22.0,1.01729,0.852368
White,4,Right,18,Female,Yes,English,B,719,0,0,16,0.0,0.0,1.0,736.65,1.0,718.0,22.0,1.19797,0.839399
White,4,Right,18,Female,Yes,English,B,720,0,0,0,0.0,0.0,1.0,685.029,1.0,719.0,22.0,1.0141,0.842875
White,4,Right,18,Female,Yes,English,B,721,1,0,8,180.0,1.0,1.0,542.462,1.0,720.0,22.0,1.11587,0.810661
White,4,Right,18,Female,Yes,English,B,722,1,16,0,180.0,1.0,1.0,740.728,1.0,721.0,22.0,1.13242,0.990834
White,4,Right,18,Female,Yes,English,B,723,0,8,4,0.0,0.0,1.0,720.0,1.0,722.0,22.0,1.07693,0.979966
White,4,Right,18,Female,Yes,English,B,724,0,0,8,180.0,1.0,1.0,617.538,1.0,723.0,22.0,1.18389,0.974907
White,4,Right,18,Female,Yes,English,B,725,0,16,8,0.0,0.0,1.0,537.899,1.0,724.0,22.0,1.15593,0.997986
White,4,Right,18,Female,Yes,English,B,726,0,4,16,0.0,0.0,1.0,578.803,1.0,725.0,22.0,1.13919,0.883791
White,4,Right,18,Female,Yes,English,B,727,1,8,8,0.0,0.0,1.0,904.872,1.0,726.0,22.0,1.01199,0.969459
White,4,Right,18,Female,Yes,English,B,728,1,16,16,0.0,0.0,1.0,566.676,1.0,727.0,22.0,1.17084,0.993792
White,4,Right,18,Female,Yes,English,B,729,0,16,0,180.0,1.0,1.0,796.149,1.0,728.0,22.0,1.01577,0.976722
White,4,Right,18,Female,Yes,English,B,730,1,16,4,0.0,0.0,1.0,880.423,1.0,729.0,22.0,1.16062,0.829877
White,4,Right,18,Female,Yes,English,B,731,1,4,8,0.0,0.0,1.0,595.495,1.0,730.0,22.0,1.16789,0.800316
White,4,Right,18,Female,Yes,English,B,732,1,8,4,0.0,0.0,1.0,723.3,1.0,731.0,22.0,1.03808,0.817729
White,4,Right,18,Female,Yes,English,B,733,0,4,0,180.0,1.0,1.0,671.531,1.0,732.0,22.0,1.02947,0.901064
White,4,Right,18,Female,Yes,English,B,734,1,0,0,0.0,0.0,1.0,626.404,1.0,733.0,22.0,1.05578,0.843313
White,4,Right,18,Female,Yes,English,B,735,0,16,16,180.0,1.0,1.0,622.784,1.0,734.0,22.0,1.16845,0.818035
White,4,Right,18,Female,Yes,English,B,736,1,16,8,0.0,0.0,1.0,666.813,1.0,735.0,22.0,1.19633,0.86976
White,4,Right,18,Female,Yes,English,B,737,0,16,16,0.0,0.0,1.0,669.549,1.0,736.0,23.0,1.17375,0.955559
White,4,Right,18,Female,Yes,English,B,738,0,4,16,0.0,0.0,1.0,615.12,1.0,737.0,23.0,1.14999,0.959172
White,4,Right,18,Female,Yes,English,B,739,1,16,0,0.0,0.0,1.0,690.284,1.0,738.0,23.0,1.01548,0.937566
White,4,Right,18,Female,Yes,English,B,740,0,4,8,180.0,1.0,1.0,916.04,1.0,739.0,23.0,1.04035,0.974551
White,4,Right,18,Female,Yes,English,B,741,0,8,4,0.0,0.0,1.0,507.463,1.0,740.0,23.0,1.02288,0.949798
White,4,Right,18,Female,Yes,English,B,742,1,0,4,0.0,1.0,0.0,491.774,1.0,741.0,23.0,1.05956,0.923849
White,4,Right,18,Female,Yes,English,B,743,0,16,0,0.0,0.0,1.0,760.855,1.0,742.0,23.0,1.12725,0.983707
White,4,Right,18,Female,Yes,English,B,744,1,4,0,0.0,0.0,1.0,1070.13,1.0,743.0,23.0,1.17289,0.9262
White,4,Right,18,Female,Yes,English,B,745,1,8,0,180.0,1.0,1.0,1138.76,1.0,744.0,23.0,1.08103,0.933639
White,4,Right,18,Female,Yes,English,B,746,1,16,8,0.0,0.0,1.0,584.399,1.0,745.0,23.0,1.19805,0.833796
White,4,Right,18,Female,Yes,English,B,747,1,0,16,180.0,1.0,1.0,635.509,1.0,746.0,23.0,1.01627,0.82055
White,4,Right,18,Female,Yes,English,B,748,0,4,0,0.0,0.0,1.0,878.968,1.0,747.0,23.0,1.15251,0.861313
White,4,Right,18,Female,Yes,English,B,749,0,8,8,180.0,1.0,1.0,1008.64,1.0,748.0,23.0,1.11355,0.989909
White,4,Right,18,Female,Yes,English,B,750,0,0,8,180.0,1.0,1.0,649.43,1.0,749.0,23.0,1.09194,0.813777
White,4,Right,18,Female,Yes,English,B,751,1,8,8,180.0,1.0,1.0,655.938,1.0,750.0,23.0,1.19078,0.832232
White,4,Right,18,Female,Yes,English,B,752,0,0,0,0.0,0.0,1.0,735.784,1.0,751.0,23.0,1.00939,0.941434
White,4,Right,18,Female,Yes,English,B,753,0,8,0,180.0,1.0,1.0,543.857,1.0,752.0,23.0,1.06853,0.907004
White,4,Right,18,Female,Yes,English,B,754,0,8,16,180.0,1.0,1.0,915.776,1.0,753.0,23.0,1.04372,0.865778
White,4,Right,18,Female,Yes,English,B,755,1,16,16,0.0,0.0,1.0,956.156,1.0,754.0,23.0,1.09468,0.878908
White,4,Right,18,Female,Yes,English,B,756,0,16,4,0.0,0.0,1.0,847.91,1.0,755.0,23.0,1.13965,0.800246
White,4,Right,18,Female,Yes,English,B,757,0,0,4,180.0,1.0,1.0,730.97,1.0,756.0,23.0,1.19874,0.810881
White,4,Right,18,Female,Yes,English,B,758,1,4,4,0.0,0.0,1.0,691.702,1.0,757.0,23.0,1.0013,0.939499
White,4,Right,18,Female,Yes,English,B,759,0,16,8,0.0,0.0,1.0,966.319,1.0,758.0,23.0,1.05163,0.850696
White,4,Right,18,Female,Yes,English,B,760,1,4,16,180.0,1.0,1.0,889.998,1.0,759.0,23.0,1.18128,0.890241
White,4,Right,18,Female,Yes,English,B,761,1,0,0,0.0,0.0,1.0,768.635,1.0,760.0,23.0,1.02682,0.810485
White,4,Right,18,Female,Yes,English,B,762,0,4,4,180.0,1.0,1.0,547.955,1.0,761.0,23.0,1.08215,0.855002
White,4,Right,18,Female,Yes,English,B,763,1,16,4,180.0,1.0,1.0,1024.67,1.0,762.0,23.0,1.06221,0.82436
White,4,Right,18,Female,Yes,English,B,764,1,4,8,180.0,1.0,1.0,788.319,1.0,763.0,23.0,1.13424,0.834781
White,4,Right,18,Female,Yes,English,B,765,1,8,4,180.0,1.0,1.0,960.081,1.0,764.0,23.0,1.04022,0.858067
White,4,Right,18,Female,Yes,English,B,766,1,8,16,180.0,1.0,1.0,541.631,1.0,765.0,23.0,1.19004,0.855925
White,4,Right,18,Female,Yes,English,B,767,0,0,16,0.0,0.0,1.0,797.909,1.0,766.0,23.0,1.17811,0.913416
White,4,Right,18,Female,Yes,English,B,768,1,0,8,180.0,1.0,1.0,1120.68,1.0,767.0,23.0,1.18252,0.848834
