Ethnicity,Subject Number,Preferred Hand,Age,Gender,Color blind,First Language,Room,TrialNumber,background,turtles,tortoises,target_id,resp,hit,rt,ran,order,block,iti,fix_duration
White,9,Right,19,Female,Yes,English,B,1,1,16,8,0.0,0.0,1.0,1145.28,1.0,0.0,0.0,1.10148,0.954032
White,9,Right,19,Female,Yes,English,B,2,0,4,4,0.0,0.0,1.0,1104.08,1.0,1.0,0.0,1.17733,0.894823
White,9,Right,19,Female,Yes,English,B,3,1,4,16,180.0,1.0,1.0,1015.95,1.0,2.0,0.0,1.02773,0.92539
White,9,Right,19,Female,Yes,English,B,4,1,0,16,0.0,0.0,1.0,758.694,1.0,3.0,0.0,1.19958,0.828804
White,9,Right,19,Female,Yes,English,B,5,1,16,0,180.0,1.0,1.0,788.295,1.0,4.0,0.0,1.12397,0.914832
White,9,Right,19,Female,Yes,English,B,6,1,8,16,0.0,0.0,1.0,733.375,1.0,5.0,0.0,1.09738,0.906275
White,9,Right,19,Female,Yes,English,B,7,1,16,4,180.0,1.0,1.0,653.477,1.0,6.0,0.0,1.11936,0.894759
White,9,Right,19,Female,Yes,English,B,8,0,0,16,0.0,0.0,1.0,1213.81,1.0,7.0,0.0,1.15932,0.882681
White,9,Right,19,Female,Yes,English,B,9,0,0,0,0.0,0.0,1.0,727.138,1.0,8.0,0.0,1.18259,0.948991
White,9,Right,19,Female,Yes,English,B,10,0,4,16,0.0,0.0,1.0,1038.06,1.0,9.0,0.0,1.08161,0.858087
White,9,Right,19,Female,Yes,English,B,11,1,0,4,180.0,1.0,1.0,777.264,1.0,10.0,0.0,1.10559,0.991808
White,9,Right,19,Female,Yes,English,B,12,1,4,8,0.0,0.0,1.0,1110.87,1.0,11.0,0.0,1.05231,0.824904
White,9,Right,19,Female,Yes,English,B,13,0,16,0,180.0,1.0,1.0,781.792,1.0,12.0,0.0,1.15655,0.876918
White,9,Right,19,Female,Yes,English,B,14,0,8,4,0.0,0.0,1.0,744.938,1.0,13.0,0.0,1.14713,0.85139
White,9,Right,19,Female,Yes,English,B,15,1,8,4,180.0,1.0,1.0,1139.24,1.0,14.0,0.0,1.02212,0.812298
White,9,Right,19,Female,Yes,English,B,16,0,0,8,180.0,1.0,1.0,1200.6,1.0,15.0,0.0,1.00329,0.905985
White,9,Right,19,Female,Yes,English,B,17,0,4,0,180.0,1.0,1.0,1380.99,1.0,16.0,0.0,1.19736,0.951613
White,9,Right,19,Female,Yes,English,B,18,0,16,16,0.0,0.0,1.0,1736.89,1.0,17.0,0.0,1.02089,0.951751
White,9,Right,19,Female,Yes,English,B,19,0,8,8,180.0,1.0,1.0,1691.28,1.0,18.0,0.0,1.15327,0.907037
White,9,Right,19,Female,Yes,English,B,20,1,0,0,0.0,0.0,1.0,1003.07,1.0,19.0,0.0,1.08538,0.901647
White,9,Right,19,Female,Yes,English,B,21,0,0,4,0.0,0.0,1.0,891.235,1.0,20.0,0.0,1.04224,0.857127
White,9,Right,19,Female,Yes,English,B,22,1,8,0,0.0,0.0,1.0,1016.01,1.0,21.0,0.0,1.19131,0.944151
White,9,Right,19,Female,Yes,English,B,23,0,8,0,180.0,1.0,1.0,1043.39,1.0,22.0,0.0,1.00176,0.855271
White,9,Right,19,Female,Yes,English,B,24,1,0,8,180.0,1.0,1.0,893.036,1.0,23.0,0.0,1.0855,0.835748
White,9,Right,19,Female,Yes,English,B,25,1,4,0,180.0,1.0,1.0,713.078,1.0,24.0,0.0,1.13503,0.863682
White,9,Right,19,Female,Yes,English,B,26,1,16,16,180.0,1.0,1.0,1071.68,1.0,25.0,0.0,1.17136,0.904932
White,9,Right,19,Female,Yes,English,B,27,0,8,16,0.0,0.0,1.0,959.718,1.0,26.0,0.0,1.02965,0.984675
White,9,Right,19,Female,Yes,English,B,28,0,4,8,180.0,1.0,1.0,1566.68,1.0,27.0,0.0,1.00974,0.903592
White,9,Right,19,Female,Yes,English,B,29,0,16,8,0.0,0.0,1.0,826.752,1.0,28.0,0.0,1.13813,0.999656
White,9,Right,19,Female,Yes,English,B,30,1,4,4,0.0,0.0,1.0,1136.37,1.0,29.0,0.0,1.02815,0.964677
White,9,Right,19,Female,Yes,English,B,31,0,16,4,180.0,1.0,1.0,2048.59,1.0,30.0,0.0,1.15019,0.879292
White,9,Right,19,Female,Yes,English,B,32,1,8,8,180.0,1.0,1.0,704.912,1.0,31.0,0.0,1.06103,0.958932
White,9,Right,19,Female,Yes,English,B,33,1,8,16,180.0,1.0,1.0,1280.45,1.0,32.0,1.0,1.08255,0.82324
White,9,Right,19,Female,Yes,English,B,34,1,0,16,180.0,1.0,1.0,1785.45,1.0,33.0,1.0,1.13912,0.917883
White,9,Right,19,Female,Yes,English,B,35,1,4,4,180.0,1.0,1.0,949.545,1.0,34.0,1.0,1.12009,0.827686
White,9,Right,19,Female,Yes,English,B,36,1,16,16,180.0,1.0,1.0,1357.12,1.0,35.0,1.0,1.16917,0.991442
White,9,Right,19,Female,Yes,English,B,37,1,8,8,180.0,1.0,1.0,1117.94,1.0,36.0,1.0,1.16339,0.898799
White,9,Right,19,Female,Yes,English,B,38,0,16,8,0.0,0.0,1.0,1711.03,1.0,37.0,1.0,1.08097,0.841683
White,9,Right,19,Female,Yes,English,B,39,0,16,16,0.0,0.0,1.0,858.376,1.0,38.0,1.0,1.08734,0.853956
White,9,Right,19,Female,Yes,English,B,40,0,4,16,0.0,0.0,1.0,873.117,1.0,39.0,1.0,1.16823,0.96237
White,9,Right,19,Female,Yes,English,B,41,0,0,4,0.0,0.0,1.0,707.909,1.0,40.0,1.0,1.09811,0.99087
White,9,Right,19,Female,Yes,English,B,42,0,8,16,0.0,0.0,1.0,984.206,1.0,41.0,1.0,1.09823,0.82639
White,9,Right,19,Female,Yes,English,B,43,0,4,4,0.0,0.0,1.0,878.579,1.0,42.0,1.0,1.02894,0.982289
White,9,Right,19,Female,Yes,English,B,44,0,8,4,180.0,1.0,1.0,695.379,1.0,43.0,1.0,1.06829,0.825898
White,9,Right,19,Female,Yes,English,B,45,1,16,8,180.0,1.0,1.0,2047.72,1.0,44.0,1.0,1.12326,0.880087
White,9,Right,19,Female,Yes,English,B,46,1,4,0,0.0,0.0,1.0,887.46,1.0,45.0,1.0,1.08212,0.948592
White,9,Right,19,Female,Yes,English,B,47,1,0,0,180.0,1.0,1.0,972.292,1.0,46.0,1.0,1.16492,0.859893
White,9,Right,19,Female,Yes,English,B,48,0,4,8,0.0,0.0,1.0,907.699,1.0,47.0,1.0,1.11309,0.879147
White,9,Right,19,Female,Yes,English,B,49,1,0,4,180.0,1.0,1.0,659.815,1.0,48.0,1.0,1.06193,0.935734
White,9,Right,19,Female,Yes,English,B,50,1,16,4,0.0,0.0,1.0,883.005,1.0,49.0,1.0,1.1742,0.963345
White,9,Right,19,Female,Yes,English,B,51,0,16,4,180.0,1.0,1.0,1143.4,1.0,50.0,1.0,1.08573,0.884155
White,9,Right,19,Female,Yes,English,B,52,1,0,8,180.0,1.0,1.0,1326.72,1.0,51.0,1.0,1.12622,0.924688
White,9,Right,19,Female,Yes,English,B,53,0,0,16,180.0,1.0,1.0,1335.7,1.0,52.0,1.0,1.01893,0.983845
White,9,Right,19,Female,Yes,English,B,54,1,4,16,0.0,0.0,1.0,749.73,1.0,53.0,1.0,1.09875,0.929346
White,9,Right,19,Female,Yes,English,B,55,1,8,4,0.0,0.0,1.0,699.849,1.0,54.0,1.0,1.03545,0.855977
White,9,Right,19,Female,Yes,English,B,56,0,0,0,180.0,1.0,1.0,811.964,1.0,55.0,1.0,1.0952,0.862946
White,9,Right,19,Female,Yes,English,B,57,0,8,0,0.0,0.0,1.0,886.85,1.0,56.0,1.0,1.0768,0.97356
White,9,Right,19,Female,Yes,English,B,58,1,4,8,0.0,0.0,1.0,1133.45,1.0,57.0,1.0,1.01013,0.85842
White,9,Right,19,Female,Yes,English,B,59,0,8,8,0.0,0.0,1.0,844.607,1.0,58.0,1.0,1.08108,0.955756
White,9,Right,19,Female,Yes,English,B,60,0,4,0,180.0,1.0,1.0,1165.74,1.0,59.0,1.0,1.01241,0.920622
White,9,Right,19,Female,Yes,English,B,61,0,16,0,180.0,1.0,1.0,781.725,1.0,60.0,1.0,1.19687,0.900318
White,9,Right,19,Female,Yes,English,B,62,0,0,8,180.0,1.0,1.0,642.641,1.0,61.0,1.0,1.15201,0.807833
White,9,Right,19,Female,Yes,English,B,63,1,16,0,0.0,0.0,1.0,984.451,1.0,62.0,1.0,1.1578,0.983388
White,9,Right,19,Female,Yes,English,B,64,1,8,0,0.0,0.0,1.0,1120.64,1.0,63.0,1.0,1.04531,0.962368
White,9,Right,19,Female,Yes,English,B,65,1,0,8,180.0,1.0,1.0,616.102,1.0,64.0,2.0,1.06166,0.904388
White,9,Right,19,Female,Yes,English,B,66,0,4,4,0.0,0.0,1.0,1740.74,1.0,65.0,2.0,1.02275,0.84482
White,9,Right,19,Female,Yes,English,B,67,0,8,0,180.0,1.0,1.0,1460.93,1.0,66.0,2.0,1.00944,0.939271
White,9,Right,19,Female,Yes,English,B,68,0,16,16,180.0,1.0,1.0,1272.47,1.0,67.0,2.0,1.05943,0.837021
White,9,Right,19,Female,Yes,English,B,69,1,4,4,0.0,0.0,1.0,1003.43,1.0,68.0,2.0,1.03925,0.999342
White,9,Right,19,Female,Yes,English,B,70,0,4,16,0.0,0.0,1.0,826.863,1.0,69.0,2.0,1.03677,0.854121
White,9,Right,19,Female,Yes,English,B,71,1,16,4,180.0,1.0,1.0,993.533,1.0,70.0,2.0,1.09317,0.991408
White,9,Right,19,Female,Yes,English,B,72,1,0,16,0.0,0.0,1.0,660.509,1.0,71.0,2.0,1.19457,0.847929
White,9,Right,19,Female,Yes,English,B,73,0,8,4,0.0,0.0,1.0,1159.78,1.0,72.0,2.0,1.16721,0.998715
White,9,Right,19,Female,Yes,English,B,74,0,0,8,180.0,1.0,1.0,1134.63,1.0,73.0,2.0,1.13854,0.816186
White,9,Right,19,Female,Yes,English,B,75,1,8,4,0.0,0.0,1.0,1199.29,1.0,74.0,2.0,1.1323,0.811701
White,9,Right,19,Female,Yes,English,B,76,0,16,4,0.0,0.0,1.0,1090.63,1.0,75.0,2.0,1.00872,0.800651
White,9,Right,19,Female,Yes,English,B,77,0,0,4,180.0,1.0,1.0,777.009,1.0,76.0,2.0,1.13754,0.875459
White,9,Right,19,Female,Yes,English,B,78,0,16,8,180.0,1.0,1.0,729.597,1.0,77.0,2.0,1.086,0.841088
White,9,Right,19,Female,Yes,English,B,79,1,8,8,0.0,0.0,1.0,859.067,1.0,78.0,2.0,1.15285,0.894016
White,9,Right,19,Female,Yes,English,B,80,1,0,0,180.0,1.0,1.0,733.979,1.0,79.0,2.0,1.06108,0.869572
White,9,Right,19,Female,Yes,English,B,81,0,0,0,0.0,0.0,1.0,958.893,1.0,80.0,2.0,1.10416,0.898146
White,9,Right,19,Female,Yes,English,B,82,0,4,8,0.0,0.0,1.0,1110.57,1.0,81.0,2.0,1.10899,0.867132
White,9,Right,19,Female,Yes,English,B,83,1,8,16,0.0,0.0,1.0,1526.02,1.0,82.0,2.0,1.15791,0.822625
White,9,Right,19,Female,Yes,English,B,84,0,16,0,180.0,1.0,1.0,849.85,1.0,83.0,2.0,1.12056,0.904711
White,9,Right,19,Female,Yes,English,B,85,1,16,16,180.0,1.0,1.0,1817.56,1.0,84.0,2.0,1.13616,0.8406
White,9,Right,19,Female,Yes,English,B,86,0,4,0,0.0,0.0,1.0,769.342,1.0,85.0,2.0,1.10759,0.883633
White,9,Right,19,Female,Yes,English,B,87,1,4,8,0.0,0.0,1.0,901.26,1.0,86.0,2.0,1.1685,0.853306
White,9,Right,19,Female,Yes,English,B,88,0,8,8,180.0,1.0,1.0,876.837,1.0,87.0,2.0,1.18648,0.953901
White,9,Right,19,Female,Yes,English,B,89,1,4,16,0.0,0.0,1.0,640.674,1.0,88.0,2.0,1.04897,0.864512
White,9,Right,19,Female,Yes,English,B,90,0,0,16,180.0,1.0,1.0,659.773,1.0,89.0,2.0,1.1367,0.896189
White,9,Right,19,Female,Yes,English,B,91,1,4,0,0.0,0.0,1.0,1334.99,1.0,90.0,2.0,1.0587,0.865915
White,9,Right,19,Female,Yes,English,B,92,0,8,16,180.0,1.0,1.0,885.667,1.0,91.0,2.0,1.19342,0.911702
White,9,Right,19,Female,Yes,English,B,93,1,16,8,0.0,0.0,1.0,1287.84,1.0,92.0,2.0,1.0204,0.801596
White,9,Right,19,Female,Yes,English,B,94,1,16,0,180.0,1.0,1.0,987.99,1.0,93.0,2.0,1.07983,0.990566
White,9,Right,19,Female,Yes,English,B,95,1,0,4,180.0,1.0,1.0,1354.87,1.0,94.0,2.0,1.11721,0.869484
White,9,Right,19,Female,Yes,English,B,96,1,8,0,180.0,1.0,1.0,1346.48,1.0,95.0,2.0,1.12114,0.894802
White,9,Right,19,Female,Yes,English,B,97,0,16,8,180.0,1.0,1.0,937.856,1.0,96.0,3.0,1.19386,0.848235
White,9,Right,19,Female,Yes,English,B,98,0,8,8,180.0,9999.0,0.0,9999.0,1.0,97.0,3.0,1.00839,0.94515
White,9,Right,19,Female,Yes,English,B,99,1,0,8,0.0,0.0,1.0,754.721,1.0,98.0,3.0,1.1977,0.99488
White,9,Right,19,Female,Yes,English,B,100,1,0,0,180.0,1.0,1.0,580.075,1.0,99.0,3.0,1.10702,0.820697
White,9,Right,19,Female,Yes,English,B,101,1,0,16,180.0,1.0,1.0,537.218,1.0,100.0,3.0,1.14251,0.905872
White,9,Right,19,Female,Yes,English,B,102,0,8,0,0.0,0.0,1.0,927.806,1.0,101.0,3.0,1.01114,0.845845
White,9,Right,19,Female,Yes,English,B,103,0,0,0,180.0,1.0,1.0,638.201,1.0,102.0,3.0,1.04336,0.972166
White,9,Right,19,Female,Yes,English,B,104,0,8,16,180.0,1.0,1.0,743.24,1.0,103.0,3.0,1.10788,0.942454
White,9,Right,19,Female,Yes,English,B,105,1,4,8,0.0,0.0,1.0,789.399,1.0,104.0,3.0,1.13964,0.843741
White,9,Right,19,Female,Yes,English,B,106,1,4,4,0.0,0.0,1.0,952.475,1.0,105.0,3.0,1.13212,0.864205
White,9,Right,19,Female,Yes,English,B,107,0,4,8,0.0,0.0,1.0,601.036,1.0,106.0,3.0,1.07064,0.925479
White,9,Right,19,Female,Yes,English,B,108,0,0,4,0.0,0.0,1.0,1029.64,1.0,107.0,3.0,1.01001,0.897201
White,9,Right,19,Female,Yes,English,B,109,1,8,8,180.0,1.0,1.0,901.142,1.0,108.0,3.0,1.13926,0.97209
White,9,Right,19,Female,Yes,English,B,110,1,16,8,180.0,1.0,1.0,646.983,1.0,109.0,3.0,1.09313,0.88362
White,9,Right,19,Female,Yes,English,B,111,1,16,16,0.0,0.0,1.0,1891.4,1.0,110.0,3.0,1.09536,0.840365
White,9,Right,19,Female,Yes,English,B,112,1,8,0,180.0,1.0,1.0,1093.65,1.0,111.0,3.0,1.10182,0.808094
White,9,Right,19,Female,Yes,English,B,113,0,0,16,0.0,0.0,1.0,1377.86,1.0,112.0,3.0,1.1567,0.907174
White,9,Right,19,Female,Yes,English,B,114,1,16,0,0.0,0.0,1.0,1243.8,1.0,113.0,3.0,1.11542,0.95332
White,9,Right,19,Female,Yes,English,B,115,0,4,4,180.0,1.0,1.0,1906.82,1.0,114.0,3.0,1.17075,0.946858
White,9,Right,19,Female,Yes,English,B,116,0,4,0,0.0,0.0,1.0,828.701,1.0,115.0,3.0,1.08381,0.907611
White,9,Right,19,Female,Yes,English,B,117,0,16,4,0.0,0.0,1.0,1318.12,1.0,116.0,3.0,1.01353,0.929958
White,9,Right,19,Female,Yes,English,B,118,1,8,4,180.0,1.0,1.0,1028.77,1.0,117.0,3.0,1.08368,0.882587
White,9,Right,19,Female,Yes,English,B,119,1,4,0,0.0,0.0,1.0,794.233,1.0,118.0,3.0,1.08954,0.903827
White,9,Right,19,Female,Yes,English,B,120,1,4,16,180.0,1.0,1.0,719.102,1.0,119.0,3.0,1.07181,0.835059
White,9,Right,19,Female,Yes,English,B,121,1,0,4,180.0,1.0,1.0,1127.48,1.0,120.0,3.0,1.00564,0.970243
White,9,Right,19,Female,Yes,English,B,122,0,4,16,0.0,0.0,1.0,1314.3,1.0,121.0,3.0,1.15756,0.831667
White,9,Right,19,Female,Yes,English,B,123,0,0,8,0.0,0.0,1.0,701.046,1.0,122.0,3.0,1.00012,0.967322
White,9,Right,19,Female,Yes,English,B,124,0,16,0,180.0,1.0,1.0,758.281,1.0,123.0,3.0,1.04715,0.993269
White,9,Right,19,Female,Yes,English,B,125,0,8,4,180.0,1.0,1.0,1526.38,1.0,124.0,3.0,1.17372,0.935497
White,9,Right,19,Female,Yes,English,B,126,1,8,16,0.0,0.0,1.0,747.607,1.0,125.0,3.0,1.18758,0.944871
White,9,Right,19,Female,Yes,English,B,127,0,16,16,180.0,1.0,1.0,783.48,1.0,126.0,3.0,1.05391,0.929267
White,9,Right,19,Female,Yes,English,B,128,1,16,4,0.0,0.0,1.0,846.451,1.0,127.0,3.0,1.09022,0.88612
White,9,Right,19,Female,Yes,English,B,129,1,16,4,0.0,0.0,1.0,1129.11,1.0,128.0,4.0,1.1548,0.922463
White,9,Right,19,Female,Yes,English,B,130,1,8,0,180.0,1.0,1.0,660.395,1.0,129.0,4.0,1.14055,0.812117
White,9,Right,19,Female,Yes,English,B,131,0,8,8,0.0,0.0,1.0,694.654,1.0,130.0,4.0,1.09816,0.806167
White,9,Right,19,Female,Yes,English,B,132,0,0,8,0.0,0.0,1.0,875.18,1.0,131.0,4.0,1.11379,0.869543
White,9,Right,19,Female,Yes,English,B,133,0,16,16,0.0,0.0,1.0,2064.82,1.0,132.0,4.0,1.16622,0.970156
White,9,Right,19,Female,Yes,English,B,134,0,0,16,0.0,0.0,1.0,694.65,1.0,133.0,4.0,1.1492,0.838847
White,9,Right,19,Female,Yes,English,B,135,1,4,0,180.0,1.0,1.0,746.733,1.0,134.0,4.0,1.04025,0.950435
White,9,Right,19,Female,Yes,English,B,136,1,16,8,0.0,0.0,1.0,864.539,1.0,135.0,4.0,1.00691,0.977951
White,9,Right,19,Female,Yes,English,B,137,0,8,0,180.0,1.0,1.0,1108.03,1.0,136.0,4.0,1.11248,0.998313
White,9,Right,19,Female,Yes,English,B,138,0,16,4,0.0,0.0,1.0,828.007,1.0,137.0,4.0,1.16602,0.858963
White,9,Right,19,Female,Yes,English,B,139,1,0,16,180.0,1.0,1.0,768.133,1.0,138.0,4.0,1.07979,0.900271
White,9,Right,19,Female,Yes,English,B,140,1,0,8,0.0,0.0,1.0,1229.51,1.0,139.0,4.0,1.16287,0.966574
White,9,Right,19,Female,Yes,English,B,141,1,16,0,0.0,0.0,1.0,592.137,1.0,140.0,4.0,1.0075,0.930012
White,9,Right,19,Female,Yes,English,B,142,1,8,4,0.0,1.0,0.0,513.809,1.0,141.0,4.0,1.13386,0.878479
White,9,Right,19,Female,Yes,English,B,143,1,0,4,180.0,1.0,1.0,845.472,1.0,142.0,4.0,1.12995,0.87894
White,9,Right,19,Female,Yes,English,B,144,0,8,4,0.0,0.0,1.0,900.904,1.0,143.0,4.0,1.09212,0.923074
White,9,Right,19,Female,Yes,English,B,145,0,4,16,180.0,1.0,1.0,893.128,1.0,144.0,4.0,1.03814,0.849489
White,9,Right,19,Female,Yes,English,B,146,0,4,0,180.0,1.0,1.0,975.801,1.0,145.0,4.0,1.07044,0.992302
White,9,Right,19,Female,Yes,English,B,147,0,0,4,0.0,0.0,1.0,714.383,1.0,146.0,4.0,1.1827,0.924383
White,9,Right,19,Female,Yes,English,B,148,1,8,16,180.0,1.0,1.0,1884.82,1.0,147.0,4.0,1.18954,0.802571
White,9,Right,19,Female,Yes,English,B,149,1,4,4,0.0,0.0,1.0,992.24,1.0,148.0,4.0,1.14028,0.840128
White,9,Right,19,Female,Yes,English,B,150,0,16,8,180.0,1.0,1.0,1266.32,1.0,149.0,4.0,1.17488,0.992677
White,9,Right,19,Female,Yes,English,B,151,1,4,16,180.0,1.0,1.0,1245.94,1.0,150.0,4.0,1.07894,0.876869
White,9,Right,19,Female,Yes,English,B,152,1,0,0,180.0,1.0,1.0,748.364,1.0,151.0,4.0,1.0549,0.995172
White,9,Right,19,Female,Yes,English,B,153,0,8,16,180.0,1.0,1.0,902.094,1.0,152.0,4.0,1.15743,0.813465
White,9,Right,19,Female,Yes,English,B,154,0,4,8,0.0,0.0,1.0,828.618,1.0,153.0,4.0,1.03277,0.811738
White,9,Right,19,Female,Yes,English,B,155,0,16,0,180.0,1.0,1.0,707.922,1.0,154.0,4.0,1.18878,0.801622
White,9,Right,19,Female,Yes,English,B,156,0,4,4,0.0,0.0,1.0,855.923,1.0,155.0,4.0,1.06812,0.945392
White,9,Right,19,Female,Yes,English,B,157,0,0,0,0.0,0.0,1.0,829.005,1.0,156.0,4.0,1.02728,0.839718
White,9,Right,19,Female,Yes,English,B,158,1,4,8,180.0,1.0,1.0,754.776,1.0,157.0,4.0,1.15792,0.824101
White,9,Right,19,Female,Yes,English,B,159,1,8,8,180.0,1.0,1.0,1285.84,1.0,158.0,4.0,1.1812,0.825109
White,9,Right,19,Female,Yes,English,B,160,1,16,16,180.0,1.0,1.0,1728.99,1.0,159.0,4.0,1.04999,0.965029
White,9,Right,19,Female,Yes,English,B,161,1,0,8,0.0,0.0,1.0,822.769,1.0,160.0,5.0,1.1726,0.944582
White,9,Right,19,Female,Yes,English,B,162,1,8,8,0.0,0.0,1.0,1176.93,1.0,161.0,5.0,1.06412,0.810229
White,9,Right,19,Female,Yes,English,B,163,0,16,0,0.0,0.0,1.0,1186.94,1.0,162.0,5.0,1.18303,0.843493
White,9,Right,19,Female,Yes,English,B,164,1,0,4,0.0,0.0,1.0,645.689,1.0,163.0,5.0,1.12734,0.815283
White,9,Right,19,Female,Yes,English,B,165,0,8,0,0.0,0.0,1.0,984.704,1.0,164.0,5.0,1.17188,0.916099
White,9,Right,19,Female,Yes,English,B,166,1,8,4,180.0,1.0,1.0,1292.35,1.0,165.0,5.0,1.18038,0.970135
White,9,Right,19,Female,Yes,English,B,167,0,0,16,180.0,1.0,1.0,697.74,1.0,166.0,5.0,1.03399,0.882437
White,9,Right,19,Female,Yes,English,B,168,1,4,16,180.0,1.0,1.0,1688.07,1.0,167.0,5.0,1.11787,0.815681
White,9,Right,19,Female,Yes,English,B,169,0,8,16,180.0,1.0,1.0,1135.27,1.0,168.0,5.0,1.03053,0.825286
White,9,Right,19,Female,Yes,English,B,170,1,0,0,180.0,1.0,1.0,743.662,1.0,169.0,5.0,1.03793,0.804153
White,9,Right,19,Female,Yes,English,B,171,0,0,4,0.0,0.0,1.0,966.88,1.0,170.0,5.0,1.11185,0.867407
White,9,Right,19,Female,Yes,English,B,172,1,4,8,0.0,0.0,1.0,895.945,1.0,171.0,5.0,1.00616,0.965144
White,9,Right,19,Female,Yes,English,B,173,0,4,4,180.0,1.0,1.0,602.081,1.0,172.0,5.0,1.07685,0.848252
White,9,Right,19,Female,Yes,English,B,174,0,16,8,0.0,0.0,1.0,1097.92,1.0,173.0,5.0,1.12199,0.842936
White,9,Right,19,Female,Yes,English,B,175,0,8,4,180.0,1.0,1.0,845.967,1.0,174.0,5.0,1.19843,0.974045
White,9,Right,19,Female,Yes,English,B,176,1,8,16,180.0,1.0,1.0,1447.14,1.0,175.0,5.0,1.17278,0.838901
White,9,Right,19,Female,Yes,English,B,177,1,16,4,180.0,1.0,1.0,1106.81,1.0,176.0,5.0,1.14136,0.884454
White,9,Right,19,Female,Yes,English,B,178,1,16,8,180.0,1.0,1.0,737.206,1.0,177.0,5.0,1.13289,0.840562
White,9,Right,19,Female,Yes,English,B,179,0,4,16,180.0,1.0,1.0,1473.55,1.0,178.0,5.0,1.09631,0.870899
White,9,Right,19,Female,Yes,English,B,180,1,8,0,0.0,0.0,1.0,1140.11,1.0,179.0,5.0,1.02138,0.848699
White,9,Right,19,Female,Yes,English,B,181,1,16,16,0.0,0.0,1.0,910.43,1.0,180.0,5.0,1.12289,0.926155
White,9,Right,19,Female,Yes,English,B,182,0,4,0,180.0,1.0,1.0,725.862,1.0,181.0,5.0,1.14195,0.927695
White,9,Right,19,Female,Yes,English,B,183,0,0,0,0.0,0.0,1.0,803.086,1.0,182.0,5.0,1.11653,0.99522
White,9,Right,19,Female,Yes,English,B,184,1,4,4,0.0,0.0,1.0,1091.53,1.0,183.0,5.0,1.19284,0.984915
White,9,Right,19,Female,Yes,English,B,185,0,0,8,180.0,1.0,1.0,736.766,1.0,184.0,5.0,1.01303,0.958424
White,9,Right,19,Female,Yes,English,B,186,1,4,0,180.0,1.0,1.0,633.831,1.0,185.0,5.0,1.05354,0.843775
White,9,Right,19,Female,Yes,English,B,187,0,16,4,180.0,1.0,1.0,1245.71,1.0,186.0,5.0,1.17945,0.830481
White,9,Right,19,Female,Yes,English,B,188,0,8,8,0.0,0.0,1.0,994.173,1.0,187.0,5.0,1.16585,0.88285
White,9,Right,19,Female,Yes,English,B,189,1,0,16,0.0,0.0,1.0,1281.78,1.0,188.0,5.0,1.09679,0.962063
White,9,Right,19,Female,Yes,English,B,190,1,16,0,0.0,0.0,1.0,704.618,1.0,189.0,5.0,1.01782,0.999457
White,9,Right,19,Female,Yes,English,B,191,0,16,16,0.0,0.0,1.0,1256.12,1.0,190.0,5.0,1.09094,0.825568
White,9,Right,19,Female,Yes,English,B,192,0,4,8,180.0,1.0,1.0,688.718,1.0,191.0,5.0,1.17555,0.866243
White,9,Right,19,Female,Yes,English,B,193,1,16,16,0.0,0.0,1.0,1916.38,1.0,192.0,6.0,1.09629,0.97745
White,9,Right,19,Female,Yes,English,B,194,0,0,4,0.0,0.0,1.0,1184.06,1.0,193.0,6.0,1.06797,0.910459
White,9,Right,19,Female,Yes,English,B,195,0,0,8,0.0,0.0,1.0,755.649,1.0,194.0,6.0,1.09711,0.93328
White,9,Right,19,Female,Yes,English,B,196,0,16,8,180.0,1.0,1.0,989.82,1.0,195.0,6.0,1.17023,0.980246
White,9,Right,19,Female,Yes,English,B,197,1,0,8,0.0,0.0,1.0,820.546,1.0,196.0,6.0,1.1355,0.964595
White,9,Right,19,Female,Yes,English,B,198,1,16,8,180.0,1.0,1.0,1443.65,1.0,197.0,6.0,1.11953,0.937157
White,9,Right,19,Female,Yes,English,B,199,1,16,4,180.0,1.0,1.0,899.586,1.0,198.0,6.0,1.09767,0.86947
White,9,Right,19,Female,Yes,English,B,200,1,8,16,180.0,1.0,1.0,1927.9,1.0,199.0,6.0,1.00238,0.838943
White,9,Right,19,Female,Yes,English,B,201,0,4,0,180.0,1.0,1.0,896.409,1.0,200.0,6.0,1.00141,0.886293
White,9,Right,19,Female,Yes,English,B,202,1,0,0,0.0,0.0,1.0,864.406,1.0,201.0,6.0,1.19712,0.897277
White,9,Right,19,Female,Yes,English,B,203,1,4,4,0.0,0.0,1.0,718.774,1.0,202.0,6.0,1.02991,0.950483
White,9,Right,19,Female,Yes,English,B,204,1,4,16,180.0,1.0,1.0,883.31,1.0,203.0,6.0,1.12871,0.808702
White,9,Right,19,Female,Yes,English,B,205,0,4,4,180.0,1.0,1.0,1006.87,1.0,204.0,6.0,1.07579,0.843196
White,9,Right,19,Female,Yes,English,B,206,0,8,4,0.0,0.0,1.0,1310.02,1.0,205.0,6.0,1.15642,0.815826
White,9,Right,19,Female,Yes,English,B,207,1,8,4,0.0,0.0,1.0,1406.39,1.0,206.0,6.0,1.04015,0.885289
White,9,Right,19,Female,Yes,English,B,208,1,4,0,180.0,1.0,1.0,754.757,1.0,207.0,6.0,1.09909,0.917212
White,9,Right,19,Female,Yes,English,B,209,0,4,16,180.0,1.0,1.0,1152.14,1.0,208.0,6.0,1.17797,0.838948
White,9,Right,19,Female,Yes,English,B,210,0,8,8,0.0,0.0,1.0,988.852,1.0,209.0,6.0,1.04194,0.934992
White,9,Right,19,Female,Yes,English,B,211,0,16,16,180.0,1.0,1.0,872.515,1.0,210.0,6.0,1.04761,0.823841
White,9,Right,19,Female,Yes,English,B,212,0,4,8,0.0,0.0,1.0,674.956,1.0,211.0,6.0,1.09359,0.885643
White,9,Right,19,Female,Yes,English,B,213,1,8,8,180.0,1.0,1.0,1552.68,1.0,212.0,6.0,1.1156,0.809262
White,9,Right,19,Female,Yes,English,B,214,1,4,8,0.0,0.0,1.0,1197.26,1.0,213.0,6.0,1.10589,0.900765
White,9,Right,19,Female,Yes,English,B,215,0,8,16,180.0,1.0,1.0,723.573,1.0,214.0,6.0,1.05527,0.87829
White,9,Right,19,Female,Yes,English,B,216,0,0,0,180.0,1.0,1.0,889.856,1.0,215.0,6.0,1.19343,0.839049
White,9,Right,19,Female,Yes,English,B,217,0,8,0,0.0,0.0,1.0,987.054,1.0,216.0,6.0,1.08462,0.970196
White,9,Right,19,Female,Yes,English,B,218,1,16,0,0.0,0.0,1.0,1545.22,1.0,217.0,6.0,1.02784,0.864515
White,9,Right,19,Female,Yes,English,B,219,1,0,16,0.0,0.0,1.0,1081.28,1.0,218.0,6.0,1.16289,0.822102
White,9,Right,19,Female,Yes,English,B,220,1,8,0,180.0,1.0,1.0,1399.57,1.0,219.0,6.0,1.16811,0.815977
White,9,Right,19,Female,Yes,English,B,221,1,0,4,180.0,1.0,1.0,1169.5,1.0,220.0,6.0,1.07545,0.87618
White,9,Right,19,Female,Yes,English,B,222,0,16,4,0.0,0.0,1.0,866.533,1.0,221.0,6.0,1.1053,0.987372
White,9,Right,19,Female,Yes,English,B,223,0,16,0,180.0,1.0,1.0,1123.28,1.0,222.0,6.0,1.17218,0.853073
White,9,Right,19,Female,Yes,English,B,224,0,0,16,0.0,0.0,1.0,921.061,1.0,223.0,6.0,1.15601,0.937993
White,9,Right,19,Female,Yes,English,B,225,1,0,8,180.0,1.0,1.0,840.264,1.0,224.0,7.0,1.15544,0.825631
White,9,Right,19,Female,Yes,English,B,226,0,16,0,180.0,1.0,1.0,862.072,1.0,225.0,7.0,1.18138,0.933063
White,9,Right,19,Female,Yes,English,B,227,1,4,16,180.0,1.0,1.0,1422.51,1.0,226.0,7.0,1.03733,0.847943
White,9,Right,19,Female,Yes,English,B,228,1,16,0,0.0,0.0,1.0,839.068,1.0,227.0,7.0,1.03762,0.90432
White,9,Right,19,Female,Yes,English,B,229,0,4,8,180.0,1.0,1.0,664.188,1.0,228.0,7.0,1.07705,0.868089
White,9,Right,19,Female,Yes,English,B,230,0,8,16,0.0,0.0,1.0,622.947,1.0,229.0,7.0,1.09519,0.819773
White,9,Right,19,Female,Yes,English,B,231,1,8,8,0.0,0.0,1.0,1636.49,1.0,230.0,7.0,1.08017,0.848739
White,9,Right,19,Female,Yes,English,B,232,0,8,0,180.0,1.0,1.0,1031.07,1.0,231.0,7.0,1.09084,0.862242
White,9,Right,19,Female,Yes,English,B,233,1,16,8,180.0,1.0,1.0,1358.69,1.0,232.0,7.0,1.12075,0.949173
White,9,Right,19,Female,Yes,English,B,234,1,16,16,0.0,0.0,1.0,1429.64,1.0,233.0,7.0,1.13288,0.94319
White,9,Right,19,Female,Yes,English,B,235,1,0,0,0.0,0.0,1.0,836.412,1.0,234.0,7.0,1.11969,0.921075
White,9,Right,19,Female,Yes,English,B,236,0,16,8,180.0,1.0,1.0,1150.81,1.0,235.0,7.0,1.0755,0.929991
White,9,Right,19,Female,Yes,English,B,237,0,8,4,0.0,0.0,1.0,1397.62,1.0,236.0,7.0,1.18314,0.800549
White,9,Right,19,Female,Yes,English,B,238,0,16,16,180.0,1.0,1.0,1633.13,1.0,237.0,7.0,1.17156,0.917797
White,9,Right,19,Female,Yes,English,B,239,1,0,4,180.0,1.0,1.0,1258.94,1.0,238.0,7.0,1.17298,0.830261
White,9,Right,19,Female,Yes,English,B,240,0,8,8,180.0,1.0,1.0,747.407,1.0,239.0,7.0,1.12445,0.832883
White,9,Right,19,Female,Yes,English,B,241,1,16,4,0.0,0.0,1.0,1289.7,1.0,240.0,7.0,1.03617,0.926064
White,9,Right,19,Female,Yes,English,B,242,0,4,4,180.0,1.0,1.0,1207.83,1.0,241.0,7.0,1.00106,0.819028
White,9,Right,19,Female,Yes,English,B,243,0,16,4,0.0,0.0,1.0,1421.35,1.0,242.0,7.0,1.11261,0.994218
White,9,Right,19,Female,Yes,English,B,244,0,0,4,0.0,0.0,1.0,893.823,1.0,243.0,7.0,1.15023,0.9361
White,9,Right,19,Female,Yes,English,B,245,0,0,8,0.0,0.0,1.0,790.652,1.0,244.0,7.0,1.15312,0.945279
White,9,Right,19,Female,Yes,English,B,246,0,0,16,0.0,0.0,1.0,669.108,1.0,245.0,7.0,1.00235,0.91507
White,9,Right,19,Female,Yes,English,B,247,1,8,0,180.0,1.0,1.0,1717.77,1.0,246.0,7.0,1.07555,0.999068
White,9,Right,19,Female,Yes,English,B,248,1,8,16,0.0,0.0,1.0,1392.41,1.0,247.0,7.0,1.01843,0.954566
White,9,Right,19,Female,Yes,English,B,249,1,4,0,180.0,1.0,1.0,907.545,1.0,248.0,7.0,1.1193,0.896115
White,9,Right,19,Female,Yes,English,B,250,0,0,0,0.0,0.0,1.0,795.873,1.0,249.0,7.0,1.06079,0.978462
White,9,Right,19,Female,Yes,English,B,251,0,4,16,0.0,0.0,1.0,815.042,1.0,250.0,7.0,1.12792,0.832008
White,9,Right,19,Female,Yes,English,B,252,1,0,16,180.0,1.0,1.0,799.089,1.0,251.0,7.0,1.16685,0.852257
White,9,Right,19,Female,Yes,English,B,253,1,4,4,0.0,0.0,1.0,1046.26,1.0,252.0,7.0,1.19763,0.824964
White,9,Right,19,Female,Yes,English,B,254,0,4,0,0.0,0.0,1.0,1048.88,1.0,253.0,7.0,1.14148,0.838863
White,9,Right,19,Female,Yes,English,B,255,1,8,4,180.0,1.0,1.0,1327.94,1.0,254.0,7.0,1.05624,0.895441
White,9,Right,19,Female,Yes,English,B,256,1,4,8,180.0,1.0,1.0,873.881,1.0,255.0,7.0,1.12638,0.809826
White,9,Right,19,Female,Yes,English,B,257,0,0,16,180.0,1.0,1.0,763.212,1.0,256.0,8.0,1.19626,0.958843
White,9,Right,19,Female,Yes,English,B,258,0,4,0,180.0,1.0,1.0,684.237,1.0,257.0,8.0,1.14459,0.884177
White,9,Right,19,Female,Yes,English,B,259,0,0,0,0.0,0.0,1.0,888.476,1.0,258.0,8.0,1.00353,0.82344
White,9,Right,19,Female,Yes,English,B,260,0,8,8,0.0,0.0,1.0,644.673,1.0,259.0,8.0,1.08925,0.929924
White,9,Right,19,Female,Yes,English,B,261,1,4,8,180.0,1.0,1.0,1383.04,1.0,260.0,8.0,1.05233,0.953957
White,9,Right,19,Female,Yes,English,B,262,1,0,8,180.0,1.0,1.0,802.474,1.0,261.0,8.0,1.09165,0.832133
White,9,Right,19,Female,Yes,English,B,263,0,8,4,180.0,1.0,1.0,823.07,1.0,262.0,8.0,1.10295,0.832474
White,9,Right,19,Female,Yes,English,B,264,0,4,16,0.0,0.0,1.0,706.632,1.0,263.0,8.0,1.12693,0.872772
White,9,Right,19,Female,Yes,English,B,265,0,4,8,180.0,1.0,1.0,1338.0,1.0,264.0,8.0,1.03885,0.979996
White,9,Right,19,Female,Yes,English,B,266,1,0,0,180.0,1.0,1.0,864.81,1.0,265.0,8.0,1.09452,0.969344
White,9,Right,19,Female,Yes,English,B,267,0,0,8,0.0,0.0,1.0,705.558,1.0,266.0,8.0,1.08431,0.91352
White,9,Right,19,Female,Yes,English,B,268,1,16,16,180.0,1.0,1.0,963.09,1.0,267.0,8.0,1.09772,0.95049
White,9,Right,19,Female,Yes,English,B,269,1,8,8,180.0,1.0,1.0,1306.53,1.0,268.0,8.0,1.13317,0.893734
White,9,Right,19,Female,Yes,English,B,270,1,16,8,0.0,0.0,1.0,726.273,1.0,269.0,8.0,1.04699,0.970938
White,9,Right,19,Female,Yes,English,B,271,0,8,16,0.0,0.0,1.0,1137.32,1.0,270.0,8.0,1.06284,0.804458
White,9,Right,19,Female,Yes,English,B,272,1,8,0,180.0,1.0,1.0,951.687,1.0,271.0,8.0,1.12772,0.815046
White,9,Right,19,Female,Yes,English,B,273,1,16,4,180.0,1.0,1.0,962.438,1.0,272.0,8.0,1.16728,0.840381
White,9,Right,19,Female,Yes,English,B,274,0,16,0,0.0,0.0,1.0,1241.9,1.0,273.0,8.0,1.04629,0.971817
White,9,Right,19,Female,Yes,English,B,275,0,0,4,180.0,1.0,1.0,930.672,1.0,274.0,8.0,1.19237,0.956058
White,9,Right,19,Female,Yes,English,B,276,0,16,8,0.0,0.0,1.0,1136.01,1.0,275.0,8.0,1.08492,0.801817
White,9,Right,19,Female,Yes,English,B,277,1,8,4,0.0,0.0,1.0,1297.83,1.0,276.0,8.0,1.11285,0.812234
White,9,Right,19,Female,Yes,English,B,278,1,4,4,180.0,1.0,1.0,1115.9,1.0,277.0,8.0,1.04777,0.936215
White,9,Right,19,Female,Yes,English,B,279,1,4,0,0.0,0.0,1.0,1075.16,1.0,278.0,8.0,1.12441,0.884406
White,9,Right,19,Female,Yes,English,B,280,0,16,16,0.0,0.0,1.0,1326.36,1.0,279.0,8.0,1.16372,0.93645
White,9,Right,19,Female,Yes,English,B,281,1,0,4,0.0,0.0,1.0,802.37,1.0,280.0,8.0,1.11636,0.855633
White,9,Right,19,Female,Yes,English,B,282,1,0,16,0.0,0.0,1.0,575.076,1.0,281.0,8.0,1.06183,0.949619
White,9,Right,19,Female,Yes,English,B,283,0,4,4,180.0,1.0,1.0,675.544,1.0,282.0,8.0,1.19607,0.81953
White,9,Right,19,Female,Yes,English,B,284,1,16,0,0.0,0.0,1.0,1199.36,1.0,283.0,8.0,1.10597,0.962838
White,9,Right,19,Female,Yes,English,B,285,1,8,16,0.0,0.0,1.0,785.391,1.0,284.0,8.0,1.17259,0.906954
White,9,Right,19,Female,Yes,English,B,286,0,8,0,0.0,0.0,1.0,1121.53,1.0,285.0,8.0,1.16075,0.938014
White,9,Right,19,Female,Yes,English,B,287,0,16,4,180.0,1.0,1.0,1079.93,1.0,286.0,8.0,1.00056,0.817461
White,9,Right,19,Female,Yes,English,B,288,1,4,16,180.0,1.0,1.0,1252.71,1.0,287.0,8.0,1.03308,0.917646
White,9,Right,19,Female,Yes,English,B,289,0,0,16,0.0,0.0,1.0,1205.98,1.0,288.0,9.0,1.1992,0.800265
White,9,Right,19,Female,Yes,English,B,290,1,16,4,0.0,0.0,1.0,1126.4,1.0,289.0,9.0,1.02593,0.845502
White,9,Right,19,Female,Yes,English,B,291,0,4,0,180.0,1.0,1.0,1219.16,1.0,290.0,9.0,1.12555,0.827557
White,9,Right,19,Female,Yes,English,B,292,0,0,0,0.0,0.0,1.0,736.653,1.0,291.0,9.0,1.0503,0.979667
White,9,Right,19,Female,Yes,English,B,293,0,4,4,0.0,0.0,1.0,1036.63,1.0,292.0,9.0,1.03986,0.908068
White,9,Right,19,Female,Yes,English,B,294,1,8,0,0.0,0.0,1.0,1492.64,1.0,293.0,9.0,1.07636,0.966536
White,9,Right,19,Female,Yes,English,B,295,1,4,8,0.0,0.0,1.0,1849.66,1.0,294.0,9.0,1.18511,0.972173
White,9,Right,19,Female,Yes,English,B,296,0,8,8,180.0,1.0,1.0,1061.01,1.0,295.0,9.0,1.13038,0.975225
White,9,Right,19,Female,Yes,English,B,297,0,4,16,0.0,9999.0,0.0,9999.0,1.0,296.0,9.0,1.09252,0.855272
White,9,Right,19,Female,Yes,English,B,298,0,8,0,180.0,1.0,1.0,859.31,1.0,297.0,9.0,1.10334,0.897959
White,9,Right,19,Female,Yes,English,B,299,0,8,16,0.0,0.0,1.0,994.98,1.0,298.0,9.0,1.08904,0.950822
White,9,Right,19,Female,Yes,English,B,300,0,0,8,180.0,1.0,1.0,991.117,1.0,299.0,9.0,1.02874,0.818872
White,9,Right,19,Female,Yes,English,B,301,1,0,8,0.0,0.0,1.0,774.491,1.0,300.0,9.0,1.04394,0.946413
White,9,Right,19,Female,Yes,English,B,302,1,4,4,0.0,0.0,1.0,1396.67,1.0,301.0,9.0,1.09358,0.87775
White,9,Right,19,Female,Yes,English,B,303,1,0,4,180.0,1.0,1.0,1000.12,1.0,302.0,9.0,1.16119,0.93475
White,9,Right,19,Female,Yes,English,B,304,1,4,16,0.0,0.0,1.0,651.111,1.0,303.0,9.0,1.14187,0.964914
White,9,Right,19,Female,Yes,English,B,305,1,8,16,180.0,1.0,1.0,942.257,1.0,304.0,9.0,1.10811,0.889252
White,9,Right,19,Female,Yes,English,B,306,1,0,0,180.0,1.0,1.0,852.195,1.0,305.0,9.0,1.0995,0.890386
White,9,Right,19,Female,Yes,English,B,307,1,16,16,180.0,1.0,1.0,1265.43,1.0,306.0,9.0,1.16495,0.943813
White,9,Right,19,Female,Yes,English,B,308,0,8,4,180.0,1.0,1.0,969.631,1.0,307.0,9.0,1.18678,0.96385
White,9,Right,19,Female,Yes,English,B,309,1,0,16,0.0,0.0,1.0,694.298,1.0,308.0,9.0,1.11654,0.922287
White,9,Right,19,Female,Yes,English,B,310,0,16,16,180.0,1.0,1.0,671.293,1.0,309.0,9.0,1.10136,0.810594
White,9,Right,19,Female,Yes,English,B,311,1,8,8,0.0,0.0,1.0,1371.55,1.0,310.0,9.0,1.007,0.921449
White,9,Right,19,Female,Yes,English,B,312,0,4,8,180.0,1.0,1.0,1211.11,1.0,311.0,9.0,1.11265,0.94313
White,9,Right,19,Female,Yes,English,B,313,1,4,0,180.0,1.0,1.0,902.325,1.0,312.0,9.0,1.02601,0.981827
White,9,Right,19,Female,Yes,English,B,314,0,0,4,180.0,1.0,1.0,641.968,1.0,313.0,9.0,1.06549,0.800791
White,9,Right,19,Female,Yes,English,B,315,0,16,0,180.0,1.0,1.0,876.673,1.0,314.0,9.0,1.1698,0.870451
White,9,Right,19,Female,Yes,English,B,316,1,16,8,0.0,0.0,1.0,712.734,1.0,315.0,9.0,1.15117,0.88382
White,9,Right,19,Female,Yes,English,B,317,1,8,4,180.0,1.0,1.0,1057.17,1.0,316.0,9.0,1.16021,0.84356
White,9,Right,19,Female,Yes,English,B,318,0,16,4,0.0,0.0,1.0,1067.6,1.0,317.0,9.0,1.14976,0.832791
White,9,Right,19,Female,Yes,English,B,319,0,16,8,180.0,1.0,1.0,764.712,1.0,318.0,9.0,1.03276,0.925617
White,9,Right,19,Female,Yes,English,B,320,1,16,0,0.0,0.0,1.0,673.67,1.0,319.0,9.0,1.0195,0.891887
White,9,Right,19,Female,Yes,English,B,321,0,0,0,180.0,1.0,1.0,792.095,1.0,320.0,10.0,1.02281,0.878955
White,9,Right,19,Female,Yes,English,B,322,1,0,16,0.0,0.0,1.0,773.018,1.0,321.0,10.0,1.04568,0.86435
White,9,Right,19,Female,Yes,English,B,323,1,8,4,0.0,0.0,1.0,838.393,1.0,322.0,10.0,1.17889,0.950953
White,9,Right,19,Female,Yes,English,B,324,0,8,0,180.0,1.0,1.0,1195.24,1.0,323.0,10.0,1.05721,0.868866
White,9,Right,19,Female,Yes,English,B,325,1,8,16,0.0,0.0,1.0,698.504,1.0,324.0,10.0,1.00058,0.837683
White,9,Right,19,Female,Yes,English,B,326,0,4,4,0.0,0.0,1.0,839.527,1.0,325.0,10.0,1.09804,0.99021
White,9,Right,19,Female,Yes,English,B,327,0,4,16,180.0,1.0,1.0,1248.61,1.0,326.0,10.0,1.10634,0.846014
White,9,Right,19,Female,Yes,English,B,328,1,0,0,0.0,0.0,1.0,950.073,1.0,327.0,10.0,1.13719,0.81213
White,9,Right,19,Female,Yes,English,B,329,0,4,8,0.0,0.0,1.0,880.669,1.0,328.0,10.0,1.16391,0.879104
White,9,Right,19,Female,Yes,English,B,330,0,8,8,180.0,1.0,1.0,1296.69,1.0,329.0,10.0,1.10854,0.98426
White,9,Right,19,Female,Yes,English,B,331,1,0,8,0.0,0.0,1.0,831.101,1.0,330.0,10.0,1.06928,0.957137
White,9,Right,19,Female,Yes,English,B,332,1,16,0,0.0,0.0,1.0,1224.62,1.0,331.0,10.0,1.16072,0.872895
White,9,Right,19,Female,Yes,English,B,333,0,4,0,0.0,0.0,1.0,1022.88,1.0,332.0,10.0,1.10619,0.874304
White,9,Right,19,Female,Yes,English,B,334,0,0,16,180.0,1.0,1.0,1016.74,1.0,333.0,10.0,1.15876,0.996009
White,9,Right,19,Female,Yes,English,B,335,1,4,8,180.0,1.0,1.0,1289.9,1.0,334.0,10.0,1.18111,0.926212
White,9,Right,19,Female,Yes,English,B,336,0,16,16,180.0,1.0,1.0,1652.25,1.0,335.0,10.0,1.0897,0.827638
White,9,Right,19,Female,Yes,English,B,337,0,8,4,0.0,0.0,1.0,998.254,1.0,336.0,10.0,1.09964,0.950399
White,9,Right,19,Female,Yes,English,B,338,0,16,4,180.0,1.0,1.0,883.993,1.0,337.0,10.0,1.07295,0.910383
White,9,Right,19,Female,Yes,English,B,339,0,16,8,180.0,1.0,1.0,1255.0,1.0,338.0,10.0,1.02946,0.915599
White,9,Right,19,Female,Yes,English,B,340,0,8,16,180.0,1.0,1.0,1121.13,1.0,339.0,10.0,1.16632,0.960732
White,9,Right,19,Female,Yes,English,B,341,1,8,8,180.0,1.0,1.0,799.135,1.0,340.0,10.0,1.05709,0.977563
White,9,Right,19,Female,Yes,English,B,342,1,16,16,0.0,0.0,1.0,832.785,1.0,341.0,10.0,1.18781,0.824015
White,9,Right,19,Female,Yes,English,B,343,1,4,0,0.0,0.0,1.0,1273.31,1.0,342.0,10.0,1.08472,0.843205
White,9,Right,19,Female,Yes,English,B,344,1,16,8,180.0,1.0,1.0,887.479,1.0,343.0,10.0,1.01284,0.91766
White,9,Right,19,Female,Yes,English,B,345,0,0,4,0.0,0.0,1.0,911.661,1.0,344.0,10.0,1.07216,0.802879
White,9,Right,19,Female,Yes,English,B,346,1,8,0,0.0,0.0,1.0,815.65,1.0,345.0,10.0,1.09379,0.908609
White,9,Right,19,Female,Yes,English,B,347,0,16,0,180.0,1.0,1.0,1201.22,1.0,346.0,10.0,1.00497,0.808574
White,9,Right,19,Female,Yes,English,B,348,1,4,16,0.0,0.0,1.0,805.244,1.0,347.0,10.0,1.15363,0.974765
White,9,Right,19,Female,Yes,English,B,349,1,0,4,0.0,0.0,1.0,700.137,1.0,348.0,10.0,1.05956,0.820905
White,9,Right,19,Female,Yes,English,B,350,1,4,4,180.0,1.0,1.0,902.478,1.0,349.0,10.0,1.04098,0.841503
White,9,Right,19,Female,Yes,English,B,351,0,0,8,180.0,1.0,1.0,1199.13,1.0,350.0,10.0,1.08074,0.938002
White,9,Right,19,Female,Yes,English,B,352,1,16,4,180.0,1.0,1.0,1200.2,1.0,351.0,10.0,1.02735,0.946112
White,9,Right,19,Female,Yes,English,B,353,1,16,0,180.0,1.0,1.0,1006.05,1.0,352.0,11.0,1.12659,0.85737
White,9,Right,19,Female,Yes,English,B,354,1,16,16,0.0,0.0,1.0,1556.11,1.0,353.0,11.0,1.03774,0.848719
White,9,Right,19,Female,Yes,English,B,355,0,8,16,180.0,1.0,1.0,737.909,1.0,354.0,11.0,1.03108,0.819302
White,9,Right,19,Female,Yes,English,B,356,0,0,16,180.0,1.0,1.0,649.794,1.0,355.0,11.0,1.14761,0.81579
White,9,Right,19,Female,Yes,English,B,357,0,0,8,0.0,0.0,1.0,737.618,1.0,356.0,11.0,1.10529,0.984126
White,9,Right,19,Female,Yes,English,B,358,0,4,0,180.0,1.0,1.0,739.529,1.0,357.0,11.0,1.17757,0.896205
White,9,Right,19,Female,Yes,English,B,359,1,8,16,0.0,0.0,1.0,625.533,1.0,358.0,11.0,1.13906,0.902653
White,9,Right,19,Female,Yes,English,B,360,0,8,8,180.0,1.0,1.0,847.121,1.0,359.0,11.0,1.04053,0.962412
White,9,Right,19,Female,Yes,English,B,361,1,0,0,0.0,0.0,1.0,827.688,1.0,360.0,11.0,1.13938,0.92858
White,9,Right,19,Female,Yes,English,B,362,0,16,0,0.0,0.0,1.0,1146.09,1.0,361.0,11.0,1.13673,0.800328
White,9,Right,19,Female,Yes,English,B,363,0,4,8,180.0,1.0,1.0,1092.83,1.0,362.0,11.0,1.19514,0.801485
White,9,Right,19,Female,Yes,English,B,364,0,4,4,0.0,0.0,1.0,859.659,1.0,363.0,11.0,1.11439,0.89677
White,9,Right,19,Female,Yes,English,B,365,0,16,4,0.0,0.0,1.0,1361.72,1.0,364.0,11.0,1.15336,0.959998
White,9,Right,19,Female,Yes,English,B,366,0,0,0,180.0,1.0,1.0,771.878,1.0,365.0,11.0,1.17727,0.983921
White,9,Right,19,Female,Yes,English,B,367,0,4,16,180.0,1.0,1.0,1275.79,1.0,366.0,11.0,1.06686,0.923225
White,9,Right,19,Female,Yes,English,B,368,1,8,4,180.0,1.0,1.0,908.44,1.0,367.0,11.0,1.16285,0.984559
White,9,Right,19,Female,Yes,English,B,369,0,0,4,180.0,1.0,1.0,783.644,1.0,368.0,11.0,1.09957,0.842269
White,9,Right,19,Female,Yes,English,B,370,1,4,8,180.0,1.0,1.0,1268.41,1.0,369.0,11.0,1.09064,0.99948
White,9,Right,19,Female,Yes,English,B,371,1,8,0,0.0,0.0,1.0,1044.9,1.0,370.0,11.0,1.02215,0.909779
White,9,Right,19,Female,Yes,English,B,372,0,8,0,0.0,0.0,1.0,704.943,1.0,371.0,11.0,1.04959,0.881389
White,9,Right,19,Female,Yes,English,B,373,1,16,4,0.0,0.0,1.0,1000.48,1.0,372.0,11.0,1.01525,0.845291
White,9,Right,19,Female,Yes,English,B,374,1,0,16,180.0,1.0,1.0,731.38,1.0,373.0,11.0,1.17284,0.916939
White,9,Right,19,Female,Yes,English,B,375,1,0,8,0.0,0.0,1.0,1445.29,1.0,374.0,11.0,1.00293,0.831762
White,9,Right,19,Female,Yes,English,B,376,0,16,8,180.0,1.0,1.0,1026.03,1.0,375.0,11.0,1.1538,0.862417
White,9,Right,19,Female,Yes,English,B,377,0,16,16,0.0,0.0,1.0,2102.95,1.0,376.0,11.0,1.16288,0.932047
White,9,Right,19,Female,Yes,English,B,378,1,4,4,0.0,0.0,1.0,1004.14,1.0,377.0,11.0,1.06644,0.833182
White,9,Right,19,Female,Yes,English,B,379,1,4,0,0.0,0.0,1.0,912.796,1.0,378.0,11.0,1.07245,0.910738
White,9,Right,19,Female,Yes,English,B,380,1,16,8,0.0,0.0,1.0,782.759,1.0,379.0,11.0,1.06266,0.844386
White,9,Right,19,Female,Yes,English,B,381,1,8,8,180.0,1.0,1.0,886.264,1.0,380.0,11.0,1.17056,0.818866
White,9,Right,19,Female,Yes,English,B,382,1,0,4,180.0,1.0,1.0,635.005,1.0,381.0,11.0,1.12443,0.979013
White,9,Right,19,Female,Yes,English,B,383,1,4,16,180.0,1.0,1.0,490.894,1.0,382.0,11.0,1.07125,0.959204
White,9,Right,19,Female,Yes,English,B,384,0,8,4,0.0,0.0,1.0,863.512,1.0,383.0,11.0,1.09544,0.806485
White,9,Right,19,Female,Yes,English,B,385,0,8,0,180.0,1.0,1.0,1416.5,1.0,384.0,12.0,1.1922,0.879127
White,9,Right,19,Female,Yes,English,B,386,1,16,4,180.0,1.0,1.0,771.207,1.0,385.0,12.0,1.18243,0.856929
White,9,Right,19,Female,Yes,English,B,387,1,0,16,0.0,0.0,1.0,1119.47,1.0,386.0,12.0,1.08116,0.857372
White,9,Right,19,Female,Yes,English,B,388,0,8,16,180.0,1.0,1.0,618.018,1.0,387.0,12.0,1.02876,0.990818
White,9,Right,19,Female,Yes,English,B,389,1,4,0,180.0,1.0,1.0,950.325,1.0,388.0,12.0,1.13658,0.964293
White,9,Right,19,Female,Yes,English,B,390,0,0,4,0.0,0.0,1.0,713.809,1.0,389.0,12.0,1.06236,0.976966
White,9,Right,19,Female,Yes,English,B,391,1,16,0,180.0,1.0,1.0,1233.11,1.0,390.0,12.0,1.19211,0.883375
White,9,Right,19,Female,Yes,English,B,392,1,8,8,0.0,0.0,1.0,1056.63,1.0,391.0,12.0,1.03714,0.983738
White,9,Right,19,Female,Yes,English,B,393,0,0,16,0.0,0.0,1.0,724.682,1.0,392.0,12.0,1.14149,0.84265
White,9,Right,19,Female,Yes,English,B,394,1,4,4,180.0,1.0,1.0,862.429,1.0,393.0,12.0,1.11495,0.806357
White,9,Right,19,Female,Yes,English,B,395,1,0,8,180.0,1.0,1.0,829.858,1.0,394.0,12.0,1.13419,0.992184
White,9,Right,19,Female,Yes,English,B,396,0,16,8,180.0,1.0,1.0,1904.27,1.0,395.0,12.0,1.14612,0.883059
White,9,Right,19,Female,Yes,English,B,397,1,0,0,180.0,1.0,1.0,856.71,1.0,396.0,12.0,1.08154,0.916349
White,9,Right,19,Female,Yes,English,B,398,1,16,16,0.0,0.0,1.0,880.509,1.0,397.0,12.0,1.17064,0.858836
White,9,Right,19,Female,Yes,English,B,399,0,16,4,180.0,1.0,1.0,777.083,1.0,398.0,12.0,1.10172,0.991745
White,9,Right,19,Female,Yes,English,B,400,0,8,8,180.0,1.0,1.0,1024.86,1.0,399.0,12.0,1.13242,0.946274
White,9,Right,19,Female,Yes,English,B,401,0,4,16,0.0,0.0,1.0,820.701,1.0,400.0,12.0,1.06003,0.803856
White,9,Right,19,Female,Yes,English,B,402,0,0,0,0.0,0.0,1.0,747.25,1.0,401.0,12.0,1.15515,0.88031
White,9,Right,19,Female,Yes,English,B,403,1,8,0,0.0,0.0,1.0,1038.49,1.0,402.0,12.0,1.09438,0.947336
White,9,Right,19,Female,Yes,English,B,404,0,8,4,180.0,1.0,1.0,873.707,1.0,403.0,12.0,1.16602,0.917325
White,9,Right,19,Female,Yes,English,B,405,1,0,4,0.0,0.0,1.0,704.431,1.0,404.0,12.0,1.18094,0.834499
White,9,Right,19,Female,Yes,English,B,406,1,4,16,180.0,1.0,1.0,620.277,1.0,405.0,12.0,1.02152,0.928278
White,9,Right,19,Female,Yes,English,B,407,0,4,8,0.0,0.0,1.0,777.43,1.0,406.0,12.0,1.08316,0.912143
White,9,Right,19,Female,Yes,English,B,408,1,8,4,0.0,0.0,1.0,859.477,1.0,407.0,12.0,1.16753,0.932714
White,9,Right,19,Female,Yes,English,B,409,1,4,8,0.0,0.0,1.0,964.575,1.0,408.0,12.0,1.00461,0.917543
White,9,Right,19,Female,Yes,English,B,410,0,16,16,0.0,0.0,1.0,996.294,1.0,409.0,12.0,1.18418,0.986601
White,9,Right,19,Female,Yes,English,B,411,0,0,8,0.0,0.0,1.0,529.92,1.0,410.0,12.0,1.10894,0.844691
White,9,Right,19,Female,Yes,English,B,412,0,4,4,0.0,0.0,1.0,756.98,1.0,411.0,12.0,1.0987,0.952309
White,9,Right,19,Female,Yes,English,B,413,1,16,8,180.0,1.0,1.0,895.142,1.0,412.0,12.0,1.01107,0.825184
White,9,Right,19,Female,Yes,English,B,414,0,16,0,180.0,1.0,1.0,647.731,1.0,413.0,12.0,1.01399,0.898903
White,9,Right,19,Female,Yes,English,B,415,0,4,0,0.0,0.0,1.0,1064.03,1.0,414.0,12.0,1.16178,0.944088
White,9,Right,19,Female,Yes,English,B,416,1,8,16,180.0,1.0,1.0,1298.71,1.0,415.0,12.0,1.0206,0.84228
White,9,Right,19,Female,Yes,English,B,417,1,16,4,0.0,0.0,1.0,1153.46,1.0,416.0,13.0,1.00169,0.952182
White,9,Right,19,Female,Yes,English,B,418,0,0,0,180.0,1.0,1.0,685.629,1.0,417.0,13.0,1.01915,0.899687
White,9,Right,19,Female,Yes,English,B,419,0,4,16,0.0,0.0,1.0,697.668,1.0,418.0,13.0,1.01598,0.924942
White,9,Right,19,Female,Yes,English,B,420,1,8,0,0.0,0.0,1.0,655.033,1.0,419.0,13.0,1.14857,0.989212
White,9,Right,19,Female,Yes,English,B,421,0,8,8,0.0,0.0,1.0,831.97,1.0,420.0,13.0,1.07983,0.950329
White,9,Right,19,Female,Yes,English,B,422,1,4,0,180.0,1.0,1.0,939.87,1.0,421.0,13.0,1.18711,0.841415
White,9,Right,19,Female,Yes,English,B,423,0,4,0,0.0,0.0,1.0,1454.83,1.0,422.0,13.0,1.07544,0.954398
White,9,Right,19,Female,Yes,English,B,424,1,4,16,0.0,0.0,1.0,779.857,1.0,423.0,13.0,1.15981,0.856627
White,9,Right,19,Female,Yes,English,B,425,1,4,8,180.0,1.0,1.0,833.106,1.0,424.0,13.0,1.18907,0.960093
White,9,Right,19,Female,Yes,English,B,426,1,0,16,180.0,1.0,1.0,774.867,1.0,425.0,13.0,1.18343,0.944937
White,9,Right,19,Female,Yes,English,B,427,0,0,16,180.0,1.0,1.0,1371.77,1.0,426.0,13.0,1.0252,0.824011
White,9,Right,19,Female,Yes,English,B,428,1,0,4,0.0,0.0,1.0,811.89,1.0,427.0,13.0,1.16851,0.912846
White,9,Right,19,Female,Yes,English,B,429,0,16,16,180.0,1.0,1.0,1161.3,1.0,428.0,13.0,1.13024,0.807609
White,9,Right,19,Female,Yes,English,B,430,0,0,8,0.0,0.0,1.0,751.386,1.0,429.0,13.0,1.09379,0.851723
White,9,Right,19,Female,Yes,English,B,431,0,8,16,0.0,0.0,1.0,1709.9,1.0,430.0,13.0,1.03204,0.898342
White,9,Right,19,Female,Yes,English,B,432,0,4,8,0.0,0.0,1.0,690.968,1.0,431.0,13.0,1.0937,0.861704
White,9,Right,19,Female,Yes,English,B,433,0,16,4,0.0,0.0,1.0,1174.2,1.0,432.0,13.0,1.05287,0.858547
White,9,Right,19,Female,Yes,English,B,434,0,16,8,180.0,1.0,1.0,568.942,1.0,433.0,13.0,1.14551,0.979872
White,9,Right,19,Female,Yes,English,B,435,1,0,8,180.0,1.0,1.0,1129.98,1.0,434.0,13.0,1.08068,0.929248
White,9,Right,19,Female,Yes,English,B,436,0,16,0,0.0,0.0,1.0,788.473,1.0,435.0,13.0,1.13145,0.851569
White,9,Right,19,Female,Yes,English,B,437,1,0,0,180.0,1.0,1.0,714.695,1.0,436.0,13.0,1.06467,0.929552
White,9,Right,19,Female,Yes,English,B,438,1,8,8,180.0,1.0,1.0,876.473,1.0,437.0,13.0,1.05897,0.854052
White,9,Right,19,Female,Yes,English,B,439,0,8,0,180.0,1.0,1.0,882.146,1.0,438.0,13.0,1.10151,0.940003
White,9,Right,19,Female,Yes,English,B,440,0,0,4,180.0,1.0,1.0,645.027,1.0,439.0,13.0,1.0378,0.806788
White,9,Right,19,Female,Yes,English,B,441,1,4,4,180.0,1.0,1.0,964.12,1.0,440.0,13.0,1.08345,0.85948
White,9,Right,19,Female,Yes,English,B,442,1,8,4,180.0,1.0,1.0,1129.13,1.0,441.0,13.0,1.19742,0.986255
White,9,Right,19,Female,Yes,English,B,443,1,16,0,0.0,0.0,1.0,1041.45,1.0,442.0,13.0,1.07383,0.873248
White,9,Right,19,Female,Yes,English,B,444,0,8,4,0.0,0.0,1.0,1444.87,1.0,443.0,13.0,1.13018,0.803827
White,9,Right,19,Female,Yes,English,B,445,1,16,8,0.0,0.0,1.0,1281.4,1.0,444.0,13.0,1.11698,0.97492
White,9,Right,19,Female,Yes,English,B,446,1,16,16,180.0,1.0,1.0,875.669,1.0,445.0,13.0,1.03626,0.927239
White,9,Right,19,Female,Yes,English,B,447,0,4,4,180.0,1.0,1.0,757.144,1.0,446.0,13.0,1.11501,0.999096
White,9,Right,19,Female,Yes,English,B,448,1,8,16,0.0,0.0,1.0,1131.69,1.0,447.0,13.0,1.17601,0.931832
White,9,Right,19,Female,Yes,English,B,449,0,4,4,0.0,0.0,1.0,1100.74,1.0,448.0,14.0,1.1257,0.879732
White,9,Right,19,Female,Yes,English,B,450,0,16,4,0.0,0.0,1.0,681.195,1.0,449.0,14.0,1.04812,0.826483
White,9,Right,19,Female,Yes,English,B,451,1,4,0,0.0,0.0,1.0,829.838,1.0,450.0,14.0,1.01525,0.837835
White,9,Right,19,Female,Yes,English,B,452,0,8,4,180.0,1.0,1.0,1105.59,1.0,451.0,14.0,1.16461,0.837942
White,9,Right,19,Female,Yes,English,B,453,1,0,8,0.0,0.0,1.0,1144.37,1.0,452.0,14.0,1.16237,0.955876
White,9,Right,19,Female,Yes,English,B,454,1,8,16,180.0,1.0,1.0,1959.44,1.0,453.0,14.0,1.16171,0.831307
White,9,Right,19,Female,Yes,English,B,455,1,8,4,180.0,1.0,1.0,747.841,1.0,454.0,14.0,1.05024,0.945476
White,9,Right,19,Female,Yes,English,B,456,0,0,16,180.0,1.0,1.0,994.142,1.0,455.0,14.0,1.00679,0.961737
White,9,Right,19,Female,Yes,English,B,457,0,4,0,180.0,1.0,1.0,1214.64,1.0,456.0,14.0,1.18325,0.921793
White,9,Right,19,Female,Yes,English,B,458,0,4,8,0.0,0.0,1.0,654.14,1.0,457.0,14.0,1.05156,0.815566
White,9,Right,19,Female,Yes,English,B,459,1,16,16,0.0,0.0,1.0,831.415,1.0,458.0,14.0,1.09278,0.886825
White,9,Right,19,Female,Yes,English,B,460,1,0,4,180.0,1.0,1.0,840.598,1.0,459.0,14.0,1.05,0.834854
White,9,Right,19,Female,Yes,English,B,461,0,0,0,0.0,0.0,1.0,778.269,1.0,460.0,14.0,1.11286,0.834883
White,9,Right,19,Female,Yes,English,B,462,1,16,0,0.0,0.0,1.0,881.407,1.0,461.0,14.0,1.11158,0.851264
White,9,Right,19,Female,Yes,English,B,463,0,8,0,180.0,1.0,1.0,819.367,1.0,462.0,14.0,1.18118,0.945125
White,9,Right,19,Female,Yes,English,B,464,1,8,0,180.0,1.0,1.0,1345.65,1.0,463.0,14.0,1.02228,0.960289
White,9,Right,19,Female,Yes,English,B,465,0,0,4,180.0,1.0,1.0,596.273,1.0,464.0,14.0,1.19147,0.956223
White,9,Right,19,Female,Yes,English,B,466,0,8,8,0.0,0.0,1.0,742.81,1.0,465.0,14.0,1.07149,0.978775
White,9,Right,19,Female,Yes,English,B,467,1,4,16,180.0,1.0,1.0,1545.09,1.0,466.0,14.0,1.15966,0.869466
White,9,Right,19,Female,Yes,English,B,468,0,0,8,0.0,0.0,1.0,1032.03,1.0,467.0,14.0,1.15101,0.937505
White,9,Right,19,Female,Yes,English,B,469,1,0,0,0.0,0.0,1.0,843.991,1.0,468.0,14.0,1.16288,0.920975
White,9,Right,19,Female,Yes,English,B,470,1,16,4,180.0,1.0,1.0,658.378,1.0,469.0,14.0,1.12778,0.898868
White,9,Right,19,Female,Yes,English,B,471,1,4,8,0.0,0.0,1.0,723.458,1.0,470.0,14.0,1.08234,0.810044
White,9,Right,19,Female,Yes,English,B,472,0,16,8,180.0,1.0,1.0,1132.13,1.0,471.0,14.0,1.11221,0.90239
White,9,Right,19,Female,Yes,English,B,473,0,16,0,180.0,1.0,1.0,1057.52,1.0,472.0,14.0,1.167,0.863049
White,9,Right,19,Female,Yes,English,B,474,0,8,16,0.0,0.0,1.0,752.673,1.0,473.0,14.0,1.01608,0.853407
White,9,Right,19,Female,Yes,English,B,475,1,4,4,180.0,1.0,1.0,1203.35,1.0,474.0,14.0,1.13648,0.947474
White,9,Right,19,Female,Yes,English,B,476,1,16,8,0.0,0.0,1.0,1132.42,1.0,475.0,14.0,1.06962,0.841014
White,9,Right,19,Female,Yes,English,B,477,1,8,8,0.0,0.0,1.0,1100.02,1.0,476.0,14.0,1.06689,0.824565
White,9,Right,19,Female,Yes,English,B,478,0,16,16,180.0,1.0,1.0,1997.91,1.0,477.0,14.0,1.07112,0.861511
White,9,Right,19,Female,Yes,English,B,479,0,4,16,180.0,1.0,1.0,1769.46,1.0,478.0,14.0,1.18929,0.927646
White,9,Right,19,Female,Yes,English,B,480,1,0,16,0.0,0.0,1.0,722.675,1.0,479.0,14.0,1.1052,0.941883
White,9,Right,19,Female,Yes,English,B,481,1,4,16,0.0,0.0,1.0,818.982,1.0,480.0,15.0,1.05587,0.816477
White,9,Right,19,Female,Yes,English,B,482,0,0,4,180.0,1.0,1.0,934.532,1.0,481.0,15.0,1.19263,0.95906
White,9,Right,19,Female,Yes,English,B,483,1,4,0,180.0,1.0,1.0,512.377,1.0,482.0,15.0,1.04599,0.857542
White,9,Right,19,Female,Yes,English,B,484,1,8,4,180.0,1.0,1.0,988.393,1.0,483.0,15.0,1.12654,0.886876
White,9,Right,19,Female,Yes,English,B,485,1,16,0,0.0,0.0,1.0,889.98,1.0,484.0,15.0,1.05752,0.856055
White,9,Right,19,Female,Yes,English,B,486,1,16,4,180.0,1.0,1.0,657.826,1.0,485.0,15.0,1.19924,0.818484
White,9,Right,19,Female,Yes,English,B,487,1,16,16,180.0,1.0,1.0,780.457,1.0,486.0,15.0,1.05865,0.984614
White,9,Right,19,Female,Yes,English,B,488,0,4,4,0.0,0.0,1.0,959.437,1.0,487.0,15.0,1.03551,0.889604
White,9,Right,19,Female,Yes,English,B,489,0,16,8,0.0,0.0,1.0,1570.07,1.0,488.0,15.0,1.02792,0.907464
White,9,Right,19,Female,Yes,English,B,490,0,8,8,180.0,1.0,1.0,1025.8,1.0,489.0,15.0,1.14912,0.832671
White,9,Right,19,Female,Yes,English,B,491,0,16,0,180.0,1.0,1.0,675.271,1.0,490.0,15.0,1.19482,0.885194
White,9,Right,19,Female,Yes,English,B,492,0,0,8,180.0,1.0,1.0,859.665,1.0,491.0,15.0,1.19056,0.891223
White,9,Right,19,Female,Yes,English,B,493,0,0,16,0.0,0.0,1.0,890.817,1.0,492.0,15.0,1.02694,0.843665
White,9,Right,19,Female,Yes,English,B,494,1,0,4,180.0,1.0,1.0,933.023,1.0,493.0,15.0,1.19098,0.995961
White,9,Right,19,Female,Yes,English,B,495,0,4,0,180.0,1.0,1.0,701.768,1.0,494.0,15.0,1.10843,0.955597
White,9,Right,19,Female,Yes,English,B,496,0,8,16,180.0,1.0,1.0,965.651,1.0,495.0,15.0,1.02399,0.860349
White,9,Right,19,Female,Yes,English,B,497,0,8,0,180.0,1.0,1.0,599.476,1.0,496.0,15.0,1.17794,0.886045
White,9,Right,19,Female,Yes,English,B,498,1,0,16,0.0,0.0,1.0,929.144,1.0,497.0,15.0,1.13464,0.845131
White,9,Right,19,Female,Yes,English,B,499,1,0,8,0.0,0.0,1.0,802.931,1.0,498.0,15.0,1.12919,0.962825
White,9,Right,19,Female,Yes,English,B,500,1,4,4,0.0,0.0,1.0,1216.9,1.0,499.0,15.0,1.10832,0.801162
White,9,Right,19,Female,Yes,English,B,501,1,16,8,180.0,1.0,1.0,1095.78,1.0,500.0,15.0,1.14608,0.942682
White,9,Right,19,Female,Yes,English,B,502,1,4,8,0.0,0.0,1.0,732.854,1.0,501.0,15.0,1.06184,0.953634
White,9,Right,19,Female,Yes,English,B,503,0,8,4,0.0,0.0,1.0,748.814,1.0,502.0,15.0,1.17645,0.843633
White,9,Right,19,Female,Yes,English,B,504,1,8,8,0.0,0.0,1.0,953.054,1.0,503.0,15.0,1.11927,0.919121
White,9,Right,19,Female,Yes,English,B,505,1,0,0,0.0,0.0,1.0,691.953,1.0,504.0,15.0,1.13141,0.856209
White,9,Right,19,Female,Yes,English,B,506,0,0,0,0.0,0.0,1.0,577.433,1.0,505.0,15.0,1.04216,0.840378
White,9,Right,19,Female,Yes,English,B,507,0,4,8,180.0,1.0,1.0,687.569,1.0,506.0,15.0,1.14235,0.924405
White,9,Right,19,Female,Yes,English,B,508,0,4,16,0.0,0.0,1.0,748.296,1.0,507.0,15.0,1.00824,0.827394
White,9,Right,19,Female,Yes,English,B,509,0,16,4,0.0,0.0,1.0,718.435,1.0,508.0,15.0,1.13408,0.987811
White,9,Right,19,Female,Yes,English,B,510,0,16,16,180.0,1.0,1.0,878.382,1.0,509.0,15.0,1.0088,0.809792
White,9,Right,19,Female,Yes,English,B,511,1,8,16,180.0,1.0,1.0,826.703,1.0,510.0,15.0,1.02911,0.904209
White,9,Right,19,Female,Yes,English,B,512,1,8,0,0.0,0.0,1.0,670.846,1.0,511.0,15.0,1.00737,0.945104
White,9,Right,19,Female,Yes,English,B,513,0,0,16,0.0,0.0,1.0,882.235,1.0,512.0,16.0,1.12919,0.827057
White,9,Right,19,Female,Yes,English,B,514,1,0,16,0.0,0.0,1.0,1466.85,1.0,513.0,16.0,1.1342,0.902357
White,9,Right,19,Female,Yes,English,B,515,0,0,8,0.0,0.0,1.0,969.062,1.0,514.0,16.0,1.01115,0.96328
White,9,Right,19,Female,Yes,English,B,516,0,0,4,180.0,1.0,1.0,567.714,1.0,515.0,16.0,1.18846,0.839723
White,9,Right,19,Female,Yes,English,B,517,0,16,16,0.0,0.0,1.0,749.268,1.0,516.0,16.0,1.07023,0.98427
White,9,Right,19,Female,Yes,English,B,518,1,8,4,0.0,0.0,1.0,1062.06,1.0,517.0,16.0,1.15673,0.811473
White,9,Right,19,Female,Yes,English,B,519,0,4,16,180.0,1.0,1.0,954.611,1.0,518.0,16.0,1.19844,0.978849
White,9,Right,19,Female,Yes,English,B,520,1,0,0,180.0,1.0,1.0,625.144,1.0,519.0,16.0,1.0792,0.874095
White,9,Right,19,Female,Yes,English,B,521,0,0,0,180.0,1.0,1.0,562.771,1.0,520.0,16.0,1.18609,0.875695
White,9,Right,19,Female,Yes,English,B,522,0,8,8,180.0,1.0,1.0,620.562,1.0,521.0,16.0,1.00451,0.880396
White,9,Right,19,Female,Yes,English,B,523,0,16,4,180.0,1.0,1.0,1400.89,1.0,522.0,16.0,1.18785,0.810385
White,9,Right,19,Female,Yes,English,B,524,0,4,4,180.0,1.0,1.0,791.11,1.0,523.0,16.0,1.11589,0.958847
White,9,Right,19,Female,Yes,English,B,525,1,8,0,180.0,1.0,1.0,2137.52,1.0,524.0,16.0,1.04599,0.807381
White,9,Right,19,Female,Yes,English,B,526,1,4,8,180.0,1.0,1.0,854.122,1.0,525.0,16.0,1.13273,0.951859
White,9,Right,19,Female,Yes,English,B,527,1,8,8,180.0,1.0,1.0,947.476,1.0,526.0,16.0,1.05783,0.822795
White,9,Right,19,Female,Yes,English,B,528,1,8,16,0.0,0.0,1.0,1616.69,1.0,527.0,16.0,1.19057,0.839272
White,9,Right,19,Female,Yes,English,B,529,0,8,0,180.0,1.0,1.0,866.057,1.0,528.0,16.0,1.19312,0.947292
White,9,Right,19,Female,Yes,English,B,530,0,4,8,0.0,0.0,1.0,1022.48,1.0,529.0,16.0,1.17691,0.957943
White,9,Right,19,Female,Yes,English,B,531,1,0,8,0.0,0.0,1.0,1809.57,1.0,530.0,16.0,1.02034,0.981528
White,9,Right,19,Female,Yes,English,B,532,1,4,0,180.0,1.0,1.0,679.071,1.0,531.0,16.0,1.05852,0.832809
White,9,Right,19,Female,Yes,English,B,533,0,8,16,180.0,1.0,1.0,725.612,1.0,532.0,16.0,1.19947,0.966622
White,9,Right,19,Female,Yes,English,B,534,1,0,4,0.0,0.0,1.0,1047.8,1.0,533.0,16.0,1.07491,0.873302
White,9,Right,19,Female,Yes,English,B,535,0,16,0,0.0,0.0,1.0,1563.36,1.0,534.0,16.0,1.16616,0.89493
White,9,Right,19,Female,Yes,English,B,536,0,8,4,180.0,1.0,1.0,771.68,1.0,535.0,16.0,1.15896,0.822918
White,9,Right,19,Female,Yes,English,B,537,1,4,16,0.0,0.0,1.0,843.451,1.0,536.0,16.0,1.15294,0.882185
White,9,Right,19,Female,Yes,English,B,538,0,4,0,0.0,0.0,1.0,533.773,1.0,537.0,16.0,1.12457,0.962882
White,9,Right,19,Female,Yes,English,B,539,1,16,4,0.0,0.0,1.0,1194.82,1.0,538.0,16.0,1.05836,0.970221
White,9,Right,19,Female,Yes,English,B,540,0,16,8,0.0,0.0,1.0,840.118,1.0,539.0,16.0,1.19347,0.889362
White,9,Right,19,Female,Yes,English,B,541,1,16,8,180.0,1.0,1.0,1000.02,1.0,540.0,16.0,1.0666,0.884298
White,9,Right,19,Female,Yes,English,B,542,1,16,0,180.0,1.0,1.0,548.805,1.0,541.0,16.0,1.15883,0.81108
White,9,Right,19,Female,Yes,English,B,543,1,16,16,0.0,0.0,1.0,889.085,1.0,542.0,16.0,1.0138,0.836269
White,9,Right,19,Female,Yes,English,B,544,1,4,4,0.0,0.0,1.0,664.67,1.0,543.0,16.0,1.19249,0.917504
White,9,Right,19,Female,Yes,English,B,545,1,8,4,180.0,1.0,1.0,646.595,1.0,544.0,17.0,1.07628,0.831504
White,9,Right,19,Female,Yes,English,B,546,0,4,0,180.0,1.0,1.0,751.329,1.0,545.0,17.0,1.03788,0.954748
White,9,Right,19,Female,Yes,English,B,547,1,16,16,180.0,1.0,1.0,1838.05,1.0,546.0,17.0,1.06128,0.810419
White,9,Right,19,Female,Yes,English,B,548,1,0,0,0.0,0.0,1.0,766.291,1.0,547.0,17.0,1.01394,0.999268
White,9,Right,19,Female,Yes,English,B,549,0,16,8,180.0,1.0,1.0,1007.69,1.0,548.0,17.0,1.13015,0.908715
White,9,Right,19,Female,Yes,English,B,550,0,4,8,0.0,0.0,1.0,824.696,1.0,549.0,17.0,1.04894,0.89799
White,9,Right,19,Female,Yes,English,B,551,1,4,16,0.0,0.0,1.0,757.939,1.0,550.0,17.0,1.17975,0.955107
White,9,Right,19,Female,Yes,English,B,552,1,8,0,0.0,0.0,1.0,724.857,1.0,551.0,17.0,1.1054,0.952225
White,9,Right,19,Female,Yes,English,B,553,0,0,8,180.0,1.0,1.0,697.296,1.0,552.0,17.0,1.01597,0.929588
White,9,Right,19,Female,Yes,English,B,554,1,8,8,180.0,1.0,1.0,1052.36,1.0,553.0,17.0,1.04465,0.883916
White,9,Right,19,Female,Yes,English,B,555,0,16,4,180.0,1.0,1.0,1326.02,1.0,554.0,17.0,1.16138,0.919672
White,9,Right,19,Female,Yes,English,B,556,1,16,4,180.0,1.0,1.0,1009.29,1.0,555.0,17.0,1.07046,0.953471
White,9,Right,19,Female,Yes,English,B,557,0,8,16,180.0,1.0,1.0,2284.13,1.0,556.0,17.0,1.16649,0.978536
White,9,Right,19,Female,Yes,English,B,558,1,16,0,180.0,1.0,1.0,868.48,1.0,557.0,17.0,1.09037,0.950128
White,9,Right,19,Female,Yes,English,B,559,0,16,16,180.0,1.0,1.0,573.514,1.0,558.0,17.0,1.00023,0.808127
White,9,Right,19,Female,Yes,English,B,560,1,4,4,0.0,0.0,1.0,743.884,1.0,559.0,17.0,1.05197,0.822659
White,9,Right,19,Female,Yes,English,B,561,0,0,16,180.0,1.0,1.0,765.079,1.0,560.0,17.0,1.04336,0.897652
White,9,Right,19,Female,Yes,English,B,562,1,16,8,0.0,0.0,1.0,754.482,1.0,561.0,17.0,1.07991,0.883515
White,9,Right,19,Female,Yes,English,B,563,0,0,4,0.0,0.0,1.0,810.128,1.0,562.0,17.0,1.12316,0.898425
White,9,Right,19,Female,Yes,English,B,564,0,0,0,0.0,0.0,1.0,705.801,1.0,563.0,17.0,1.1378,0.994312
White,9,Right,19,Female,Yes,English,B,565,1,4,0,180.0,1.0,1.0,1144.68,1.0,564.0,17.0,1.04131,0.900738
White,9,Right,19,Female,Yes,English,B,566,0,8,0,0.0,0.0,1.0,869.103,1.0,565.0,17.0,1.03068,0.934231
White,9,Right,19,Female,Yes,English,B,567,0,8,4,0.0,0.0,1.0,834.766,1.0,566.0,17.0,1.02601,0.807808
White,9,Right,19,Female,Yes,English,B,568,1,8,16,0.0,0.0,1.0,1448.49,1.0,567.0,17.0,1.13376,0.80724
White,9,Right,19,Female,Yes,English,B,569,0,4,16,0.0,0.0,1.0,641.165,1.0,568.0,17.0,1.05384,0.829978
White,9,Right,19,Female,Yes,English,B,570,0,16,0,0.0,0.0,1.0,560.627,1.0,569.0,17.0,1.01618,0.862522
White,9,Right,19,Female,Yes,English,B,571,0,8,8,180.0,1.0,1.0,1145.25,1.0,570.0,17.0,1.05993,0.945249
White,9,Right,19,Female,Yes,English,B,572,1,0,16,0.0,0.0,1.0,978.143,1.0,571.0,17.0,1.13269,0.976298
White,9,Right,19,Female,Yes,English,B,573,1,4,8,0.0,0.0,1.0,693.332,1.0,572.0,17.0,1.04629,0.990791
White,9,Right,19,Female,Yes,English,B,574,0,4,4,0.0,0.0,1.0,819.589,1.0,573.0,17.0,1.08684,0.809707
White,9,Right,19,Female,Yes,English,B,575,1,0,8,180.0,1.0,1.0,941.134,1.0,574.0,17.0,1.08284,0.965928
White,9,Right,19,Female,Yes,English,B,576,1,0,4,180.0,1.0,1.0,970.402,1.0,575.0,17.0,1.18923,0.926707
White,9,Right,19,Female,Yes,English,B,577,0,8,0,180.0,1.0,1.0,714.925,1.0,576.0,18.0,1.14354,0.963079
White,9,Right,19,Female,Yes,English,B,578,1,8,8,0.0,0.0,1.0,937.596,1.0,577.0,18.0,1.13495,0.901641
White,9,Right,19,Female,Yes,English,B,579,0,4,0,180.0,1.0,1.0,835.989,1.0,578.0,18.0,1.12766,0.843332
White,9,Right,19,Female,Yes,English,B,580,0,8,8,0.0,0.0,1.0,2006.29,1.0,579.0,18.0,1.15723,0.841111
White,9,Right,19,Female,Yes,English,B,581,0,16,8,180.0,1.0,1.0,685.808,1.0,580.0,18.0,1.11268,0.838674
White,9,Right,19,Female,Yes,English,B,582,1,8,4,0.0,0.0,1.0,842.541,1.0,581.0,18.0,1.10645,0.828561
White,9,Right,19,Female,Yes,English,B,583,1,4,0,0.0,0.0,1.0,529.024,1.0,582.0,18.0,1.14149,0.969813
White,9,Right,19,Female,Yes,English,B,584,1,8,16,180.0,1.0,1.0,766.246,1.0,583.0,18.0,1.15581,0.960935
White,9,Right,19,Female,Yes,English,B,585,1,4,16,180.0,1.0,1.0,1252.28,1.0,584.0,18.0,1.02039,0.85328
White,9,Right,19,Female,Yes,English,B,586,1,4,8,180.0,1.0,1.0,1071.33,1.0,585.0,18.0,1.15385,0.978763
White,9,Right,19,Female,Yes,English,B,587,1,0,0,180.0,1.0,1.0,697.033,1.0,586.0,18.0,1.04282,0.999123
White,9,Right,19,Female,Yes,English,B,588,0,0,16,0.0,0.0,1.0,855.195,1.0,587.0,18.0,1.09755,0.810061
White,9,Right,19,Female,Yes,English,B,589,0,4,8,180.0,1.0,1.0,972.432,1.0,588.0,18.0,1.10917,0.902972
White,9,Right,19,Female,Yes,English,B,590,0,0,4,180.0,1.0,1.0,964.626,1.0,589.0,18.0,1.10392,0.978145
White,9,Right,19,Female,Yes,English,B,591,0,16,0,0.0,0.0,1.0,883.502,1.0,590.0,18.0,1.15316,0.914064
White,9,Right,19,Female,Yes,English,B,592,0,16,4,0.0,0.0,1.0,813.745,1.0,591.0,18.0,1.05655,0.993652
White,9,Right,19,Female,Yes,English,B,593,1,16,8,180.0,1.0,1.0,1615.74,1.0,592.0,18.0,1.1807,0.951029
White,9,Right,19,Female,Yes,English,B,594,1,4,4,0.0,0.0,1.0,772.266,1.0,593.0,18.0,1.13835,0.87508
White,9,Right,19,Female,Yes,English,B,595,1,0,16,180.0,1.0,1.0,863.362,1.0,594.0,18.0,1.03427,0.992703
White,9,Right,19,Female,Yes,English,B,596,0,8,4,0.0,0.0,1.0,1038.85,1.0,595.0,18.0,1.01505,0.811405
White,9,Right,19,Female,Yes,English,B,597,1,8,0,180.0,1.0,1.0,1057.97,1.0,596.0,18.0,1.04955,0.994993
White,9,Right,19,Female,Yes,English,B,598,0,4,16,0.0,0.0,1.0,1321.72,1.0,597.0,18.0,1.0539,0.950671
White,9,Right,19,Female,Yes,English,B,599,0,4,4,0.0,0.0,1.0,960.897,1.0,598.0,18.0,1.09767,0.977321
White,9,Right,19,Female,Yes,English,B,600,1,16,16,0.0,0.0,1.0,1160.02,1.0,599.0,18.0,1.16424,0.973606
White,9,Right,19,Female,Yes,English,B,601,0,8,16,0.0,0.0,1.0,642.166,1.0,600.0,18.0,1.02946,0.805971
White,9,Right,19,Female,Yes,English,B,602,0,0,8,0.0,0.0,1.0,839.136,1.0,601.0,18.0,1.19972,0.970635
White,9,Right,19,Female,Yes,English,B,603,0,16,16,0.0,0.0,1.0,733.791,1.0,602.0,18.0,1.17854,0.861621
White,9,Right,19,Female,Yes,English,B,604,1,0,4,180.0,1.0,1.0,928.298,1.0,603.0,18.0,1.14442,0.997909
White,9,Right,19,Female,Yes,English,B,605,1,16,0,180.0,1.0,1.0,1148.02,1.0,604.0,18.0,1.09257,0.946907
White,9,Right,19,Female,Yes,English,B,606,1,0,8,180.0,1.0,1.0,579.698,1.0,605.0,18.0,1.08121,0.943408
White,9,Right,19,Female,Yes,English,B,607,1,16,4,0.0,0.0,1.0,1315.92,1.0,606.0,18.0,1.01709,0.931024
White,9,Right,19,Female,Yes,English,B,608,0,0,0,180.0,1.0,1.0,599.284,1.0,607.0,18.0,1.16709,0.832719
White,9,Right,19,Female,Yes,English,B,609,0,0,4,180.0,1.0,1.0,1047.94,1.0,608.0,19.0,1.06687,0.957485
White,9,Right,19,Female,Yes,English,B,610,0,4,0,0.0,0.0,1.0,750.188,1.0,609.0,19.0,1.03055,0.936513
White,9,Right,19,Female,Yes,English,B,611,0,8,4,0.0,0.0,1.0,893.153,1.0,610.0,19.0,1.08447,0.857894
White,9,Right,19,Female,Yes,English,B,612,1,4,0,0.0,0.0,1.0,596.128,1.0,611.0,19.0,1.17729,0.91033
White,9,Right,19,Female,Yes,English,B,613,0,4,8,180.0,1.0,1.0,675.0,1.0,612.0,19.0,1.11279,0.805186
White,9,Right,19,Female,Yes,English,B,614,0,16,8,0.0,0.0,1.0,847.094,1.0,613.0,19.0,1.0448,0.951253
White,9,Right,19,Female,Yes,English,B,615,0,0,0,0.0,0.0,1.0,628.812,1.0,614.0,19.0,1.07789,0.834543
White,9,Right,19,Female,Yes,English,B,616,1,4,4,0.0,0.0,1.0,503.102,1.0,615.0,19.0,1.07794,0.90505
White,9,Right,19,Female,Yes,English,B,617,0,16,0,180.0,1.0,1.0,865.485,1.0,616.0,19.0,1.06128,0.975811
White,9,Right,19,Female,Yes,English,B,618,0,4,4,180.0,1.0,1.0,1179.25,1.0,617.0,19.0,1.11263,0.951026
White,9,Right,19,Female,Yes,English,B,619,0,8,8,0.0,0.0,1.0,943.57,1.0,618.0,19.0,1.10914,0.815511
White,9,Right,19,Female,Yes,English,B,620,0,16,16,0.0,0.0,1.0,594.37,1.0,619.0,19.0,1.01994,0.854909
White,9,Right,19,Female,Yes,English,B,621,1,8,4,180.0,1.0,1.0,829.068,1.0,620.0,19.0,1.18938,0.913886
White,9,Right,19,Female,Yes,English,B,622,0,4,16,180.0,1.0,1.0,1213.66,1.0,621.0,19.0,1.05725,0.835772
White,9,Right,19,Female,Yes,English,B,623,1,4,16,180.0,1.0,1.0,818.425,1.0,622.0,19.0,1.15514,0.894305
White,9,Right,19,Female,Yes,English,B,624,0,8,16,0.0,0.0,1.0,661.208,1.0,623.0,19.0,1.10277,0.842336
White,9,Right,19,Female,Yes,English,B,625,0,0,16,0.0,0.0,1.0,854.86,1.0,624.0,19.0,1.1777,0.959711
White,9,Right,19,Female,Yes,English,B,626,1,0,8,180.0,1.0,1.0,767.695,1.0,625.0,19.0,1.18743,0.946406
White,9,Right,19,Female,Yes,English,B,627,1,8,8,0.0,0.0,1.0,737.046,1.0,626.0,19.0,1.04702,0.847953
White,9,Right,19,Female,Yes,English,B,628,1,16,0,180.0,1.0,1.0,857.089,1.0,627.0,19.0,1.16211,0.957539
White,9,Right,19,Female,Yes,English,B,629,1,0,0,180.0,1.0,1.0,674.872,1.0,628.0,19.0,1.00075,0.817714
White,9,Right,19,Female,Yes,English,B,630,1,4,8,0.0,0.0,1.0,744.548,1.0,629.0,19.0,1.14323,0.89558
White,9,Right,19,Female,Yes,English,B,631,1,16,16,0.0,0.0,1.0,1258.51,1.0,630.0,19.0,1.19083,0.885682
White,9,Right,19,Female,Yes,English,B,632,1,8,16,180.0,1.0,1.0,552.534,1.0,631.0,19.0,1.17334,0.973543
White,9,Right,19,Female,Yes,English,B,633,1,0,16,180.0,1.0,1.0,808.619,1.0,632.0,19.0,1.14435,0.869993
White,9,Right,19,Female,Yes,English,B,634,0,8,0,180.0,1.0,1.0,598.019,1.0,633.0,19.0,1.05847,0.869567
White,9,Right,19,Female,Yes,English,B,635,0,16,4,0.0,0.0,1.0,987.448,1.0,634.0,19.0,1.04521,0.928685
White,9,Right,19,Female,Yes,English,B,636,1,0,4,0.0,0.0,1.0,896.501,1.0,635.0,19.0,1.10698,0.816054
White,9,Right,19,Female,Yes,English,B,637,1,8,0,180.0,1.0,1.0,779.152,1.0,636.0,19.0,1.19571,0.919211
White,9,Right,19,Female,Yes,English,B,638,1,16,4,0.0,0.0,1.0,909.747,1.0,637.0,19.0,1.19965,0.980797
White,9,Right,19,Female,Yes,English,B,639,1,16,8,180.0,1.0,1.0,752.266,1.0,638.0,19.0,1.14503,0.884885
White,9,Right,19,Female,Yes,English,B,640,0,0,8,180.0,1.0,1.0,850.894,1.0,639.0,19.0,1.19343,0.874366
White,9,Right,19,Female,Yes,English,B,641,1,8,16,180.0,1.0,1.0,887.681,1.0,640.0,20.0,1.05822,0.917504
White,9,Right,19,Female,Yes,English,B,642,0,8,4,180.0,1.0,1.0,1328.87,1.0,641.0,20.0,1.14842,0.951959
White,9,Right,19,Female,Yes,English,B,643,0,4,8,180.0,1.0,1.0,467.683,1.0,642.0,20.0,1.04905,0.902838
White,9,Right,19,Female,Yes,English,B,644,1,0,0,0.0,0.0,1.0,668.395,1.0,643.0,20.0,1.10804,0.969574
White,9,Right,19,Female,Yes,English,B,645,0,0,8,180.0,1.0,1.0,806.369,1.0,644.0,20.0,1.06287,0.900601
White,9,Right,19,Female,Yes,English,B,646,1,8,0,0.0,0.0,1.0,635.972,1.0,645.0,20.0,1.05514,0.909437
White,9,Right,19,Female,Yes,English,B,647,1,0,16,180.0,1.0,1.0,742.189,1.0,646.0,20.0,1.18955,0.807505
White,9,Right,19,Female,Yes,English,B,648,1,0,8,0.0,0.0,1.0,672.35,1.0,647.0,20.0,1.01222,0.864598
White,9,Right,19,Female,Yes,English,B,649,1,4,4,180.0,1.0,1.0,546.376,1.0,648.0,20.0,1.03301,0.897902
White,9,Right,19,Female,Yes,English,B,650,0,0,0,0.0,0.0,1.0,582.296,1.0,649.0,20.0,1.12782,0.876609
White,9,Right,19,Female,Yes,English,B,651,0,0,16,180.0,1.0,1.0,456.992,1.0,650.0,20.0,1.15624,0.819324
White,9,Right,19,Female,Yes,English,B,652,0,4,16,180.0,1.0,1.0,630.775,1.0,651.0,20.0,1.09176,0.988186
White,9,Right,19,Female,Yes,English,B,653,0,8,0,180.0,1.0,1.0,900.146,1.0,652.0,20.0,1.13244,0.95392
White,9,Right,19,Female,Yes,English,B,654,0,8,8,0.0,0.0,1.0,841.266,1.0,653.0,20.0,1.11989,0.805053
White,9,Right,19,Female,Yes,English,B,655,0,16,0,0.0,0.0,1.0,1014.07,1.0,654.0,20.0,1.18542,0.814787
White,9,Right,19,Female,Yes,English,B,656,1,16,8,0.0,0.0,1.0,1122.12,1.0,655.0,20.0,1.18279,0.981467
White,9,Right,19,Female,Yes,English,B,657,0,0,4,0.0,0.0,1.0,834.796,1.0,656.0,20.0,1.10698,0.866803
White,9,Right,19,Female,Yes,English,B,658,1,16,4,180.0,1.0,1.0,744.489,1.0,657.0,20.0,1.01359,0.96727
White,9,Right,19,Female,Yes,English,B,659,1,8,4,180.0,1.0,1.0,731.38,1.0,658.0,20.0,1.19722,0.917142
White,9,Right,19,Female,Yes,English,B,660,0,4,4,0.0,0.0,1.0,713.89,1.0,659.0,20.0,1.06173,0.943356
White,9,Right,19,Female,Yes,English,B,661,0,8,16,0.0,0.0,1.0,698.069,1.0,660.0,20.0,1.09665,0.867426
White,9,Right,19,Female,Yes,English,B,662,0,16,4,0.0,0.0,1.0,980.749,1.0,661.0,20.0,1.14089,0.914302
White,9,Right,19,Female,Yes,English,B,663,1,4,16,180.0,1.0,1.0,758.01,1.0,662.0,20.0,1.10892,0.823091
White,9,Right,19,Female,Yes,English,B,664,0,16,16,180.0,1.0,1.0,635.115,1.0,663.0,20.0,1.06144,0.89566
White,9,Right,19,Female,Yes,English,B,665,1,16,0,180.0,1.0,1.0,1342.63,1.0,664.0,20.0,1.07511,0.824544
White,9,Right,19,Female,Yes,English,B,666,1,8,8,0.0,0.0,1.0,1020.02,1.0,665.0,20.0,1.02373,0.875711
White,9,Right,19,Female,Yes,English,B,667,1,0,4,180.0,1.0,1.0,488.446,1.0,666.0,20.0,1.15067,0.828885
White,9,Right,19,Female,Yes,English,B,668,1,4,0,180.0,1.0,1.0,535.098,1.0,667.0,20.0,1.04163,0.802617
White,9,Right,19,Female,Yes,English,B,669,1,16,16,0.0,0.0,1.0,2134.16,1.0,668.0,20.0,1.02082,0.844151
White,9,Right,19,Female,Yes,English,B,670,1,4,8,0.0,0.0,1.0,760.008,1.0,669.0,20.0,1.07732,0.87505
White,9,Right,19,Female,Yes,English,B,671,0,4,0,0.0,0.0,1.0,660.248,1.0,670.0,20.0,1.09202,0.823959
White,9,Right,19,Female,Yes,English,B,672,0,16,8,0.0,0.0,1.0,1504.97,1.0,671.0,20.0,1.16714,0.914071
White,9,Right,19,Female,Yes,English,B,673,1,4,4,180.0,1.0,1.0,786.543,1.0,672.0,21.0,1.09983,0.845698
White,9,Right,19,Female,Yes,English,B,674,1,16,16,0.0,0.0,1.0,982.14,1.0,673.0,21.0,1.19529,0.96661
White,9,Right,19,Female,Yes,English,B,675,0,8,4,180.0,1.0,1.0,846.099,1.0,674.0,21.0,1.19427,0.813832
White,9,Right,19,Female,Yes,English,B,676,0,8,8,180.0,1.0,1.0,1040.82,1.0,675.0,21.0,1.06498,0.983101
White,9,Right,19,Female,Yes,English,B,677,0,4,0,0.0,0.0,1.0,775.899,1.0,676.0,21.0,1.05523,0.891737
White,9,Right,19,Female,Yes,English,B,678,0,4,4,0.0,0.0,1.0,614.946,1.0,677.0,21.0,1.11249,0.960901
White,9,Right,19,Female,Yes,English,B,679,0,16,8,180.0,1.0,1.0,685.109,1.0,678.0,21.0,1.06665,0.957602
White,9,Right,19,Female,Yes,English,B,680,1,8,8,180.0,1.0,1.0,1101.02,1.0,679.0,21.0,1.03906,0.938811
White,9,Right,19,Female,Yes,English,B,681,1,0,0,0.0,0.0,1.0,730.042,1.0,680.0,21.0,1.10754,0.912324
White,9,Right,19,Female,Yes,English,B,682,1,4,8,0.0,0.0,1.0,1663.98,1.0,681.0,21.0,1.10682,0.886803
White,9,Right,19,Female,Yes,English,B,683,1,16,4,180.0,1.0,1.0,718.9,1.0,682.0,21.0,1.17762,0.902249
White,9,Right,19,Female,Yes,English,B,684,1,16,8,0.0,0.0,1.0,679.938,1.0,683.0,21.0,1.13329,0.917953
White,9,Right,19,Female,Yes,English,B,685,0,0,16,0.0,0.0,1.0,737.178,1.0,684.0,21.0,1.16635,0.98455
White,9,Right,19,Female,Yes,English,B,686,0,0,0,0.0,0.0,1.0,563.438,1.0,685.0,21.0,1.10187,0.952421
White,9,Right,19,Female,Yes,English,B,687,1,4,16,180.0,1.0,1.0,794.642,1.0,686.0,21.0,1.13208,0.821357
White,9,Right,19,Female,Yes,English,B,688,0,4,8,0.0,0.0,1.0,1182.01,1.0,687.0,21.0,1.03273,0.828551
White,9,Right,19,Female,Yes,English,B,689,0,8,0,180.0,1.0,1.0,977.951,1.0,688.0,21.0,1.19856,0.930752
White,9,Right,19,Female,Yes,English,B,690,1,8,16,180.0,1.0,1.0,915.935,1.0,689.0,21.0,1.15417,0.806303
White,9,Right,19,Female,Yes,English,B,691,1,8,0,0.0,0.0,1.0,924.84,1.0,690.0,21.0,1.01129,0.855703
White,9,Right,19,Female,Yes,English,B,692,1,0,8,180.0,1.0,1.0,749.271,1.0,691.0,21.0,1.03845,0.977279
White,9,Right,19,Female,Yes,English,B,693,0,0,8,180.0,1.0,1.0,504.108,1.0,692.0,21.0,1.08732,0.802982
White,9,Right,19,Female,Yes,English,B,694,0,16,4,0.0,0.0,1.0,757.934,1.0,693.0,21.0,1.16211,0.973389
White,9,Right,19,Female,Yes,English,B,695,1,4,0,180.0,1.0,1.0,831.98,1.0,694.0,21.0,1.02636,0.822456
White,9,Right,19,Female,Yes,English,B,696,1,0,16,0.0,0.0,1.0,701.405,1.0,695.0,21.0,1.0748,0.900286
White,9,Right,19,Female,Yes,English,B,697,0,16,0,0.0,0.0,1.0,818.408,1.0,696.0,21.0,1.11284,0.913695
White,9,Right,19,Female,Yes,English,B,698,1,16,0,180.0,1.0,1.0,1140.81,1.0,697.0,21.0,1.10313,0.986127
White,9,Right,19,Female,Yes,English,B,699,0,0,4,0.0,0.0,1.0,672.884,1.0,698.0,21.0,1.01632,0.952844
White,9,Right,19,Female,Yes,English,B,700,1,8,4,0.0,0.0,1.0,739.52,1.0,699.0,21.0,1.02265,0.832405
White,9,Right,19,Female,Yes,English,B,701,0,4,16,180.0,1.0,1.0,996.769,1.0,700.0,21.0,1.12788,0.910873
White,9,Right,19,Female,Yes,English,B,702,0,16,16,180.0,1.0,1.0,1291.57,1.0,701.0,21.0,1.0515,0.842579
White,9,Right,19,Female,Yes,English,B,703,1,0,4,0.0,0.0,1.0,827.903,1.0,702.0,21.0,1.02207,0.814351
White,9,Right,19,Female,Yes,English,B,704,0,8,16,180.0,1.0,1.0,721.217,1.0,703.0,21.0,1.17152,0.950937
White,9,Right,19,Female,Yes,English,B,705,0,8,4,180.0,1.0,1.0,720.904,1.0,704.0,22.0,1.12198,0.835471
White,9,Right,19,Female,Yes,English,B,706,1,16,0,0.0,0.0,1.0,777.522,1.0,705.0,22.0,1.13358,0.930564
White,9,Right,19,Female,Yes,English,B,707,0,4,8,0.0,0.0,1.0,686.035,1.0,706.0,22.0,1.17834,0.853981
White,9,Right,19,Female,Yes,English,B,708,1,8,16,180.0,1.0,1.0,730.06,1.0,707.0,22.0,1.06383,0.954199
White,9,Right,19,Female,Yes,English,B,709,1,0,0,0.0,0.0,1.0,506.705,1.0,708.0,22.0,1.00638,0.890123
White,9,Right,19,Female,Yes,English,B,710,0,16,8,180.0,1.0,1.0,781.122,1.0,709.0,22.0,1.18111,0.83176
White,9,Right,19,Female,Yes,English,B,711,1,4,0,0.0,0.0,1.0,680.112,1.0,710.0,22.0,1.12477,0.839449
White,9,Right,19,Female,Yes,English,B,712,0,0,16,180.0,1.0,1.0,576.603,1.0,711.0,22.0,1.04018,0.947065
White,9,Right,19,Female,Yes,English,B,713,1,4,8,180.0,1.0,1.0,513.583,1.0,712.0,22.0,1.13331,0.917607
White,9,Right,19,Female,Yes,English,B,714,0,0,8,0.0,0.0,1.0,976.675,1.0,713.0,22.0,1.17819,0.909482
White,9,Right,19,Female,Yes,English,B,715,1,4,16,180.0,1.0,1.0,872.294,1.0,714.0,22.0,1.19514,0.947328
White,9,Right,19,Female,Yes,English,B,716,0,16,16,0.0,0.0,1.0,855.938,1.0,715.0,22.0,1.04124,0.986255
White,9,Right,19,Female,Yes,English,B,717,0,16,0,180.0,1.0,1.0,881.024,1.0,716.0,22.0,1.15452,0.93411
White,9,Right,19,Female,Yes,English,B,718,1,4,4,180.0,1.0,1.0,874.291,1.0,717.0,22.0,1.12042,0.960995
White,9,Right,19,Female,Yes,English,B,719,0,4,16,0.0,0.0,1.0,559.255,1.0,718.0,22.0,1.04446,0.871811
White,9,Right,19,Female,Yes,English,B,720,0,8,8,180.0,1.0,1.0,880.314,1.0,719.0,22.0,1.16379,0.848169
White,9,Right,19,Female,Yes,English,B,721,1,16,8,180.0,1.0,1.0,1143.76,1.0,720.0,22.0,1.0709,0.960137
White,9,Right,19,Female,Yes,English,B,722,0,0,4,180.0,1.0,1.0,802.869,1.0,721.0,22.0,1.15837,0.980447
White,9,Right,19,Female,Yes,English,B,723,0,4,0,180.0,1.0,1.0,1107.0,1.0,722.0,22.0,1.04794,0.939948
White,9,Right,19,Female,Yes,English,B,724,0,8,16,0.0,0.0,1.0,986.59,1.0,723.0,22.0,1.11169,0.842901
White,9,Right,19,Female,Yes,English,B,725,1,0,4,180.0,1.0,1.0,722.13,1.0,724.0,22.0,1.13969,0.971777
White,9,Right,19,Female,Yes,English,B,726,0,16,4,0.0,0.0,1.0,726.871,1.0,725.0,22.0,1.07392,0.896582
White,9,Right,19,Female,Yes,English,B,727,1,8,8,0.0,0.0,1.0,1336.84,1.0,726.0,22.0,1.00972,0.82659
White,9,Right,19,Female,Yes,English,B,728,1,0,16,0.0,0.0,1.0,692.301,1.0,727.0,22.0,1.13352,0.967237
White,9,Right,19,Female,Yes,English,B,729,1,16,16,0.0,0.0,1.0,875.006,1.0,728.0,22.0,1.14184,0.974813
White,9,Right,19,Female,Yes,English,B,730,1,8,4,180.0,1.0,1.0,1119.16,1.0,729.0,22.0,1.09088,0.973235
White,9,Right,19,Female,Yes,English,B,731,1,16,4,0.0,0.0,1.0,790.572,1.0,730.0,22.0,1.13124,0.844507
White,9,Right,19,Female,Yes,English,B,732,0,0,0,180.0,1.0,1.0,777.004,1.0,731.0,22.0,1.01045,0.994709
White,9,Right,19,Female,Yes,English,B,733,0,4,4,0.0,0.0,1.0,678.55,1.0,732.0,22.0,1.12931,0.885836
White,9,Right,19,Female,Yes,English,B,734,1,8,0,180.0,1.0,1.0,953.966,1.0,733.0,22.0,1.17633,0.908858
White,9,Right,19,Female,Yes,English,B,735,0,8,0,0.0,0.0,1.0,555.1,1.0,734.0,22.0,1.13857,0.920608
White,9,Right,19,Female,Yes,English,B,736,1,0,8,0.0,0.0,1.0,815.159,1.0,735.0,22.0,1.1317,0.957586
White,9,Right,19,Female,Yes,English,B,737,1,8,0,0.0,0.0,1.0,1367.05,1.0,736.0,23.0,1.08875,0.989475
White,9,Right,19,Female,Yes,English,B,738,1,0,4,180.0,1.0,1.0,658.628,1.0,737.0,23.0,1.09206,0.919102
White,9,Right,19,Female,Yes,English,B,739,1,8,16,180.0,1.0,1.0,912.828,1.0,738.0,23.0,1.02322,0.92985
White,9,Right,19,Female,Yes,English,B,740,0,8,4,180.0,1.0,1.0,749.76,1.0,739.0,23.0,1.1339,0.949085
White,9,Right,19,Female,Yes,English,B,741,1,4,0,0.0,0.0,1.0,565.905,1.0,740.0,23.0,1.0802,0.86864
White,9,Right,19,Female,Yes,English,B,742,1,16,16,0.0,0.0,1.0,627.756,1.0,741.0,23.0,1.08628,0.856262
White,9,Right,19,Female,Yes,English,B,743,1,4,8,0.0,0.0,1.0,1386.78,1.0,742.0,23.0,1.01993,0.82556
White,9,Right,19,Female,Yes,English,B,744,1,16,0,0.0,0.0,1.0,637.332,1.0,743.0,23.0,1.02542,0.91496
White,9,Right,19,Female,Yes,English,B,745,1,16,4,180.0,1.0,1.0,1532.76,1.0,744.0,23.0,1.19396,0.881423
White,9,Right,19,Female,Yes,English,B,746,0,0,0,180.0,1.0,1.0,636.521,1.0,745.0,23.0,1.11794,0.857207
White,9,Right,19,Female,Yes,English,B,747,0,0,16,0.0,0.0,1.0,1031.08,1.0,746.0,23.0,1.1707,0.906962
White,9,Right,19,Female,Yes,English,B,748,0,4,8,0.0,0.0,1.0,749.074,1.0,747.0,23.0,1.02863,0.948457
White,9,Right,19,Female,Yes,English,B,749,1,4,16,180.0,1.0,1.0,1076.45,1.0,748.0,23.0,1.04296,0.820037
White,9,Right,19,Female,Yes,English,B,750,1,16,8,0.0,0.0,1.0,949.915,1.0,749.0,23.0,1.0783,0.93121
White,9,Right,19,Female,Yes,English,B,751,1,8,4,0.0,0.0,1.0,900.124,1.0,750.0,23.0,1.07024,0.983908
White,9,Right,19,Female,Yes,English,B,752,0,4,16,0.0,0.0,1.0,895.002,1.0,751.0,23.0,1.17709,0.944928
White,9,Right,19,Female,Yes,English,B,753,0,16,8,180.0,1.0,1.0,1130.38,1.0,752.0,23.0,1.15307,0.912872
White,9,Right,19,Female,Yes,English,B,754,0,16,16,180.0,1.0,1.0,886.974,1.0,753.0,23.0,1.13557,0.968675
White,9,Right,19,Female,Yes,English,B,755,0,8,0,180.0,1.0,1.0,1480.66,1.0,754.0,23.0,1.03751,0.801306
White,9,Right,19,Female,Yes,English,B,756,0,8,16,180.0,1.0,1.0,594.853,1.0,755.0,23.0,1.11921,0.90423
White,9,Right,19,Female,Yes,English,B,757,0,16,4,180.0,1.0,1.0,682.936,1.0,756.0,23.0,1.02743,0.860426
White,9,Right,19,Female,Yes,English,B,758,0,0,4,180.0,1.0,1.0,611.07,1.0,757.0,23.0,1.04549,0.842613
White,9,Right,19,Female,Yes,English,B,759,0,16,0,0.0,0.0,1.0,1391.12,1.0,758.0,23.0,1.00913,0.989765
White,9,Right,19,Female,Yes,English,B,760,0,8,8,0.0,0.0,1.0,723.111,1.0,759.0,23.0,1.17861,0.945437
White,9,Right,19,Female,Yes,English,B,761,1,8,8,0.0,0.0,1.0,1345.81,1.0,760.0,23.0,1.15228,0.864075
White,9,Right,19,Female,Yes,English,B,762,1,0,16,0.0,0.0,1.0,628.502,1.0,761.0,23.0,1.14774,0.922565
White,9,Right,19,Female,Yes,English,B,763,1,4,4,0.0,0.0,1.0,657.787,1.0,762.0,23.0,1.05899,0.87886
White,9,Right,19,Female,Yes,English,B,764,0,4,0,0.0,0.0,1.0,836.164,1.0,763.0,23.0,1.033,0.940709
White,9,Right,19,Female,Yes,English,B,765,1,0,8,180.0,1.0,1.0,888.444,1.0,764.0,23.0,1.09139,0.883501
White,9,Right,19,Female,Yes,English,B,766,0,4,4,180.0,1.0,1.0,882.78,1.0,765.0,23.0,1.19717,0.990825
White,9,Right,19,Female,Yes,English,B,767,1,0,0,180.0,1.0,1.0,595.45,1.0,766.0,23.0,1.09054,0.804976
White,9,Right,19,Female,Yes,English,B,768,0,0,8,180.0,1.0,1.0,902.333,1.0,767.0,23.0,1.19438,0.85242
