Ethnicity,Subject Number,Preferred Hand,Age,Gender,Color blind,First Language,Room,TrialNumber,background,turtles,tortoises,target_id,resp,hit,rt,ran,order,block,iti,fix_duration
White,10,Right,19,Female,Yes,English,D,1,0,0,16,180.0,1.0,1.0,842.844,1.0,0.0,0.0,1.00973,0.801974
White,10,Right,19,Female,Yes,English,D,2,1,4,8,180.0,1.0,1.0,1050.22,1.0,1.0,0.0,1.05062,0.810646
White,10,Right,19,Female,Yes,English,D,3,0,4,4,180.0,1.0,1.0,763.895,1.0,2.0,0.0,1.09616,0.966096
White,10,Right,19,Female,Yes,English,D,4,0,0,4,180.0,1.0,1.0,654.319,1.0,3.0,0.0,1.06444,0.938969
White,10,Right,19,Female,Yes,English,D,5,1,0,0,0.0,0.0,1.0,628.494,1.0,4.0,0.0,1.17106,0.928187
White,10,Right,19,Female,Yes,English,D,6,1,16,4,180.0,1.0,1.0,1340.24,1.0,5.0,0.0,1.16756,0.968922
White,10,Right,19,Female,Yes,English,D,7,0,4,16,0.0,0.0,1.0,1159.5,1.0,6.0,0.0,1.03044,0.816468
White,10,Right,19,Female,Yes,English,D,8,1,16,8,0.0,0.0,1.0,1143.46,1.0,7.0,0.0,1.08753,0.882233
White,10,Right,19,Female,Yes,English,D,9,1,16,0,0.0,0.0,1.0,926.466,1.0,8.0,0.0,1.16307,0.948625
White,10,Right,19,Female,Yes,English,D,10,0,4,0,0.0,0.0,1.0,683.052,1.0,9.0,0.0,1.14739,0.974946
White,10,Right,19,Female,Yes,English,D,11,0,16,0,180.0,1.0,1.0,652.838,1.0,10.0,0.0,1.14693,0.836427
White,10,Right,19,Female,Yes,English,D,12,0,16,4,0.0,0.0,1.0,1075.01,1.0,11.0,0.0,1.13774,0.999722
White,10,Right,19,Female,Yes,English,D,13,0,0,0,180.0,1.0,1.0,600.982,1.0,12.0,0.0,1.17096,0.97338
White,10,Right,19,Female,Yes,English,D,14,0,16,8,0.0,0.0,1.0,760.382,1.0,13.0,0.0,1.13753,0.92764
White,10,Right,19,Female,Yes,English,D,15,0,8,4,0.0,0.0,1.0,512.069,1.0,14.0,0.0,1.13277,0.885556
White,10,Right,19,Female,Yes,English,D,16,0,0,8,180.0,1.0,1.0,790.74,1.0,15.0,0.0,1.17617,0.818648
White,10,Right,19,Female,Yes,English,D,17,1,8,4,0.0,0.0,1.0,896.547,1.0,16.0,0.0,1.03734,0.945609
White,10,Right,19,Female,Yes,English,D,18,1,8,8,180.0,1.0,1.0,1027.51,1.0,17.0,0.0,1.08045,0.895849
White,10,Right,19,Female,Yes,English,D,19,1,0,4,180.0,1.0,1.0,1026.11,1.0,18.0,0.0,1.0494,0.968123
White,10,Right,19,Female,Yes,English,D,20,1,0,16,0.0,0.0,1.0,640.654,1.0,19.0,0.0,1.12108,0.877286
White,10,Right,19,Female,Yes,English,D,21,1,8,16,0.0,0.0,1.0,987.521,1.0,20.0,0.0,1.12258,0.904198
White,10,Right,19,Female,Yes,English,D,22,0,8,16,180.0,1.0,1.0,978.632,1.0,21.0,0.0,1.07128,0.964418
White,10,Right,19,Female,Yes,English,D,23,0,8,8,0.0,0.0,1.0,860.319,1.0,22.0,0.0,1.12548,0.961162
White,10,Right,19,Female,Yes,English,D,24,1,4,4,0.0,0.0,1.0,726.07,1.0,23.0,0.0,1.05977,0.886263
White,10,Right,19,Female,Yes,English,D,25,1,16,16,180.0,1.0,1.0,1357.61,1.0,24.0,0.0,1.1315,0.81761
White,10,Right,19,Female,Yes,English,D,26,1,4,16,0.0,0.0,1.0,631.166,1.0,25.0,0.0,1.10589,0.866016
White,10,Right,19,Female,Yes,English,D,27,1,8,0,180.0,1.0,1.0,1337.98,1.0,26.0,0.0,1.03241,0.885387
White,10,Right,19,Female,Yes,English,D,28,1,0,8,0.0,0.0,1.0,869.325,1.0,27.0,0.0,1.02011,0.941317
White,10,Right,19,Female,Yes,English,D,29,0,4,8,180.0,1.0,1.0,1179.95,1.0,28.0,0.0,1.11143,0.823164
White,10,Right,19,Female,Yes,English,D,30,0,16,16,180.0,1.0,1.0,1322.47,1.0,29.0,0.0,1.02869,0.960215
White,10,Right,19,Female,Yes,English,D,31,0,8,0,180.0,1.0,1.0,672.831,1.0,30.0,0.0,1.01626,0.950992
White,10,Right,19,Female,Yes,English,D,32,1,4,0,0.0,0.0,1.0,820.381,1.0,31.0,0.0,1.1942,0.874681
White,10,Right,19,Female,Yes,English,D,33,0,0,16,180.0,1.0,1.0,1813.96,1.0,32.0,1.0,1.02445,0.90099
White,10,Right,19,Female,Yes,English,D,34,1,16,0,0.0,0.0,1.0,865.36,1.0,33.0,1.0,1.1125,0.849901
White,10,Right,19,Female,Yes,English,D,35,0,4,0,180.0,1.0,1.0,638.707,1.0,34.0,1.0,1.18948,0.926036
White,10,Right,19,Female,Yes,English,D,36,0,16,8,180.0,1.0,1.0,826.43,1.0,35.0,1.0,1.02335,0.927587
White,10,Right,19,Female,Yes,English,D,37,0,8,8,180.0,1.0,1.0,991.154,1.0,36.0,1.0,1.01954,0.956189
White,10,Right,19,Female,Yes,English,D,38,0,4,4,0.0,0.0,1.0,693.792,1.0,37.0,1.0,1.07706,0.908658
White,10,Right,19,Female,Yes,English,D,39,1,4,16,180.0,1.0,1.0,1885.77,1.0,38.0,1.0,1.13531,0.962263
White,10,Right,19,Female,Yes,English,D,40,0,16,0,0.0,0.0,1.0,828.366,1.0,39.0,1.0,1.1716,0.942126
White,10,Right,19,Female,Yes,English,D,41,1,16,16,0.0,0.0,1.0,1003.81,1.0,40.0,1.0,1.18326,0.94289
White,10,Right,19,Female,Yes,English,D,42,1,16,8,0.0,0.0,1.0,817.495,1.0,41.0,1.0,1.14009,0.861519
White,10,Right,19,Female,Yes,English,D,43,1,4,0,180.0,1.0,1.0,800.135,1.0,42.0,1.0,1.09429,0.856791
White,10,Right,19,Female,Yes,English,D,44,0,8,16,0.0,0.0,1.0,1194.64,1.0,43.0,1.0,1.12669,0.884844
White,10,Right,19,Female,Yes,English,D,45,1,4,8,180.0,1.0,1.0,1363.47,1.0,44.0,1.0,1.1583,0.860015
White,10,Right,19,Female,Yes,English,D,46,0,4,16,0.0,0.0,1.0,1854.62,1.0,45.0,1.0,1.11035,0.914808
White,10,Right,19,Female,Yes,English,D,47,1,4,4,0.0,0.0,1.0,1385.84,1.0,46.0,1.0,1.18104,0.832772
White,10,Right,19,Female,Yes,English,D,48,0,16,16,0.0,0.0,1.0,820.155,1.0,47.0,1.0,1.09946,0.952705
White,10,Right,19,Female,Yes,English,D,49,0,8,4,0.0,0.0,1.0,676.174,1.0,48.0,1.0,1.10481,0.874558
White,10,Right,19,Female,Yes,English,D,50,0,0,0,180.0,1.0,1.0,717.863,1.0,49.0,1.0,1.12696,0.845065
White,10,Right,19,Female,Yes,English,D,51,0,0,8,0.0,0.0,1.0,1069.39,1.0,50.0,1.0,1.05354,0.917946
White,10,Right,19,Female,Yes,English,D,52,1,8,0,180.0,1.0,1.0,1179.67,1.0,51.0,1.0,1.09424,0.867301
White,10,Right,19,Female,Yes,English,D,53,0,8,0,0.0,0.0,1.0,731.144,1.0,52.0,1.0,1.11944,0.933665
White,10,Right,19,Female,Yes,English,D,54,1,16,4,180.0,1.0,1.0,1332.39,1.0,53.0,1.0,1.09109,0.883547
White,10,Right,19,Female,Yes,English,D,55,1,8,8,180.0,1.0,1.0,1222.31,1.0,54.0,1.0,1.12462,0.809921
White,10,Right,19,Female,Yes,English,D,56,0,0,4,180.0,1.0,1.0,802.924,1.0,55.0,1.0,1.17236,0.965517
White,10,Right,19,Female,Yes,English,D,57,1,0,0,180.0,1.0,1.0,472.708,1.0,56.0,1.0,1.14984,0.951597
White,10,Right,19,Female,Yes,English,D,58,1,8,16,0.0,0.0,1.0,886.792,1.0,57.0,1.0,1.09249,0.894732
White,10,Right,19,Female,Yes,English,D,59,0,4,8,180.0,1.0,1.0,883.877,1.0,58.0,1.0,1.16275,0.96163
White,10,Right,19,Female,Yes,English,D,60,1,0,4,0.0,0.0,1.0,1015.0,1.0,59.0,1.0,1.13637,0.953694
White,10,Right,19,Female,Yes,English,D,61,1,0,16,0.0,0.0,1.0,1019.93,1.0,60.0,1.0,1.09657,0.973789
White,10,Right,19,Female,Yes,English,D,62,1,8,4,180.0,1.0,1.0,791.36,1.0,61.0,1.0,1.01524,0.892635
White,10,Right,19,Female,Yes,English,D,63,0,16,4,180.0,1.0,1.0,960.46,1.0,62.0,1.0,1.1591,0.920273
White,10,Right,19,Female,Yes,English,D,64,1,0,8,0.0,0.0,1.0,958.846,1.0,63.0,1.0,1.12143,0.890982
White,10,Right,19,Female,Yes,English,D,65,1,8,4,0.0,0.0,1.0,947.246,1.0,64.0,2.0,1.03523,0.820114
White,10,Right,19,Female,Yes,English,D,66,0,8,16,0.0,0.0,1.0,1525.44,1.0,65.0,2.0,1.12651,0.892222
White,10,Right,19,Female,Yes,English,D,67,1,0,16,0.0,0.0,1.0,1143.99,1.0,66.0,2.0,1.11409,0.864996
White,10,Right,19,Female,Yes,English,D,68,1,16,4,180.0,1.0,1.0,745.714,1.0,67.0,2.0,1.02218,0.91318
White,10,Right,19,Female,Yes,English,D,69,0,4,0,180.0,1.0,1.0,821.431,1.0,68.0,2.0,1.17705,0.84746
White,10,Right,19,Female,Yes,English,D,70,0,8,0,180.0,1.0,1.0,858.244,1.0,69.0,2.0,1.05069,0.91899
White,10,Right,19,Female,Yes,English,D,71,1,0,4,180.0,1.0,1.0,673.84,1.0,70.0,2.0,1.03417,0.997777
White,10,Right,19,Female,Yes,English,D,72,0,16,0,0.0,0.0,1.0,1631.59,1.0,71.0,2.0,1.09882,0.887334
White,10,Right,19,Female,Yes,English,D,73,0,16,16,180.0,1.0,1.0,1087.79,1.0,72.0,2.0,1.15399,0.816245
White,10,Right,19,Female,Yes,English,D,74,1,0,8,180.0,1.0,1.0,1476.55,1.0,73.0,2.0,1.18462,0.976361
White,10,Right,19,Female,Yes,English,D,75,0,4,4,180.0,1.0,1.0,1333.42,1.0,74.0,2.0,1.01918,0.87564
White,10,Right,19,Female,Yes,English,D,76,1,16,8,180.0,1.0,1.0,1687.55,1.0,75.0,2.0,1.09051,0.870734
White,10,Right,19,Female,Yes,English,D,77,0,16,4,0.0,0.0,1.0,699.99,1.0,76.0,2.0,1.1061,0.875936
White,10,Right,19,Female,Yes,English,D,78,1,8,8,180.0,1.0,1.0,732.849,1.0,77.0,2.0,1.04179,0.918815
White,10,Right,19,Female,Yes,English,D,79,0,4,8,0.0,0.0,1.0,1158.66,1.0,78.0,2.0,1.13883,0.905876
White,10,Right,19,Female,Yes,English,D,80,1,16,16,0.0,0.0,1.0,729.857,1.0,79.0,2.0,1.01686,0.880349
White,10,Right,19,Female,Yes,English,D,81,0,8,8,0.0,0.0,1.0,946.455,1.0,80.0,2.0,1.16742,0.81005
White,10,Right,19,Female,Yes,English,D,82,0,16,8,0.0,0.0,1.0,899.699,1.0,81.0,2.0,1.0292,0.811887
White,10,Right,19,Female,Yes,English,D,83,0,0,16,0.0,0.0,1.0,856.278,1.0,82.0,2.0,1.1897,0.884555
White,10,Right,19,Female,Yes,English,D,84,1,4,4,0.0,0.0,1.0,669.27,1.0,83.0,2.0,1.17647,0.880464
White,10,Right,19,Female,Yes,English,D,85,1,4,8,180.0,1.0,1.0,1880.83,1.0,84.0,2.0,1.14707,0.905079
White,10,Right,19,Female,Yes,English,D,86,0,0,8,180.0,1.0,1.0,666.988,1.0,85.0,2.0,1.10562,0.858428
White,10,Right,19,Female,Yes,English,D,87,1,4,16,0.0,0.0,1.0,1110.64,1.0,86.0,2.0,1.10888,0.836691
White,10,Right,19,Female,Yes,English,D,88,1,16,0,0.0,0.0,1.0,1328.5,1.0,87.0,2.0,1.06404,0.804469
White,10,Right,19,Female,Yes,English,D,89,0,0,0,0.0,0.0,1.0,691.325,1.0,88.0,2.0,1.05582,0.975924
White,10,Right,19,Female,Yes,English,D,90,1,0,0,180.0,1.0,1.0,893.952,1.0,89.0,2.0,1.04951,0.932593
White,10,Right,19,Female,Yes,English,D,91,1,4,0,180.0,1.0,1.0,1329.87,1.0,90.0,2.0,1.10588,0.886409
White,10,Right,19,Female,Yes,English,D,92,0,8,4,0.0,0.0,1.0,828.976,1.0,91.0,2.0,1.1627,0.892977
White,10,Right,19,Female,Yes,English,D,93,0,4,16,180.0,1.0,1.0,1132.26,1.0,92.0,2.0,1.18165,0.959856
White,10,Right,19,Female,Yes,English,D,94,0,0,4,180.0,1.0,1.0,1538.55,1.0,93.0,2.0,1.07851,0.837751
White,10,Right,19,Female,Yes,English,D,95,1,8,16,0.0,0.0,1.0,1284.16,1.0,94.0,2.0,1.17979,0.870189
White,10,Right,19,Female,Yes,English,D,96,1,8,0,180.0,1.0,1.0,1166.68,1.0,95.0,2.0,1.15026,0.944832
White,10,Right,19,Female,Yes,English,D,97,0,4,8,180.0,1.0,1.0,1722.96,1.0,96.0,3.0,1.18661,0.828723
White,10,Right,19,Female,Yes,English,D,98,1,0,16,0.0,0.0,1.0,729.011,1.0,97.0,3.0,1.18011,0.884497
White,10,Right,19,Female,Yes,English,D,99,1,0,4,0.0,0.0,1.0,939.013,1.0,98.0,3.0,1.0335,0.830379
White,10,Right,19,Female,Yes,English,D,100,0,16,0,0.0,0.0,1.0,832.445,1.0,99.0,3.0,1.17284,0.930394
White,10,Right,19,Female,Yes,English,D,101,1,8,16,180.0,1.0,1.0,1680.48,1.0,100.0,3.0,1.04262,0.869061
White,10,Right,19,Female,Yes,English,D,102,0,16,8,0.0,0.0,1.0,1754.65,1.0,101.0,3.0,1.00993,0.897427
White,10,Right,19,Female,Yes,English,D,103,0,8,0,0.0,0.0,1.0,802.582,1.0,102.0,3.0,1.03915,0.913852
White,10,Right,19,Female,Yes,English,D,104,0,16,4,0.0,0.0,1.0,683.039,1.0,103.0,3.0,1.01745,0.953169
White,10,Right,19,Female,Yes,English,D,105,1,16,16,180.0,1.0,1.0,1982.89,1.0,104.0,3.0,1.1492,0.90399
White,10,Right,19,Female,Yes,English,D,106,1,8,4,180.0,1.0,1.0,818.698,1.0,105.0,3.0,1.01892,0.887702
White,10,Right,19,Female,Yes,English,D,107,0,0,4,0.0,0.0,1.0,784.018,1.0,106.0,3.0,1.10127,0.869561
White,10,Right,19,Female,Yes,English,D,108,1,16,8,180.0,1.0,1.0,1126.11,1.0,107.0,3.0,1.19363,0.991648
White,10,Right,19,Female,Yes,English,D,109,1,16,0,0.0,0.0,1.0,915.117,1.0,108.0,3.0,1.17136,0.86904
White,10,Right,19,Female,Yes,English,D,110,0,8,8,180.0,1.0,1.0,1012.13,1.0,109.0,3.0,1.07797,0.892224
White,10,Right,19,Female,Yes,English,D,111,1,4,4,180.0,1.0,1.0,1019.16,1.0,110.0,3.0,1.11228,0.897603
White,10,Right,19,Female,Yes,English,D,112,0,0,0,0.0,0.0,1.0,717.666,1.0,111.0,3.0,1.17515,0.835771
White,10,Right,19,Female,Yes,English,D,113,0,8,16,0.0,0.0,1.0,1023.46,1.0,112.0,3.0,1.05338,0.805725
White,10,Right,19,Female,Yes,English,D,114,1,0,8,180.0,1.0,1.0,814.41,1.0,113.0,3.0,1.01181,0.949059
White,10,Right,19,Female,Yes,English,D,115,0,4,0,180.0,1.0,1.0,825.667,1.0,114.0,3.0,1.10621,0.960346
White,10,Right,19,Female,Yes,English,D,116,0,0,16,180.0,1.0,1.0,896.042,1.0,115.0,3.0,1.14139,0.911301
White,10,Right,19,Female,Yes,English,D,117,1,8,0,0.0,0.0,1.0,946.341,1.0,116.0,3.0,1.08554,0.953773
White,10,Right,19,Female,Yes,English,D,118,0,0,8,0.0,0.0,1.0,747.501,1.0,117.0,3.0,1.17264,0.809324
White,10,Right,19,Female,Yes,English,D,119,1,4,8,0.0,0.0,1.0,1291.71,1.0,118.0,3.0,1.04828,0.883082
White,10,Right,19,Female,Yes,English,D,120,1,8,8,180.0,1.0,1.0,1688.09,1.0,119.0,3.0,1.0043,0.897691
White,10,Right,19,Female,Yes,English,D,121,1,0,0,0.0,0.0,1.0,734.081,1.0,120.0,3.0,1.18504,0.946035
White,10,Right,19,Female,Yes,English,D,122,0,8,4,180.0,1.0,1.0,900.787,1.0,121.0,3.0,1.02186,0.908227
White,10,Right,19,Female,Yes,English,D,123,1,16,4,180.0,9999.0,0.0,9999.0,1.0,122.0,3.0,1.17584,0.902141
White,10,Right,19,Female,Yes,English,D,124,0,4,4,180.0,1.0,1.0,624.697,1.0,123.0,3.0,1.17836,0.913837
White,10,Right,19,Female,Yes,English,D,125,1,4,0,180.0,1.0,1.0,1254.69,1.0,124.0,3.0,1.13205,0.826515
White,10,Right,19,Female,Yes,English,D,126,1,4,16,180.0,1.0,1.0,1263.03,1.0,125.0,3.0,1.05827,0.912867
White,10,Right,19,Female,Yes,English,D,127,0,4,16,0.0,0.0,1.0,1015.81,1.0,126.0,3.0,1.16508,0.837615
White,10,Right,19,Female,Yes,English,D,128,0,16,16,0.0,0.0,1.0,784.259,1.0,127.0,3.0,1.07098,0.952168
White,10,Right,19,Female,Yes,English,D,129,1,8,8,180.0,1.0,1.0,1372.75,1.0,128.0,4.0,1.00484,0.991999
White,10,Right,19,Female,Yes,English,D,130,0,8,8,180.0,1.0,1.0,1077.45,1.0,129.0,4.0,1.02432,0.839769
White,10,Right,19,Female,Yes,English,D,131,0,8,16,180.0,1.0,1.0,806.989,1.0,130.0,4.0,1.02962,0.992646
White,10,Right,19,Female,Yes,English,D,132,0,0,4,180.0,1.0,1.0,676.976,1.0,131.0,4.0,1.02656,0.802185
White,10,Right,19,Female,Yes,English,D,133,1,16,16,180.0,1.0,1.0,1005.81,1.0,132.0,4.0,1.13183,0.959404
White,10,Right,19,Female,Yes,English,D,134,1,8,16,0.0,0.0,1.0,730.237,1.0,133.0,4.0,1.19909,0.957874
White,10,Right,19,Female,Yes,English,D,135,1,16,4,0.0,0.0,1.0,1323.0,1.0,134.0,4.0,1.11192,0.924289
White,10,Right,19,Female,Yes,English,D,136,0,16,0,0.0,0.0,1.0,866.929,1.0,135.0,4.0,1.1666,0.940654
White,10,Right,19,Female,Yes,English,D,137,0,8,0,0.0,0.0,1.0,667.786,1.0,136.0,4.0,1.05442,0.847908
White,10,Right,19,Female,Yes,English,D,138,0,8,4,0.0,0.0,1.0,592.74,1.0,137.0,4.0,1.12999,0.9641
White,10,Right,19,Female,Yes,English,D,139,0,16,8,0.0,0.0,1.0,1861.71,1.0,138.0,4.0,1.1443,0.936742
White,10,Right,19,Female,Yes,English,D,140,1,4,0,0.0,0.0,1.0,861.418,1.0,139.0,4.0,1.00334,0.813034
White,10,Right,19,Female,Yes,English,D,141,1,16,0,0.0,0.0,1.0,1506.75,1.0,140.0,4.0,1.06785,0.883559
White,10,Right,19,Female,Yes,English,D,142,0,0,16,180.0,1.0,1.0,784.367,1.0,141.0,4.0,1.15472,0.888008
White,10,Right,19,Female,Yes,English,D,143,1,8,4,0.0,0.0,1.0,813.425,1.0,142.0,4.0,1.15062,0.992176
White,10,Right,19,Female,Yes,English,D,144,0,4,8,180.0,1.0,1.0,1259.89,1.0,143.0,4.0,1.09959,0.893033
White,10,Right,19,Female,Yes,English,D,145,1,0,4,0.0,0.0,1.0,792.199,1.0,144.0,4.0,1.05097,0.940077
White,10,Right,19,Female,Yes,English,D,146,0,4,4,0.0,0.0,1.0,652.298,1.0,145.0,4.0,1.03319,0.998447
White,10,Right,19,Female,Yes,English,D,147,0,16,4,180.0,1.0,1.0,1271.32,1.0,146.0,4.0,1.05314,0.950154
White,10,Right,19,Female,Yes,English,D,148,0,16,16,180.0,1.0,1.0,840.937,1.0,147.0,4.0,1.1715,0.874967
White,10,Right,19,Female,Yes,English,D,149,1,0,16,180.0,1.0,1.0,956.214,1.0,148.0,4.0,1.01365,0.831811
White,10,Right,19,Female,Yes,English,D,150,0,4,0,0.0,0.0,1.0,667.498,1.0,149.0,4.0,1.06056,0.981885
White,10,Right,19,Female,Yes,English,D,151,0,0,0,180.0,1.0,1.0,649.589,1.0,150.0,4.0,1.06447,0.963024
White,10,Right,19,Female,Yes,English,D,152,1,0,8,180.0,1.0,1.0,995.859,1.0,151.0,4.0,1.16889,0.887531
White,10,Right,19,Female,Yes,English,D,153,1,4,8,180.0,1.0,1.0,818.763,1.0,152.0,4.0,1.18023,0.863725
White,10,Right,19,Female,Yes,English,D,154,1,4,16,180.0,1.0,1.0,922.442,1.0,153.0,4.0,1.1283,0.819891
White,10,Right,19,Female,Yes,English,D,155,0,4,16,180.0,1.0,1.0,924.766,1.0,154.0,4.0,1.04855,0.823811
White,10,Right,19,Female,Yes,English,D,156,1,4,4,180.0,1.0,1.0,1018.86,1.0,155.0,4.0,1.00615,0.961648
White,10,Right,19,Female,Yes,English,D,157,1,16,8,0.0,0.0,1.0,1223.43,1.0,156.0,4.0,1.08018,0.878461
White,10,Right,19,Female,Yes,English,D,158,1,8,0,0.0,0.0,1.0,1111.86,1.0,157.0,4.0,1.01721,0.953679
White,10,Right,19,Female,Yes,English,D,159,1,0,0,0.0,0.0,1.0,692.332,1.0,158.0,4.0,1.18634,0.89001
White,10,Right,19,Female,Yes,English,D,160,0,0,8,0.0,0.0,1.0,655.442,1.0,159.0,4.0,1.06569,0.862469
White,10,Right,19,Female,Yes,English,D,161,1,0,4,0.0,0.0,1.0,854.618,1.0,160.0,5.0,1.01298,0.887131
White,10,Right,19,Female,Yes,English,D,162,1,4,0,180.0,1.0,1.0,730.552,1.0,161.0,5.0,1.17194,0.918993
White,10,Right,19,Female,Yes,English,D,163,0,0,0,180.0,1.0,1.0,689.947,1.0,162.0,5.0,1.1835,0.999045
White,10,Right,19,Female,Yes,English,D,164,0,4,4,180.0,1.0,1.0,747.662,1.0,163.0,5.0,1.16803,0.804233
White,10,Right,19,Female,Yes,English,D,165,0,4,0,180.0,1.0,1.0,654.957,1.0,164.0,5.0,1.13125,0.990806
White,10,Right,19,Female,Yes,English,D,166,1,0,0,180.0,1.0,1.0,683.775,1.0,165.0,5.0,1.18848,0.938121
White,10,Right,19,Female,Yes,English,D,167,1,16,8,180.0,1.0,1.0,688.456,1.0,166.0,5.0,1.06227,0.920326
White,10,Right,19,Female,Yes,English,D,168,1,16,4,180.0,1.0,1.0,986.204,1.0,167.0,5.0,1.17882,0.987436
White,10,Right,19,Female,Yes,English,D,169,1,16,0,0.0,0.0,1.0,746.593,1.0,168.0,5.0,1.01828,0.962484
White,10,Right,19,Female,Yes,English,D,170,0,8,16,0.0,0.0,1.0,827.969,1.0,169.0,5.0,1.07954,0.876735
White,10,Right,19,Female,Yes,English,D,171,0,0,16,180.0,1.0,1.0,1427.42,1.0,170.0,5.0,1.18613,0.903475
White,10,Right,19,Female,Yes,English,D,172,0,16,16,180.0,1.0,1.0,898.843,1.0,171.0,5.0,1.01447,0.982399
White,10,Right,19,Female,Yes,English,D,173,0,16,8,180.0,1.0,1.0,868.475,1.0,172.0,5.0,1.07265,0.978422
White,10,Right,19,Female,Yes,English,D,174,1,8,16,0.0,0.0,1.0,780.474,1.0,173.0,5.0,1.07179,0.811074
White,10,Right,19,Female,Yes,English,D,175,1,4,4,180.0,1.0,1.0,1319.93,1.0,174.0,5.0,1.0819,0.997591
White,10,Right,19,Female,Yes,English,D,176,1,4,8,0.0,0.0,1.0,709.02,1.0,175.0,5.0,1.12857,0.881241
White,10,Right,19,Female,Yes,English,D,177,1,8,8,180.0,1.0,1.0,1114.2,1.0,176.0,5.0,1.18665,0.843153
White,10,Right,19,Female,Yes,English,D,178,0,16,0,0.0,0.0,1.0,1011.35,1.0,177.0,5.0,1.0846,0.952036
White,10,Right,19,Female,Yes,English,D,179,0,4,16,0.0,0.0,1.0,1014.02,1.0,178.0,5.0,1.00794,0.915994
White,10,Right,19,Female,Yes,English,D,180,1,0,8,0.0,0.0,1.0,1592.7,1.0,179.0,5.0,1.171,0.847931
White,10,Right,19,Female,Yes,English,D,181,0,0,4,0.0,0.0,1.0,649.028,1.0,180.0,5.0,1.12951,0.940144
White,10,Right,19,Female,Yes,English,D,182,1,16,16,0.0,0.0,1.0,884.135,1.0,181.0,5.0,1.16471,0.885672
White,10,Right,19,Female,Yes,English,D,183,1,0,16,180.0,1.0,1.0,928.789,1.0,182.0,5.0,1.1019,0.860483
White,10,Right,19,Female,Yes,English,D,184,1,4,16,0.0,0.0,1.0,1208.87,1.0,183.0,5.0,1.15243,0.804996
White,10,Right,19,Female,Yes,English,D,185,0,8,8,0.0,0.0,1.0,987.508,1.0,184.0,5.0,1.10055,0.951779
White,10,Right,19,Female,Yes,English,D,186,1,8,4,180.0,1.0,1.0,1353.85,1.0,185.0,5.0,1.14445,0.8086
White,10,Right,19,Female,Yes,English,D,187,0,8,4,180.0,1.0,1.0,1502.45,1.0,186.0,5.0,1.1341,0.805062
White,10,Right,19,Female,Yes,English,D,188,0,16,4,0.0,0.0,1.0,955.435,1.0,187.0,5.0,1.07146,0.904545
White,10,Right,19,Female,Yes,English,D,189,0,4,8,0.0,0.0,1.0,818.459,1.0,188.0,5.0,1.11098,0.950635
White,10,Right,19,Female,Yes,English,D,190,0,8,0,0.0,0.0,1.0,746.442,1.0,189.0,5.0,1.0536,0.958879
White,10,Right,19,Female,Yes,English,D,191,0,0,8,180.0,1.0,1.0,913.558,1.0,190.0,5.0,1.17904,0.846485
White,10,Right,19,Female,Yes,English,D,192,1,8,0,0.0,0.0,1.0,1018.12,1.0,191.0,5.0,1.14045,0.92021
White,10,Right,19,Female,Yes,English,D,193,0,4,4,0.0,0.0,1.0,969.829,1.0,192.0,6.0,1.12551,0.996923
White,10,Right,19,Female,Yes,English,D,194,1,16,0,180.0,1.0,1.0,1224.64,1.0,193.0,6.0,1.11266,0.830909
White,10,Right,19,Female,Yes,English,D,195,1,8,4,180.0,1.0,1.0,604.224,1.0,194.0,6.0,1.08802,0.968863
White,10,Right,19,Female,Yes,English,D,196,0,0,0,180.0,1.0,1.0,679.236,1.0,195.0,6.0,1.06164,0.807741
White,10,Right,19,Female,Yes,English,D,197,0,16,16,0.0,0.0,1.0,1019.52,1.0,196.0,6.0,1.17533,0.833187
White,10,Right,19,Female,Yes,English,D,198,1,8,8,0.0,0.0,1.0,811.07,1.0,197.0,6.0,1.19489,0.968791
White,10,Right,19,Female,Yes,English,D,199,1,16,16,180.0,1.0,1.0,1231.85,1.0,198.0,6.0,1.18197,0.894808
White,10,Right,19,Female,Yes,English,D,200,0,0,8,0.0,0.0,1.0,1664.1,1.0,199.0,6.0,1.06896,0.834456
White,10,Right,19,Female,Yes,English,D,201,1,0,16,180.0,1.0,1.0,769.827,1.0,200.0,6.0,1.12828,0.942459
White,10,Right,19,Female,Yes,English,D,202,0,0,16,0.0,0.0,1.0,559.896,1.0,201.0,6.0,1.18605,0.998646
White,10,Right,19,Female,Yes,English,D,203,0,8,16,180.0,1.0,1.0,918.963,1.0,202.0,6.0,1.13936,0.929991
White,10,Right,19,Female,Yes,English,D,204,1,4,0,0.0,0.0,1.0,1219.74,1.0,203.0,6.0,1.02623,0.918741
White,10,Right,19,Female,Yes,English,D,205,1,16,8,180.0,1.0,1.0,1147.32,1.0,204.0,6.0,1.0459,0.848549
White,10,Right,19,Female,Yes,English,D,206,1,0,0,0.0,0.0,1.0,739.293,1.0,205.0,6.0,1.15886,0.898835
White,10,Right,19,Female,Yes,English,D,207,1,0,4,180.0,1.0,1.0,1033.64,1.0,206.0,6.0,1.04954,0.953694
White,10,Right,19,Female,Yes,English,D,208,0,16,4,0.0,0.0,1.0,1528.44,1.0,207.0,6.0,1.08551,0.830182
White,10,Right,19,Female,Yes,English,D,209,0,0,4,180.0,1.0,1.0,755.342,1.0,208.0,6.0,1.09938,0.855032
White,10,Right,19,Female,Yes,English,D,210,1,8,16,0.0,0.0,1.0,817.755,1.0,209.0,6.0,1.01581,0.982817
White,10,Right,19,Female,Yes,English,D,211,0,8,8,180.0,1.0,1.0,901.505,1.0,210.0,6.0,1.01882,0.936461
White,10,Right,19,Female,Yes,English,D,212,0,8,0,180.0,1.0,1.0,741.254,1.0,211.0,6.0,1.19093,0.852671
White,10,Right,19,Female,Yes,English,D,213,0,16,0,180.0,1.0,1.0,755.575,1.0,212.0,6.0,1.17547,0.809191
White,10,Right,19,Female,Yes,English,D,214,0,4,8,0.0,0.0,1.0,876.261,1.0,213.0,6.0,1.17485,0.829911
White,10,Right,19,Female,Yes,English,D,215,1,4,8,180.0,1.0,1.0,1361.15,1.0,214.0,6.0,1.12013,0.884942
White,10,Right,19,Female,Yes,English,D,216,1,16,4,0.0,0.0,1.0,983.587,1.0,215.0,6.0,1.0656,0.923426
White,10,Right,19,Female,Yes,English,D,217,0,8,4,0.0,0.0,1.0,747.54,1.0,216.0,6.0,1.02245,0.835007
White,10,Right,19,Female,Yes,English,D,218,1,4,4,0.0,0.0,1.0,692.122,1.0,217.0,6.0,1.14014,0.807097
White,10,Right,19,Female,Yes,English,D,219,1,4,16,180.0,1.0,1.0,694.356,1.0,218.0,6.0,1.11246,0.837076
White,10,Right,19,Female,Yes,English,D,220,0,4,0,0.0,0.0,1.0,1025.98,1.0,219.0,6.0,1.01283,0.812549
White,10,Right,19,Female,Yes,English,D,221,0,4,16,0.0,0.0,1.0,790.158,1.0,220.0,6.0,1.02213,0.991461
White,10,Right,19,Female,Yes,English,D,222,1,8,0,180.0,1.0,1.0,821.512,1.0,221.0,6.0,1.09754,0.935796
White,10,Right,19,Female,Yes,English,D,223,0,16,8,180.0,1.0,1.0,926.377,1.0,222.0,6.0,1.10743,0.881154
White,10,Right,19,Female,Yes,English,D,224,1,0,8,0.0,0.0,1.0,831.19,1.0,223.0,6.0,1.05977,0.989002
White,10,Right,19,Female,Yes,English,D,225,0,8,16,180.0,1.0,1.0,1002.84,1.0,224.0,7.0,1.03743,0.905964
White,10,Right,19,Female,Yes,English,D,226,1,8,0,180.0,1.0,1.0,1120.32,1.0,225.0,7.0,1.0241,0.964468
White,10,Right,19,Female,Yes,English,D,227,1,16,8,0.0,0.0,1.0,1208.18,1.0,226.0,7.0,1.07435,0.904627
White,10,Right,19,Female,Yes,English,D,228,1,4,8,180.0,1.0,1.0,2058.89,1.0,227.0,7.0,1.11325,0.934262
White,10,Right,19,Female,Yes,English,D,229,1,16,4,0.0,0.0,1.0,864.992,1.0,228.0,7.0,1.18224,0.857385
White,10,Right,19,Female,Yes,English,D,230,0,16,4,180.0,1.0,1.0,1575.7,1.0,229.0,7.0,1.17415,0.867707
White,10,Right,19,Female,Yes,English,D,231,0,8,8,0.0,0.0,1.0,769.979,1.0,230.0,7.0,1.14771,0.998157
White,10,Right,19,Female,Yes,English,D,232,0,16,8,0.0,0.0,1.0,1263.36,1.0,231.0,7.0,1.12305,0.9706
White,10,Right,19,Female,Yes,English,D,233,1,16,0,180.0,1.0,1.0,826.162,1.0,232.0,7.0,1.03648,0.884549
White,10,Right,19,Female,Yes,English,D,234,0,4,8,180.0,1.0,1.0,651.402,1.0,233.0,7.0,1.19097,0.824502
White,10,Right,19,Female,Yes,English,D,235,1,8,16,180.0,1.0,1.0,740.387,1.0,234.0,7.0,1.01969,0.87406
White,10,Right,19,Female,Yes,English,D,236,0,8,0,180.0,1.0,1.0,826.386,1.0,235.0,7.0,1.12934,0.975427
White,10,Right,19,Female,Yes,English,D,237,1,8,4,0.0,0.0,1.0,1221.58,1.0,236.0,7.0,1.1604,0.926472
White,10,Right,19,Female,Yes,English,D,238,1,4,4,180.0,1.0,1.0,833.487,1.0,237.0,7.0,1.10369,0.898904
White,10,Right,19,Female,Yes,English,D,239,1,4,0,180.0,1.0,1.0,685.627,1.0,238.0,7.0,1.09455,0.906785
White,10,Right,19,Female,Yes,English,D,240,0,16,0,0.0,0.0,1.0,893.445,1.0,239.0,7.0,1.17433,0.934182
White,10,Right,19,Female,Yes,English,D,241,0,0,8,180.0,1.0,1.0,1310.08,1.0,240.0,7.0,1.02139,0.993677
White,10,Right,19,Female,Yes,English,D,242,1,0,0,0.0,0.0,1.0,854.87,1.0,241.0,7.0,1.11252,0.850773
White,10,Right,19,Female,Yes,English,D,243,1,4,16,0.0,0.0,1.0,1557.92,1.0,242.0,7.0,1.13343,0.967954
White,10,Right,19,Female,Yes,English,D,244,0,4,16,180.0,1.0,1.0,802.8,1.0,243.0,7.0,1.03516,0.979415
White,10,Right,19,Female,Yes,English,D,245,0,16,16,0.0,0.0,1.0,842.806,1.0,244.0,7.0,1.13785,0.869835
White,10,Right,19,Female,Yes,English,D,246,0,4,4,180.0,1.0,1.0,601.041,1.0,245.0,7.0,1.19029,0.864753
White,10,Right,19,Female,Yes,English,D,247,0,8,4,0.0,0.0,1.0,982.252,1.0,246.0,7.0,1.03306,0.847542
White,10,Right,19,Female,Yes,English,D,248,1,0,8,0.0,0.0,1.0,1017.54,1.0,247.0,7.0,1.14888,0.843077
White,10,Right,19,Female,Yes,English,D,249,1,8,8,180.0,1.0,1.0,750.022,1.0,248.0,7.0,1.03603,0.840984
White,10,Right,19,Female,Yes,English,D,250,1,0,4,180.0,1.0,1.0,626.265,1.0,249.0,7.0,1.04466,0.854362
White,10,Right,19,Female,Yes,English,D,251,0,0,16,0.0,0.0,1.0,1086.12,1.0,250.0,7.0,1.17485,0.812668
White,10,Right,19,Female,Yes,English,D,252,1,16,16,0.0,0.0,1.0,1594.1,1.0,251.0,7.0,1.15853,0.816944
White,10,Right,19,Female,Yes,English,D,253,0,4,0,0.0,0.0,1.0,487.611,1.0,252.0,7.0,1.01157,0.950192
White,10,Right,19,Female,Yes,English,D,254,1,0,16,0.0,0.0,1.0,662.045,1.0,253.0,7.0,1.04385,0.952546
White,10,Right,19,Female,Yes,English,D,255,0,0,0,180.0,0.0,0.0,513.935,1.0,254.0,7.0,1.06142,0.931229
White,10,Right,19,Female,Yes,English,D,256,0,0,4,0.0,0.0,1.0,795.663,1.0,255.0,7.0,1.04204,0.999649
White,10,Right,19,Female,Yes,English,D,257,1,8,8,0.0,0.0,1.0,812.16,1.0,256.0,8.0,1.04168,0.967454
White,10,Right,19,Female,Yes,English,D,258,1,0,8,0.0,0.0,1.0,631.408,1.0,257.0,8.0,1.0995,0.940067
White,10,Right,19,Female,Yes,English,D,259,1,0,0,180.0,1.0,1.0,750.372,1.0,258.0,8.0,1.15412,0.859439
White,10,Right,19,Female,Yes,English,D,260,1,4,4,180.0,1.0,1.0,933.259,1.0,259.0,8.0,1.19613,0.812645
White,10,Right,19,Female,Yes,English,D,261,1,8,4,0.0,0.0,1.0,1268.99,1.0,260.0,8.0,1.01241,0.801628
White,10,Right,19,Female,Yes,English,D,262,0,8,4,180.0,1.0,1.0,1810.88,1.0,261.0,8.0,1.13826,0.835208
White,10,Right,19,Female,Yes,English,D,263,0,8,16,180.0,1.0,1.0,1476.14,1.0,262.0,8.0,1.04545,0.976176
White,10,Right,19,Female,Yes,English,D,264,0,4,0,0.0,0.0,1.0,804.042,1.0,263.0,8.0,1.13947,0.921577
White,10,Right,19,Female,Yes,English,D,265,0,4,8,0.0,0.0,1.0,1048.94,1.0,264.0,8.0,1.11406,0.986026
White,10,Right,19,Female,Yes,English,D,266,0,16,0,0.0,0.0,1.0,862.849,1.0,265.0,8.0,1.04772,0.864814
White,10,Right,19,Female,Yes,English,D,267,0,4,4,180.0,1.0,1.0,826.329,1.0,266.0,8.0,1.118,0.894267
White,10,Right,19,Female,Yes,English,D,268,0,8,8,0.0,0.0,1.0,728.163,1.0,267.0,8.0,1.17055,0.9254
White,10,Right,19,Female,Yes,English,D,269,1,4,8,180.0,1.0,1.0,965.493,1.0,268.0,8.0,1.02289,0.841385
White,10,Right,19,Female,Yes,English,D,270,0,4,16,0.0,0.0,1.0,1186.57,1.0,269.0,8.0,1.00798,0.937075
White,10,Right,19,Female,Yes,English,D,271,1,16,0,0.0,0.0,1.0,939.702,1.0,270.0,8.0,1.07692,0.895522
White,10,Right,19,Female,Yes,English,D,272,0,0,16,180.0,1.0,1.0,1388.79,1.0,271.0,8.0,1.10362,0.863231
White,10,Right,19,Female,Yes,English,D,273,1,16,8,180.0,1.0,1.0,821.515,1.0,272.0,8.0,1.11301,0.858041
White,10,Right,19,Female,Yes,English,D,274,1,16,4,180.0,1.0,1.0,854.081,1.0,273.0,8.0,1.14171,0.976287
White,10,Right,19,Female,Yes,English,D,275,1,4,0,0.0,0.0,1.0,877.7,1.0,274.0,8.0,1.19443,0.968754
White,10,Right,19,Female,Yes,English,D,276,1,8,16,180.0,1.0,1.0,833.092,1.0,275.0,8.0,1.06681,0.872512
White,10,Right,19,Female,Yes,English,D,277,0,16,4,0.0,0.0,1.0,1178.7,1.0,276.0,8.0,1.15288,0.849245
White,10,Right,19,Female,Yes,English,D,278,0,0,0,180.0,1.0,1.0,854.307,1.0,277.0,8.0,1.1142,0.981467
White,10,Right,19,Female,Yes,English,D,279,1,0,4,0.0,0.0,1.0,896.147,1.0,278.0,8.0,1.04801,0.964505
White,10,Right,19,Female,Yes,English,D,280,0,8,0,180.0,1.0,1.0,794.069,1.0,279.0,8.0,1.12435,0.882477
White,10,Right,19,Female,Yes,English,D,281,1,0,16,180.0,1.0,1.0,1019.46,1.0,280.0,8.0,1.08832,0.939189
White,10,Right,19,Female,Yes,English,D,282,0,16,8,0.0,0.0,1.0,1430.57,1.0,281.0,8.0,1.07405,0.963552
White,10,Right,19,Female,Yes,English,D,283,1,8,0,180.0,1.0,1.0,699.014,1.0,282.0,8.0,1.1331,0.803792
White,10,Right,19,Female,Yes,English,D,284,0,16,16,0.0,0.0,1.0,1274.31,1.0,283.0,8.0,1.13522,0.997095
White,10,Right,19,Female,Yes,English,D,285,0,0,8,0.0,0.0,1.0,945.697,1.0,284.0,8.0,1.0579,0.893329
White,10,Right,19,Female,Yes,English,D,286,1,16,16,180.0,1.0,1.0,810.767,1.0,285.0,8.0,1.01671,0.827985
White,10,Right,19,Female,Yes,English,D,287,0,0,4,0.0,0.0,1.0,738.679,1.0,286.0,8.0,1.09908,0.893412
White,10,Right,19,Female,Yes,English,D,288,1,4,16,180.0,1.0,1.0,1836.2,1.0,287.0,8.0,1.13864,0.906858
White,10,Right,19,Female,Yes,English,D,289,0,0,0,180.0,1.0,1.0,1265.77,1.0,288.0,9.0,1.03426,0.874802
White,10,Right,19,Female,Yes,English,D,290,1,0,8,180.0,1.0,1.0,817.32,1.0,289.0,9.0,1.1655,0.853023
White,10,Right,19,Female,Yes,English,D,291,1,4,8,0.0,0.0,1.0,821.979,1.0,290.0,9.0,1.17229,0.875254
White,10,Right,19,Female,Yes,English,D,292,0,0,4,0.0,0.0,1.0,936.456,1.0,291.0,9.0,1.14923,0.816524
White,10,Right,19,Female,Yes,English,D,293,1,0,4,180.0,1.0,1.0,953.67,1.0,292.0,9.0,1.19279,0.919343
White,10,Right,19,Female,Yes,English,D,294,0,16,8,0.0,0.0,1.0,1014.49,1.0,293.0,9.0,1.15428,0.959586
White,10,Right,19,Female,Yes,English,D,295,0,8,4,0.0,0.0,1.0,707.34,1.0,294.0,9.0,1.10914,0.945208
White,10,Right,19,Female,Yes,English,D,296,0,8,16,180.0,1.0,1.0,948.164,1.0,295.0,9.0,1.10389,0.836525
White,10,Right,19,Female,Yes,English,D,297,0,4,0,0.0,0.0,1.0,879.441,1.0,296.0,9.0,1.04925,0.901157
White,10,Right,19,Female,Yes,English,D,298,0,4,4,180.0,1.0,1.0,1088.83,1.0,297.0,9.0,1.07409,0.974054
White,10,Right,19,Female,Yes,English,D,299,0,0,16,180.0,1.0,1.0,571.126,1.0,298.0,9.0,1.12165,0.987304
White,10,Right,19,Female,Yes,English,D,300,1,0,0,180.0,1.0,1.0,595.812,1.0,299.0,9.0,1.03053,0.886829
White,10,Right,19,Female,Yes,English,D,301,1,4,16,0.0,0.0,1.0,812.358,1.0,300.0,9.0,1.01163,0.987754
White,10,Right,19,Female,Yes,English,D,302,0,4,16,180.0,1.0,1.0,939.842,1.0,301.0,9.0,1.03029,0.861489
White,10,Right,19,Female,Yes,English,D,303,1,16,16,0.0,0.0,1.0,913.882,1.0,302.0,9.0,1.08634,0.992461
White,10,Right,19,Female,Yes,English,D,304,0,16,16,0.0,0.0,1.0,850.279,1.0,303.0,9.0,1.01021,0.83806
White,10,Right,19,Female,Yes,English,D,305,1,8,8,0.0,0.0,1.0,901.037,1.0,304.0,9.0,1.00101,0.96057
White,10,Right,19,Female,Yes,English,D,306,0,16,0,180.0,1.0,1.0,1329.49,1.0,305.0,9.0,1.11482,0.952452
White,10,Right,19,Female,Yes,English,D,307,1,16,8,180.0,1.0,1.0,1071.6,1.0,306.0,9.0,1.17559,0.935824
White,10,Right,19,Female,Yes,English,D,308,0,16,4,180.0,1.0,1.0,1116.14,1.0,307.0,9.0,1.12171,0.895253
White,10,Right,19,Female,Yes,English,D,309,1,4,0,0.0,0.0,1.0,1158.02,1.0,308.0,9.0,1.13056,0.931687
White,10,Right,19,Female,Yes,English,D,310,0,8,8,0.0,0.0,1.0,652.319,1.0,309.0,9.0,1.08024,0.808973
White,10,Right,19,Female,Yes,English,D,311,1,16,0,180.0,1.0,1.0,820.74,1.0,310.0,9.0,1.15624,0.971993
White,10,Right,19,Female,Yes,English,D,312,1,8,16,0.0,0.0,1.0,843.124,1.0,311.0,9.0,1.05144,0.958168
White,10,Right,19,Female,Yes,English,D,313,0,4,8,180.0,1.0,1.0,1052.88,1.0,312.0,9.0,1.17073,0.822521
White,10,Right,19,Female,Yes,English,D,314,1,4,4,180.0,1.0,1.0,2354.88,1.0,313.0,9.0,1.11709,0.92192
White,10,Right,19,Female,Yes,English,D,315,1,8,0,0.0,0.0,1.0,1664.62,1.0,314.0,9.0,1.00464,0.945362
White,10,Right,19,Female,Yes,English,D,316,1,0,16,180.0,1.0,1.0,765.562,1.0,315.0,9.0,1.01321,0.964606
White,10,Right,19,Female,Yes,English,D,317,1,8,4,0.0,0.0,1.0,1206.44,1.0,316.0,9.0,1.17804,0.84165
White,10,Right,19,Female,Yes,English,D,318,0,0,8,0.0,0.0,1.0,1051.08,1.0,317.0,9.0,1.10613,0.876712
White,10,Right,19,Female,Yes,English,D,319,0,8,0,180.0,1.0,1.0,1705.35,1.0,318.0,9.0,1.09546,0.830138
White,10,Right,19,Female,Yes,English,D,320,1,16,4,0.0,0.0,1.0,660.449,1.0,319.0,9.0,1.11979,0.874707
White,10,Right,19,Female,Yes,English,D,321,0,4,16,180.0,1.0,1.0,796.868,1.0,320.0,10.0,1.14036,0.909252
White,10,Right,19,Female,Yes,English,D,322,0,4,0,180.0,1.0,1.0,1511.41,1.0,321.0,10.0,1.17451,0.925335
White,10,Right,19,Female,Yes,English,D,323,0,0,0,0.0,0.0,1.0,1104.58,1.0,322.0,10.0,1.12935,0.819775
White,10,Right,19,Female,Yes,English,D,324,1,16,8,180.0,1.0,1.0,934.934,1.0,323.0,10.0,1.01888,0.897701
White,10,Right,19,Female,Yes,English,D,325,1,16,16,0.0,0.0,1.0,843.118,1.0,324.0,10.0,1.16502,0.961875
White,10,Right,19,Female,Yes,English,D,326,0,4,8,180.0,1.0,1.0,604.794,1.0,325.0,10.0,1.05512,0.904777
White,10,Right,19,Female,Yes,English,D,327,0,0,16,180.0,1.0,1.0,765.098,1.0,326.0,10.0,1.09017,0.893902
White,10,Right,19,Female,Yes,English,D,328,1,8,0,180.0,1.0,1.0,721.362,1.0,327.0,10.0,1.01631,0.889481
White,10,Right,19,Female,Yes,English,D,329,1,0,16,0.0,0.0,1.0,846.117,1.0,328.0,10.0,1.12423,0.983377
White,10,Right,19,Female,Yes,English,D,330,1,16,0,0.0,0.0,1.0,981.618,1.0,329.0,10.0,1.14787,0.833213
White,10,Right,19,Female,Yes,English,D,331,0,16,16,0.0,0.0,1.0,859.554,1.0,330.0,10.0,1.09262,0.83843
White,10,Right,19,Female,Yes,English,D,332,1,8,16,0.0,0.0,1.0,791.979,1.0,331.0,10.0,1.07516,0.83566
White,10,Right,19,Female,Yes,English,D,333,1,8,4,0.0,0.0,1.0,1439.61,1.0,332.0,10.0,1.13971,0.891282
White,10,Right,19,Female,Yes,English,D,334,0,16,4,0.0,0.0,1.0,1370.21,1.0,333.0,10.0,1.07871,0.937738
White,10,Right,19,Female,Yes,English,D,335,1,4,16,0.0,0.0,1.0,919.295,1.0,334.0,10.0,1.12905,0.839578
White,10,Right,19,Female,Yes,English,D,336,0,16,8,0.0,0.0,1.0,1235.12,1.0,335.0,10.0,1.06295,0.846796
White,10,Right,19,Female,Yes,English,D,337,1,4,4,180.0,1.0,1.0,751.948,1.0,336.0,10.0,1.19216,0.874568
White,10,Right,19,Female,Yes,English,D,338,0,8,16,180.0,1.0,1.0,994.078,1.0,337.0,10.0,1.11534,0.878266
White,10,Right,19,Female,Yes,English,D,339,0,8,8,180.0,1.0,1.0,853.417,1.0,338.0,10.0,1.13421,0.99461
White,10,Right,19,Female,Yes,English,D,340,0,8,4,180.0,1.0,1.0,1069.31,1.0,339.0,10.0,1.01521,0.887861
White,10,Right,19,Female,Yes,English,D,341,0,0,8,0.0,0.0,1.0,1019.26,1.0,340.0,10.0,1.10038,0.98926
White,10,Right,19,Female,Yes,English,D,342,1,16,4,180.0,1.0,1.0,1404.85,1.0,341.0,10.0,1.13983,0.900198
White,10,Right,19,Female,Yes,English,D,343,0,8,0,0.0,0.0,1.0,865.33,1.0,342.0,10.0,1.02215,0.968381
White,10,Right,19,Female,Yes,English,D,344,1,0,4,180.0,1.0,1.0,674.561,1.0,343.0,10.0,1.025,0.876533
White,10,Right,19,Female,Yes,English,D,345,1,8,8,0.0,0.0,1.0,911.761,1.0,344.0,10.0,1.11827,0.891617
White,10,Right,19,Female,Yes,English,D,346,0,16,0,0.0,0.0,1.0,955.959,1.0,345.0,10.0,1.02782,0.807206
White,10,Right,19,Female,Yes,English,D,347,0,0,4,180.0,1.0,1.0,642.096,1.0,346.0,10.0,1.10565,0.81892
White,10,Right,19,Female,Yes,English,D,348,1,0,0,0.0,0.0,1.0,689.591,1.0,347.0,10.0,1.03389,0.906586
White,10,Right,19,Female,Yes,English,D,349,0,4,4,180.0,1.0,1.0,751.459,1.0,348.0,10.0,1.13531,0.915997
White,10,Right,19,Female,Yes,English,D,350,1,4,8,180.0,1.0,1.0,983.394,1.0,349.0,10.0,1.04268,0.836465
White,10,Right,19,Female,Yes,English,D,351,1,0,8,180.0,1.0,1.0,908.882,1.0,350.0,10.0,1.12831,0.940516
White,10,Right,19,Female,Yes,English,D,352,1,4,0,0.0,0.0,1.0,631.335,1.0,351.0,10.0,1.00072,0.974396
White,10,Right,19,Female,Yes,English,D,353,0,4,16,0.0,0.0,1.0,1088.2,1.0,352.0,11.0,1.11078,0.842427
White,10,Right,19,Female,Yes,English,D,354,0,8,16,180.0,1.0,1.0,779.421,1.0,353.0,11.0,1.13195,0.981819
White,10,Right,19,Female,Yes,English,D,355,0,16,8,180.0,1.0,1.0,752.02,1.0,354.0,11.0,1.0322,0.978376
White,10,Right,19,Female,Yes,English,D,356,0,0,4,0.0,0.0,1.0,775.551,1.0,355.0,11.0,1.00166,0.971105
White,10,Right,19,Female,Yes,English,D,357,1,16,0,0.0,0.0,1.0,1002.62,1.0,356.0,11.0,1.08642,0.947892
White,10,Right,19,Female,Yes,English,D,358,0,8,4,0.0,0.0,1.0,1061.77,1.0,357.0,11.0,1.06737,0.948448
White,10,Right,19,Female,Yes,English,D,359,0,8,8,180.0,1.0,1.0,764.236,1.0,358.0,11.0,1.00313,0.929547
White,10,Right,19,Female,Yes,English,D,360,1,16,16,180.0,1.0,1.0,1996.1,1.0,359.0,11.0,1.0359,0.995272
White,10,Right,19,Female,Yes,English,D,361,1,4,16,0.0,0.0,1.0,732.163,1.0,360.0,11.0,1.10979,0.943419
White,10,Right,19,Female,Yes,English,D,362,0,4,8,180.0,1.0,1.0,727.622,1.0,361.0,11.0,1.01502,0.958583
White,10,Right,19,Female,Yes,English,D,363,1,0,0,180.0,1.0,1.0,648.055,1.0,362.0,11.0,1.05222,0.913076
White,10,Right,19,Female,Yes,English,D,364,1,0,16,0.0,0.0,1.0,645.208,1.0,363.0,11.0,1.06516,0.937292
White,10,Right,19,Female,Yes,English,D,365,1,8,16,180.0,1.0,1.0,891.045,1.0,364.0,11.0,1.04817,0.992067
White,10,Right,19,Female,Yes,English,D,366,0,0,8,180.0,1.0,1.0,843.743,1.0,365.0,11.0,1.13044,0.978698
White,10,Right,19,Female,Yes,English,D,367,1,4,0,0.0,0.0,1.0,1014.05,1.0,366.0,11.0,1.04034,0.947508
White,10,Right,19,Female,Yes,English,D,368,1,16,4,180.0,1.0,1.0,1175.63,1.0,367.0,11.0,1.01876,0.988827
White,10,Right,19,Female,Yes,English,D,369,1,8,8,0.0,0.0,1.0,768.978,1.0,368.0,11.0,1.03718,0.896198
White,10,Right,19,Female,Yes,English,D,370,1,8,0,180.0,1.0,1.0,671.335,1.0,369.0,11.0,1.09357,0.897621
White,10,Right,19,Female,Yes,English,D,371,0,16,0,0.0,0.0,1.0,739.878,1.0,370.0,11.0,1.19554,0.984675
White,10,Right,19,Female,Yes,English,D,372,0,8,0,0.0,0.0,1.0,971.723,1.0,371.0,11.0,1.18437,0.935006
White,10,Right,19,Female,Yes,English,D,373,1,16,8,0.0,0.0,1.0,1330.02,1.0,372.0,11.0,1.06464,0.977554
White,10,Right,19,Female,Yes,English,D,374,1,0,8,180.0,1.0,1.0,922.964,1.0,373.0,11.0,1.02656,0.83597
White,10,Right,19,Female,Yes,English,D,375,1,4,4,0.0,0.0,1.0,696.851,1.0,374.0,11.0,1.17082,0.927179
White,10,Right,19,Female,Yes,English,D,376,1,8,4,0.0,0.0,1.0,718.651,1.0,375.0,11.0,1.14902,0.853388
White,10,Right,19,Female,Yes,English,D,377,0,16,4,180.0,1.0,1.0,996.667,1.0,376.0,11.0,1.15665,0.914148
White,10,Right,19,Female,Yes,English,D,378,0,4,0,0.0,0.0,1.0,879.146,1.0,377.0,11.0,1.09743,0.816969
White,10,Right,19,Female,Yes,English,D,379,1,0,4,180.0,1.0,1.0,906.356,1.0,378.0,11.0,1.06714,0.873145
White,10,Right,19,Female,Yes,English,D,380,0,0,0,180.0,1.0,1.0,1063.08,1.0,379.0,11.0,1.08348,0.805809
White,10,Right,19,Female,Yes,English,D,381,0,4,4,0.0,0.0,1.0,834.269,1.0,380.0,11.0,1.08422,0.899215
White,10,Right,19,Female,Yes,English,D,382,1,4,8,0.0,0.0,1.0,1112.59,1.0,381.0,11.0,1.01584,0.873584
White,10,Right,19,Female,Yes,English,D,383,0,0,16,180.0,1.0,1.0,862.662,1.0,382.0,11.0,1.1413,0.955003
White,10,Right,19,Female,Yes,English,D,384,0,16,16,180.0,1.0,1.0,654.596,1.0,383.0,11.0,1.01977,0.958843
White,10,Right,19,Female,Yes,English,D,385,1,16,16,180.0,1.0,1.0,1085.12,1.0,384.0,12.0,1.15509,0.895926
White,10,Right,19,Female,Yes,English,D,386,0,0,16,0.0,0.0,1.0,1257.41,1.0,385.0,12.0,1.18793,0.800013
White,10,Right,19,Female,Yes,English,D,387,1,4,4,180.0,1.0,1.0,1482.99,1.0,386.0,12.0,1.12831,0.862049
White,10,Right,19,Female,Yes,English,D,388,0,16,16,180.0,1.0,1.0,1421.43,1.0,387.0,12.0,1.11425,0.923118
White,10,Right,19,Female,Yes,English,D,389,1,16,4,180.0,1.0,1.0,1021.58,1.0,388.0,12.0,1.07981,0.994354
White,10,Right,19,Female,Yes,English,D,390,0,8,16,180.0,1.0,1.0,749.957,1.0,389.0,12.0,1.1342,0.933777
White,10,Right,19,Female,Yes,English,D,391,0,4,4,180.0,1.0,1.0,1699.41,1.0,390.0,12.0,1.1215,0.877495
White,10,Right,19,Female,Yes,English,D,392,1,0,16,180.0,1.0,1.0,945.314,1.0,391.0,12.0,1.13744,0.943125
White,10,Right,19,Female,Yes,English,D,393,0,4,16,0.0,0.0,1.0,806.12,1.0,392.0,12.0,1.12302,0.838522
White,10,Right,19,Female,Yes,English,D,394,0,8,4,180.0,1.0,1.0,859.378,1.0,393.0,12.0,1.12202,0.872079
White,10,Right,19,Female,Yes,English,D,395,1,4,16,0.0,0.0,1.0,1227.34,1.0,394.0,12.0,1.19801,0.991392
White,10,Right,19,Female,Yes,English,D,396,1,8,4,0.0,0.0,1.0,886.897,1.0,395.0,12.0,1.16962,0.942207
White,10,Right,19,Female,Yes,English,D,397,1,0,4,0.0,0.0,1.0,720.798,1.0,396.0,12.0,1.0839,0.97778
White,10,Right,19,Female,Yes,English,D,398,0,4,8,0.0,0.0,1.0,1703.59,1.0,397.0,12.0,1.08872,0.912852
White,10,Right,19,Female,Yes,English,D,399,0,16,8,0.0,0.0,1.0,857.421,1.0,398.0,12.0,1.0687,0.961656
White,10,Right,19,Female,Yes,English,D,400,1,4,8,180.0,1.0,1.0,647.363,1.0,399.0,12.0,1.08741,0.85728
White,10,Right,19,Female,Yes,English,D,401,0,0,8,0.0,0.0,1.0,1206.19,1.0,400.0,12.0,1.03685,0.936104
White,10,Right,19,Female,Yes,English,D,402,0,16,0,0.0,0.0,1.0,649.154,1.0,401.0,12.0,1.11206,0.980237
White,10,Right,19,Female,Yes,English,D,403,1,8,0,0.0,0.0,1.0,839.024,1.0,402.0,12.0,1.1779,0.816186
White,10,Right,19,Female,Yes,English,D,404,0,4,0,180.0,1.0,1.0,1352.85,1.0,403.0,12.0,1.10995,0.860038
White,10,Right,19,Female,Yes,English,D,405,0,0,0,180.0,1.0,1.0,747.785,1.0,404.0,12.0,1.06887,0.972269
White,10,Right,19,Female,Yes,English,D,406,1,8,16,180.0,1.0,1.0,929.354,1.0,405.0,12.0,1.07657,0.884093
White,10,Right,19,Female,Yes,English,D,407,1,8,8,180.0,1.0,1.0,924.199,1.0,406.0,12.0,1.02155,0.908398
White,10,Right,19,Female,Yes,English,D,408,1,16,8,0.0,0.0,1.0,1636.52,1.0,407.0,12.0,1.00064,0.942099
White,10,Right,19,Female,Yes,English,D,409,0,8,8,0.0,0.0,1.0,1040.02,1.0,408.0,12.0,1.16235,0.812993
White,10,Right,19,Female,Yes,English,D,410,1,0,0,180.0,1.0,1.0,836.327,1.0,409.0,12.0,1.11684,0.903581
White,10,Right,19,Female,Yes,English,D,411,0,8,0,0.0,0.0,1.0,918.603,1.0,410.0,12.0,1.02769,0.949229
White,10,Right,19,Female,Yes,English,D,412,1,16,0,180.0,1.0,1.0,1137.66,1.0,411.0,12.0,1.158,0.830119
White,10,Right,19,Female,Yes,English,D,413,1,4,0,0.0,0.0,1.0,1175.65,1.0,412.0,12.0,1.09191,0.848898
White,10,Right,19,Female,Yes,English,D,414,0,16,4,0.0,0.0,1.0,1328.13,1.0,413.0,12.0,1.14686,0.941394
White,10,Right,19,Female,Yes,English,D,415,0,0,4,180.0,1.0,1.0,1459.09,1.0,414.0,12.0,1.16441,0.806525
White,10,Right,19,Female,Yes,English,D,416,1,0,8,0.0,0.0,1.0,1012.68,1.0,415.0,12.0,1.05775,0.931071
White,10,Right,19,Female,Yes,English,D,417,0,4,0,0.0,0.0,1.0,864.294,1.0,416.0,13.0,1.14453,0.948807
White,10,Right,19,Female,Yes,English,D,418,1,4,16,0.0,0.0,1.0,678.903,1.0,417.0,13.0,1.03821,0.895353
White,10,Right,19,Female,Yes,English,D,419,0,4,4,180.0,1.0,1.0,997.026,1.0,418.0,13.0,1.19937,0.981988
White,10,Right,19,Female,Yes,English,D,420,1,16,0,180.0,1.0,1.0,1397.9,1.0,419.0,13.0,1.14731,0.929448
White,10,Right,19,Female,Yes,English,D,421,1,0,0,180.0,1.0,1.0,1153.98,1.0,420.0,13.0,1.08802,0.803381
White,10,Right,19,Female,Yes,English,D,422,1,4,4,180.0,1.0,1.0,832.034,1.0,421.0,13.0,1.09706,0.936663
White,10,Right,19,Female,Yes,English,D,423,0,8,4,0.0,0.0,1.0,678.257,1.0,422.0,13.0,1.11799,0.956866
White,10,Right,19,Female,Yes,English,D,424,0,8,16,0.0,0.0,1.0,666.118,1.0,423.0,13.0,1.10627,0.868906
White,10,Right,19,Female,Yes,English,D,425,0,16,4,0.0,0.0,1.0,1789.23,1.0,424.0,13.0,1.05705,0.914104
White,10,Right,19,Female,Yes,English,D,426,0,0,4,0.0,0.0,1.0,600.745,1.0,425.0,13.0,1.13102,0.968446
White,10,Right,19,Female,Yes,English,D,427,0,8,8,180.0,1.0,1.0,862.095,1.0,426.0,13.0,1.17967,0.957609
White,10,Right,19,Female,Yes,English,D,428,1,0,8,0.0,0.0,1.0,719.949,1.0,427.0,13.0,1.04928,0.887666
White,10,Right,19,Female,Yes,English,D,429,1,16,8,180.0,1.0,1.0,626.159,1.0,428.0,13.0,1.05767,0.962704
White,10,Right,19,Female,Yes,English,D,430,1,16,4,0.0,0.0,1.0,826.853,1.0,429.0,13.0,1.00257,0.938932
White,10,Right,19,Female,Yes,English,D,431,1,0,16,0.0,0.0,1.0,522.295,1.0,430.0,13.0,1.10968,0.815542
White,10,Right,19,Female,Yes,English,D,432,0,16,0,0.0,0.0,1.0,1054.52,1.0,431.0,13.0,1.11434,0.95673
White,10,Right,19,Female,Yes,English,D,433,1,0,4,0.0,0.0,1.0,707.451,1.0,432.0,13.0,1.03198,0.876259
White,10,Right,19,Female,Yes,English,D,434,1,8,16,0.0,0.0,1.0,613.329,1.0,433.0,13.0,1.07644,0.924793
White,10,Right,19,Female,Yes,English,D,435,1,8,0,180.0,1.0,1.0,1003.08,1.0,434.0,13.0,1.16934,0.886931
White,10,Right,19,Female,Yes,English,D,436,1,4,0,180.0,1.0,1.0,892.515,1.0,435.0,13.0,1.16034,0.881212
White,10,Right,19,Female,Yes,English,D,437,0,0,8,0.0,0.0,1.0,1255.4,1.0,436.0,13.0,1.1259,0.9712
White,10,Right,19,Female,Yes,English,D,438,0,4,16,0.0,0.0,1.0,626.779,1.0,437.0,13.0,1.19896,0.911838
White,10,Right,19,Female,Yes,English,D,439,0,4,8,180.0,1.0,1.0,822.799,1.0,438.0,13.0,1.0748,0.962793
White,10,Right,19,Female,Yes,English,D,440,0,0,0,0.0,0.0,1.0,801.709,1.0,439.0,13.0,1.01204,0.932701
White,10,Right,19,Female,Yes,English,D,441,0,8,0,180.0,1.0,1.0,663.524,1.0,440.0,13.0,1.07691,0.963858
White,10,Right,19,Female,Yes,English,D,442,1,4,8,180.0,1.0,1.0,796.826,1.0,441.0,13.0,1.03446,0.945155
White,10,Right,19,Female,Yes,English,D,443,1,8,4,180.0,1.0,1.0,784.858,1.0,442.0,13.0,1.06566,0.905742
White,10,Right,19,Female,Yes,English,D,444,0,0,16,0.0,0.0,1.0,775.185,1.0,443.0,13.0,1.1684,0.8574
White,10,Right,19,Female,Yes,English,D,445,0,16,16,180.0,1.0,1.0,1982.93,1.0,444.0,13.0,1.07223,0.804786
White,10,Right,19,Female,Yes,English,D,446,1,8,8,180.0,1.0,1.0,986.866,1.0,445.0,13.0,1.14896,0.818969
White,10,Right,19,Female,Yes,English,D,447,1,16,16,180.0,1.0,1.0,999.101,1.0,446.0,13.0,1.14815,0.984329
White,10,Right,19,Female,Yes,English,D,448,0,16,8,180.0,1.0,1.0,1188.66,1.0,447.0,13.0,1.00809,0.839481
White,10,Right,19,Female,Yes,English,D,449,1,8,8,0.0,0.0,1.0,661.95,1.0,448.0,14.0,1.08609,0.951002
White,10,Right,19,Female,Yes,English,D,450,0,16,4,0.0,0.0,1.0,1068.94,1.0,449.0,14.0,1.11378,0.832421
White,10,Right,19,Female,Yes,English,D,451,0,4,8,180.0,1.0,1.0,711.457,1.0,450.0,14.0,1.09569,0.972143
White,10,Right,19,Female,Yes,English,D,452,1,4,4,180.0,1.0,1.0,950.996,1.0,451.0,14.0,1.17683,0.854017
White,10,Right,19,Female,Yes,English,D,453,1,4,8,180.0,1.0,1.0,1456.27,1.0,452.0,14.0,1.09784,0.953756
White,10,Right,19,Female,Yes,English,D,454,0,4,0,0.0,0.0,1.0,841.421,1.0,453.0,14.0,1.09148,0.841046
White,10,Right,19,Female,Yes,English,D,455,0,8,0,180.0,1.0,1.0,1436.26,1.0,454.0,14.0,1.1114,0.997108
White,10,Right,19,Female,Yes,English,D,456,0,0,4,180.0,1.0,1.0,1402.44,1.0,455.0,14.0,1.12087,0.889865
White,10,Right,19,Female,Yes,English,D,457,1,4,0,0.0,0.0,1.0,720.016,1.0,456.0,14.0,1.11022,0.88097
White,10,Right,19,Female,Yes,English,D,458,1,0,0,0.0,0.0,1.0,807.35,1.0,457.0,14.0,1.19209,0.820953
White,10,Right,19,Female,Yes,English,D,459,0,4,16,0.0,0.0,1.0,1219.56,1.0,458.0,14.0,1.11624,0.99343
White,10,Right,19,Female,Yes,English,D,460,1,16,0,180.0,1.0,1.0,892.283,1.0,459.0,14.0,1.06919,0.876666
White,10,Right,19,Female,Yes,English,D,461,0,0,8,0.0,0.0,1.0,836.044,1.0,460.0,14.0,1.19914,0.806716
White,10,Right,19,Female,Yes,English,D,462,0,8,8,180.0,1.0,1.0,1420.56,1.0,461.0,14.0,1.04668,0.964899
White,10,Right,19,Female,Yes,English,D,463,1,16,4,180.0,1.0,1.0,1979.87,1.0,462.0,14.0,1.05598,0.829421
White,10,Right,19,Female,Yes,English,D,464,0,8,16,0.0,0.0,1.0,1129.18,1.0,463.0,14.0,1.02219,0.806847
White,10,Right,19,Female,Yes,English,D,465,1,0,4,180.0,1.0,1.0,1424.32,1.0,464.0,14.0,1.05546,0.980245
White,10,Right,19,Female,Yes,English,D,466,0,0,0,180.0,1.0,1.0,670.419,1.0,465.0,14.0,1.07869,0.863971
White,10,Right,19,Female,Yes,English,D,467,1,8,0,0.0,0.0,1.0,804.063,1.0,466.0,14.0,1.06824,0.970585
White,10,Right,19,Female,Yes,English,D,468,1,0,16,180.0,1.0,1.0,658.17,1.0,467.0,14.0,1.10842,0.927141
White,10,Right,19,Female,Yes,English,D,469,0,16,0,180.0,1.0,1.0,1207.62,1.0,468.0,14.0,1.08808,0.879604
White,10,Right,19,Female,Yes,English,D,470,1,8,16,180.0,1.0,1.0,1211.13,1.0,469.0,14.0,1.15111,0.854304
White,10,Right,19,Female,Yes,English,D,471,1,16,8,0.0,0.0,1.0,900.987,1.0,470.0,14.0,1.00581,0.950023
White,10,Right,19,Female,Yes,English,D,472,1,16,16,0.0,0.0,1.0,653.597,1.0,471.0,14.0,1.1738,0.946485
White,10,Right,19,Female,Yes,English,D,473,1,4,16,180.0,1.0,1.0,897.706,1.0,472.0,14.0,1.02713,0.914531
White,10,Right,19,Female,Yes,English,D,474,0,16,16,0.0,0.0,1.0,936.465,1.0,473.0,14.0,1.17707,0.978317
White,10,Right,19,Female,Yes,English,D,475,1,0,8,180.0,1.0,1.0,852.326,1.0,474.0,14.0,1.12614,0.859662
White,10,Right,19,Female,Yes,English,D,476,0,16,8,180.0,1.0,1.0,976.97,1.0,475.0,14.0,1.09,0.830256
White,10,Right,19,Female,Yes,English,D,477,0,4,4,0.0,0.0,1.0,651.166,1.0,476.0,14.0,1.04788,0.827245
White,10,Right,19,Female,Yes,English,D,478,0,0,16,0.0,0.0,1.0,652.598,1.0,477.0,14.0,1.08847,0.850615
White,10,Right,19,Female,Yes,English,D,479,0,8,4,0.0,0.0,1.0,743.826,1.0,478.0,14.0,1.15038,0.903269
White,10,Right,19,Female,Yes,English,D,480,1,8,4,0.0,0.0,1.0,1133.14,1.0,479.0,14.0,1.0641,0.812925
White,10,Right,19,Female,Yes,English,D,481,0,4,16,0.0,0.0,1.0,636.281,1.0,480.0,15.0,1.103,0.953252
White,10,Right,19,Female,Yes,English,D,482,1,4,16,0.0,0.0,1.0,1302.17,1.0,481.0,15.0,1.079,0.929841
White,10,Right,19,Female,Yes,English,D,483,0,8,8,180.0,1.0,1.0,2354.32,1.0,482.0,15.0,1.02577,0.865459
White,10,Right,19,Female,Yes,English,D,484,1,0,16,0.0,0.0,1.0,961.812,1.0,483.0,15.0,1.08802,0.821947
White,10,Right,19,Female,Yes,English,D,485,0,16,4,0.0,0.0,1.0,770.163,1.0,484.0,15.0,1.12981,0.839952
White,10,Right,19,Female,Yes,English,D,486,1,0,4,0.0,0.0,1.0,775.058,1.0,485.0,15.0,1.04557,0.936965
White,10,Right,19,Female,Yes,English,D,487,0,4,4,0.0,0.0,1.0,883.969,1.0,486.0,15.0,1.09545,0.85686
White,10,Right,19,Female,Yes,English,D,488,0,16,8,180.0,1.0,1.0,1372.48,1.0,487.0,15.0,1.05073,0.961559
White,10,Right,19,Female,Yes,English,D,489,0,16,0,180.0,1.0,1.0,823.767,1.0,488.0,15.0,1.01196,0.967098
White,10,Right,19,Female,Yes,English,D,490,1,16,4,180.0,1.0,1.0,927.356,1.0,489.0,15.0,1.18719,0.868804
White,10,Right,19,Female,Yes,English,D,491,0,0,0,0.0,0.0,1.0,898.712,1.0,490.0,15.0,1.05607,0.935785
White,10,Right,19,Female,Yes,English,D,492,0,4,8,180.0,1.0,1.0,1351.89,1.0,491.0,15.0,1.00931,0.890971
White,10,Right,19,Female,Yes,English,D,493,1,4,0,180.0,1.0,1.0,773.369,1.0,492.0,15.0,1.07139,0.847413
White,10,Right,19,Female,Yes,English,D,494,1,8,16,180.0,1.0,1.0,729.385,1.0,493.0,15.0,1.03541,0.923091
White,10,Right,19,Female,Yes,English,D,495,0,0,8,180.0,1.0,1.0,722.475,1.0,494.0,15.0,1.14892,0.966256
White,10,Right,19,Female,Yes,English,D,496,0,8,4,180.0,1.0,1.0,871.994,1.0,495.0,15.0,1.13639,0.839191
White,10,Right,19,Female,Yes,English,D,497,0,8,16,0.0,0.0,1.0,769.674,1.0,496.0,15.0,1.17329,0.842735
White,10,Right,19,Female,Yes,English,D,498,1,8,8,0.0,0.0,1.0,736.233,1.0,497.0,15.0,1.17664,0.970682
White,10,Right,19,Female,Yes,English,D,499,1,8,4,0.0,0.0,1.0,1033.99,1.0,498.0,15.0,1.1734,0.856057
White,10,Right,19,Female,Yes,English,D,500,1,0,0,0.0,0.0,1.0,726.024,1.0,499.0,15.0,1.09991,0.97521
White,10,Right,19,Female,Yes,English,D,501,1,4,4,180.0,1.0,1.0,1038.79,1.0,500.0,15.0,1.01709,0.900384
White,10,Right,19,Female,Yes,English,D,502,1,0,8,180.0,1.0,1.0,692.125,1.0,501.0,15.0,1.12313,0.89564
White,10,Right,19,Female,Yes,English,D,503,0,0,16,0.0,0.0,1.0,665.261,1.0,502.0,15.0,1.15339,0.818888
White,10,Right,19,Female,Yes,English,D,504,1,8,0,0.0,0.0,1.0,710.546,1.0,503.0,15.0,1.0497,0.928266
White,10,Right,19,Female,Yes,English,D,505,0,0,4,0.0,0.0,1.0,880.313,1.0,504.0,15.0,1.1976,0.811418
White,10,Right,19,Female,Yes,English,D,506,1,16,0,0.0,0.0,1.0,773.175,1.0,505.0,15.0,1.06451,0.993589
White,10,Right,19,Female,Yes,English,D,507,0,8,0,180.0,1.0,1.0,737.303,1.0,506.0,15.0,1.1151,0.857769
White,10,Right,19,Female,Yes,English,D,508,1,16,8,180.0,1.0,1.0,833.32,1.0,507.0,15.0,1.04477,0.916761
White,10,Right,19,Female,Yes,English,D,509,0,4,0,180.0,1.0,1.0,1019.06,1.0,508.0,15.0,1.0507,0.898996
White,10,Right,19,Female,Yes,English,D,510,1,16,16,180.0,1.0,1.0,876.974,1.0,509.0,15.0,1.16152,0.848931
White,10,Right,19,Female,Yes,English,D,511,0,16,16,0.0,0.0,1.0,1477.34,1.0,510.0,15.0,1.0045,0.900541
White,10,Right,19,Female,Yes,English,D,512,1,4,8,180.0,1.0,1.0,669.12,1.0,511.0,15.0,1.00537,0.936716
White,10,Right,19,Female,Yes,English,D,513,1,8,16,0.0,0.0,1.0,811.328,1.0,512.0,16.0,1.02199,0.898823
White,10,Right,19,Female,Yes,English,D,514,0,8,4,0.0,0.0,1.0,1459.28,1.0,513.0,16.0,1.10719,0.994259
White,10,Right,19,Female,Yes,English,D,515,1,16,4,180.0,1.0,1.0,942.454,1.0,514.0,16.0,1.01484,0.864821
White,10,Right,19,Female,Yes,English,D,516,1,0,0,0.0,0.0,1.0,809.307,1.0,515.0,16.0,1.15649,0.9628
White,10,Right,19,Female,Yes,English,D,517,1,4,8,180.0,1.0,1.0,1181.15,1.0,516.0,16.0,1.0378,0.854528
White,10,Right,19,Female,Yes,English,D,518,1,0,4,180.0,1.0,1.0,641.142,1.0,517.0,16.0,1.12617,0.818711
White,10,Right,19,Female,Yes,English,D,519,0,0,0,180.0,1.0,1.0,723.988,1.0,518.0,16.0,1.10055,0.961527
White,10,Right,19,Female,Yes,English,D,520,0,4,8,0.0,0.0,1.0,699.035,1.0,519.0,16.0,1.08056,0.967192
White,10,Right,19,Female,Yes,English,D,521,1,4,4,180.0,1.0,1.0,775.571,1.0,520.0,16.0,1.14046,0.991191
White,10,Right,19,Female,Yes,English,D,522,0,16,4,180.0,1.0,1.0,866.504,1.0,521.0,16.0,1.10285,0.852211
White,10,Right,19,Female,Yes,English,D,523,0,0,8,180.0,1.0,1.0,954.179,1.0,522.0,16.0,1.05439,0.860866
White,10,Right,19,Female,Yes,English,D,524,0,16,0,0.0,0.0,1.0,1017.5,1.0,523.0,16.0,1.12079,0.933862
White,10,Right,19,Female,Yes,English,D,525,0,0,16,0.0,0.0,1.0,906.462,1.0,524.0,16.0,1.08726,0.895834
White,10,Right,19,Female,Yes,English,D,526,1,16,16,0.0,0.0,1.0,827.367,1.0,525.0,16.0,1.17293,0.967191
White,10,Right,19,Female,Yes,English,D,527,1,8,8,180.0,1.0,1.0,905.049,1.0,526.0,16.0,1.00095,0.826648
White,10,Right,19,Female,Yes,English,D,528,0,8,0,0.0,0.0,1.0,1014.0,1.0,527.0,16.0,1.07187,0.960763
White,10,Right,19,Female,Yes,English,D,529,0,0,4,0.0,0.0,1.0,850.026,1.0,528.0,16.0,1.11411,0.896005
White,10,Right,19,Female,Yes,English,D,530,1,8,4,0.0,0.0,1.0,931.362,1.0,529.0,16.0,1.06775,0.937647
White,10,Right,19,Female,Yes,English,D,531,1,4,0,180.0,1.0,1.0,1110.53,1.0,530.0,16.0,1.05379,0.846139
White,10,Right,19,Female,Yes,English,D,532,1,0,16,0.0,0.0,1.0,738.295,1.0,531.0,16.0,1.08243,0.859948
White,10,Right,19,Female,Yes,English,D,533,0,4,16,0.0,0.0,1.0,709.284,1.0,532.0,16.0,1.0683,0.910132
White,10,Right,19,Female,Yes,English,D,534,0,16,8,0.0,0.0,1.0,765.053,1.0,533.0,16.0,1.02427,0.934633
White,10,Right,19,Female,Yes,English,D,535,0,4,4,180.0,1.0,1.0,650.583,1.0,534.0,16.0,1.16895,0.809169
White,10,Right,19,Female,Yes,English,D,536,1,16,8,180.0,1.0,1.0,904.49,1.0,535.0,16.0,1.04397,0.992341
White,10,Right,19,Female,Yes,English,D,537,0,16,16,180.0,1.0,1.0,923.787,1.0,536.0,16.0,1.00704,0.932164
White,10,Right,19,Female,Yes,English,D,538,1,8,0,0.0,0.0,1.0,850.002,1.0,537.0,16.0,1.07618,0.816454
White,10,Right,19,Female,Yes,English,D,539,1,4,16,180.0,1.0,1.0,978.844,1.0,538.0,16.0,1.05413,0.99703
White,10,Right,19,Female,Yes,English,D,540,0,8,16,180.0,1.0,1.0,767.092,1.0,539.0,16.0,1.1611,0.837009
White,10,Right,19,Female,Yes,English,D,541,0,8,8,180.0,1.0,1.0,768.328,1.0,540.0,16.0,1.15399,0.866061
White,10,Right,19,Female,Yes,English,D,542,1,0,8,0.0,0.0,1.0,1314.11,1.0,541.0,16.0,1.10232,0.951507
White,10,Right,19,Female,Yes,English,D,543,0,4,0,180.0,1.0,1.0,671.756,1.0,542.0,16.0,1.16966,0.910469
White,10,Right,19,Female,Yes,English,D,544,1,16,0,0.0,0.0,1.0,1310.92,1.0,543.0,16.0,1.06006,0.99154
White,10,Right,19,Female,Yes,English,D,545,1,4,4,0.0,0.0,1.0,1051.1,1.0,544.0,17.0,1.19835,0.922597
White,10,Right,19,Female,Yes,English,D,546,0,8,0,180.0,1.0,1.0,935.109,1.0,545.0,17.0,1.03991,0.890487
White,10,Right,19,Female,Yes,English,D,547,0,8,4,0.0,0.0,1.0,734.53,1.0,546.0,17.0,1.16597,0.880279
White,10,Right,19,Female,Yes,English,D,548,0,0,4,0.0,0.0,1.0,641.555,1.0,547.0,17.0,1.03384,0.879063
White,10,Right,19,Female,Yes,English,D,549,0,8,8,180.0,1.0,1.0,1779.29,1.0,548.0,17.0,1.06614,0.897254
White,10,Right,19,Female,Yes,English,D,550,0,4,4,0.0,0.0,1.0,955.488,1.0,549.0,17.0,1.10343,0.851679
White,10,Right,19,Female,Yes,English,D,551,1,16,8,180.0,1.0,1.0,1069.83,1.0,550.0,17.0,1.18508,0.976842
White,10,Right,19,Female,Yes,English,D,552,0,0,8,0.0,0.0,1.0,657.58,1.0,551.0,17.0,1.03749,0.966323
White,10,Right,19,Female,Yes,English,D,553,0,4,8,180.0,1.0,1.0,1484.69,1.0,552.0,17.0,1.19825,0.939226
White,10,Right,19,Female,Yes,English,D,554,1,16,16,0.0,0.0,1.0,709.797,1.0,553.0,17.0,1.1468,0.841103
White,10,Right,19,Female,Yes,English,D,555,1,8,16,0.0,0.0,1.0,799.856,1.0,554.0,17.0,1.01109,0.969457
White,10,Right,19,Female,Yes,English,D,556,1,4,8,0.0,0.0,1.0,907.581,1.0,555.0,17.0,1.14972,0.895274
White,10,Right,19,Female,Yes,English,D,557,0,16,4,0.0,0.0,1.0,650.832,1.0,556.0,17.0,1.0107,0.887183
White,10,Right,19,Female,Yes,English,D,558,0,0,0,180.0,1.0,1.0,811.272,1.0,557.0,17.0,1.02974,0.94565
White,10,Right,19,Female,Yes,English,D,559,1,0,4,180.0,1.0,1.0,1173.03,1.0,558.0,17.0,1.10396,0.937
White,10,Right,19,Female,Yes,English,D,560,1,8,8,180.0,1.0,1.0,728.78,1.0,559.0,17.0,1.02481,0.947722
White,10,Right,19,Female,Yes,English,D,561,1,16,4,0.0,0.0,1.0,702.57,1.0,560.0,17.0,1.06576,0.961336
White,10,Right,19,Female,Yes,English,D,562,0,4,0,180.0,1.0,1.0,929.001,1.0,561.0,17.0,1.05106,0.850659
White,10,Right,19,Female,Yes,English,D,563,0,16,8,180.0,1.0,1.0,1107.6,1.0,562.0,17.0,1.0362,0.905816
White,10,Right,19,Female,Yes,English,D,564,0,16,0,180.0,1.0,1.0,850.697,1.0,563.0,17.0,1.14557,0.936778
White,10,Right,19,Female,Yes,English,D,565,0,4,16,180.0,1.0,1.0,786.614,1.0,564.0,17.0,1.13768,0.877293
White,10,Right,19,Female,Yes,English,D,566,1,0,0,0.0,0.0,1.0,737.437,1.0,565.0,17.0,1.17085,0.998298
White,10,Right,19,Female,Yes,English,D,567,1,16,0,180.0,1.0,1.0,773.295,1.0,566.0,17.0,1.01651,0.967444
White,10,Right,19,Female,Yes,English,D,568,1,8,0,0.0,0.0,1.0,731.553,1.0,567.0,17.0,1.08606,0.816126
White,10,Right,19,Female,Yes,English,D,569,1,4,16,180.0,1.0,1.0,706.95,1.0,568.0,17.0,1.08833,0.980939
White,10,Right,19,Female,Yes,English,D,570,1,0,8,180.0,1.0,1.0,809.886,1.0,569.0,17.0,1.00467,0.877956
White,10,Right,19,Female,Yes,English,D,571,1,8,4,180.0,1.0,1.0,705.013,1.0,570.0,17.0,1.08058,0.816883
White,10,Right,19,Female,Yes,English,D,572,0,8,16,180.0,1.0,1.0,865.611,1.0,571.0,17.0,1.17134,0.907748
White,10,Right,19,Female,Yes,English,D,573,0,16,16,0.0,0.0,1.0,858.434,1.0,572.0,17.0,1.14676,0.827862
White,10,Right,19,Female,Yes,English,D,574,1,0,16,0.0,0.0,1.0,657.448,1.0,573.0,17.0,1.0123,0.822332
White,10,Right,19,Female,Yes,English,D,575,1,4,0,0.0,0.0,1.0,815.667,1.0,574.0,17.0,1.08471,0.919891
White,10,Right,19,Female,Yes,English,D,576,0,0,16,0.0,0.0,1.0,1033.33,1.0,575.0,17.0,1.16159,0.810116
White,10,Right,19,Female,Yes,English,D,577,1,4,8,180.0,1.0,1.0,1470.69,1.0,576.0,18.0,1.10581,0.974377
White,10,Right,19,Female,Yes,English,D,578,1,0,8,180.0,1.0,1.0,1076.09,1.0,577.0,18.0,1.01955,0.921036
White,10,Right,19,Female,Yes,English,D,579,1,16,8,0.0,0.0,1.0,783.328,1.0,578.0,18.0,1.18332,0.844967
White,10,Right,19,Female,Yes,English,D,580,0,0,8,0.0,0.0,1.0,1199.1,1.0,579.0,18.0,1.02884,0.862316
White,10,Right,19,Female,Yes,English,D,581,0,0,16,0.0,0.0,1.0,765.285,1.0,580.0,18.0,1.00546,0.805342
White,10,Right,19,Female,Yes,English,D,582,0,4,8,0.0,0.0,1.0,1556.57,1.0,581.0,18.0,1.18496,0.969015
White,10,Right,19,Female,Yes,English,D,583,1,16,16,180.0,1.0,1.0,872.718,1.0,582.0,18.0,1.00353,0.887954
White,10,Right,19,Female,Yes,English,D,584,0,8,4,180.0,1.0,1.0,1202.46,1.0,583.0,18.0,1.18263,0.940166
White,10,Right,19,Female,Yes,English,D,585,0,16,4,180.0,1.0,1.0,1113.48,1.0,584.0,18.0,1.11029,0.800761
White,10,Right,19,Female,Yes,English,D,586,0,16,0,0.0,0.0,1.0,1120.92,1.0,585.0,18.0,1.15329,0.98057
White,10,Right,19,Female,Yes,English,D,587,1,0,16,0.0,0.0,1.0,1471.76,1.0,586.0,18.0,1.19881,0.841376
White,10,Right,19,Female,Yes,English,D,588,1,8,4,180.0,1.0,1.0,2084.06,1.0,587.0,18.0,1.00019,0.876647
White,10,Right,19,Female,Yes,English,D,589,0,4,4,0.0,0.0,1.0,1101.54,1.0,588.0,18.0,1.10215,0.971973
White,10,Right,19,Female,Yes,English,D,590,0,8,8,180.0,1.0,1.0,706.706,1.0,589.0,18.0,1.07804,0.983705
White,10,Right,19,Female,Yes,English,D,591,1,8,8,180.0,1.0,1.0,813.41,1.0,590.0,18.0,1.15335,0.884767
White,10,Right,19,Female,Yes,English,D,592,1,8,16,180.0,1.0,1.0,755.908,1.0,591.0,18.0,1.09632,0.971294
White,10,Right,19,Female,Yes,English,D,593,1,16,0,0.0,0.0,1.0,977.352,1.0,592.0,18.0,1.09341,0.946913
White,10,Right,19,Female,Yes,English,D,594,0,16,8,180.0,1.0,1.0,607.639,1.0,593.0,18.0,1.03402,0.853723
White,10,Right,19,Female,Yes,English,D,595,0,16,16,180.0,1.0,1.0,742.48,1.0,594.0,18.0,1.07032,0.819189
White,10,Right,19,Female,Yes,English,D,596,0,4,16,0.0,0.0,1.0,521.13,1.0,595.0,18.0,1.02767,0.887703
White,10,Right,19,Female,Yes,English,D,597,1,4,4,0.0,0.0,1.0,701.121,1.0,596.0,18.0,1.03679,0.885656
White,10,Right,19,Female,Yes,English,D,598,1,4,0,0.0,0.0,1.0,686.942,1.0,597.0,18.0,1.06452,0.892417
White,10,Right,19,Female,Yes,English,D,599,0,8,0,0.0,0.0,1.0,957.422,1.0,598.0,18.0,1.08683,0.909291
White,10,Right,19,Female,Yes,English,D,600,0,0,4,0.0,0.0,1.0,662.277,1.0,599.0,18.0,1.18503,0.83086
White,10,Right,19,Female,Yes,English,D,601,1,16,4,180.0,1.0,1.0,1142.47,1.0,600.0,18.0,1.0495,0.946173
White,10,Right,19,Female,Yes,English,D,602,0,0,0,180.0,1.0,1.0,1157.45,1.0,601.0,18.0,1.1319,0.995732
White,10,Right,19,Female,Yes,English,D,603,0,4,0,0.0,0.0,1.0,868.657,1.0,602.0,18.0,1.04238,0.949225
White,10,Right,19,Female,Yes,English,D,604,1,0,4,0.0,0.0,1.0,825.537,1.0,603.0,18.0,1.01141,0.861648
White,10,Right,19,Female,Yes,English,D,605,1,4,16,180.0,1.0,1.0,2033.56,1.0,604.0,18.0,1.1459,0.989072
White,10,Right,19,Female,Yes,English,D,606,1,0,0,0.0,0.0,1.0,869.277,1.0,605.0,18.0,1.10891,0.885297
White,10,Right,19,Female,Yes,English,D,607,1,8,0,180.0,1.0,1.0,1032.21,1.0,606.0,18.0,1.14266,0.896742
White,10,Right,19,Female,Yes,English,D,608,0,8,16,180.0,1.0,1.0,1311.86,1.0,607.0,18.0,1.10773,0.827396
White,10,Right,19,Female,Yes,English,D,609,0,4,0,0.0,0.0,1.0,924.721,1.0,608.0,19.0,1.12974,0.863978
White,10,Right,19,Female,Yes,English,D,610,0,8,8,0.0,0.0,1.0,958.846,1.0,609.0,19.0,1.1143,0.882182
White,10,Right,19,Female,Yes,English,D,611,0,16,8,0.0,0.0,1.0,793.162,1.0,610.0,19.0,1.05649,0.812242
White,10,Right,19,Female,Yes,English,D,612,1,8,0,180.0,1.0,1.0,807.993,1.0,611.0,19.0,1.02967,0.834397
White,10,Right,19,Female,Yes,English,D,613,0,8,4,0.0,0.0,1.0,1078.53,1.0,612.0,19.0,1.15501,0.922892
White,10,Right,19,Female,Yes,English,D,614,1,4,8,0.0,0.0,1.0,711.098,1.0,613.0,19.0,1.01532,0.929648
White,10,Right,19,Female,Yes,English,D,615,0,4,4,180.0,1.0,1.0,608.638,1.0,614.0,19.0,1.18644,0.840746
White,10,Right,19,Female,Yes,English,D,616,0,0,8,0.0,0.0,1.0,952.532,1.0,615.0,19.0,1.04893,0.845921
White,10,Right,19,Female,Yes,English,D,617,0,4,8,180.0,1.0,1.0,687.836,1.0,616.0,19.0,1.13759,0.891873
White,10,Right,19,Female,Yes,English,D,618,0,16,0,180.0,1.0,1.0,878.488,1.0,617.0,19.0,1.16115,0.844218
White,10,Right,19,Female,Yes,English,D,619,1,4,16,0.0,0.0,1.0,1186.97,1.0,618.0,19.0,1.18516,0.973215
White,10,Right,19,Female,Yes,English,D,620,0,0,4,180.0,1.0,1.0,948.033,1.0,619.0,19.0,1.07425,0.96856
White,10,Right,19,Female,Yes,English,D,621,1,0,0,180.0,1.0,1.0,657.335,1.0,620.0,19.0,1.18588,0.927706
White,10,Right,19,Female,Yes,English,D,622,1,8,8,180.0,1.0,1.0,805.076,1.0,621.0,19.0,1.10835,0.920892
White,10,Right,19,Female,Yes,English,D,623,1,8,16,0.0,0.0,1.0,822.661,1.0,622.0,19.0,1.16426,0.979271
White,10,Right,19,Female,Yes,English,D,624,1,16,0,180.0,1.0,1.0,846.044,1.0,623.0,19.0,1.00522,0.900762
White,10,Right,19,Female,Yes,English,D,625,1,0,4,180.0,1.0,1.0,824.061,1.0,624.0,19.0,1.00594,0.88699
White,10,Right,19,Female,Yes,English,D,626,0,8,16,180.0,1.0,1.0,732.086,1.0,625.0,19.0,1.08201,0.88766
White,10,Right,19,Female,Yes,English,D,627,1,4,4,180.0,1.0,1.0,646.881,1.0,626.0,19.0,1.05746,0.94781
White,10,Right,19,Female,Yes,English,D,628,0,4,16,180.0,1.0,1.0,1468.74,1.0,627.0,19.0,1.03781,0.955092
White,10,Right,19,Female,Yes,English,D,629,0,8,0,0.0,0.0,1.0,861.049,1.0,628.0,19.0,1.00357,0.934072
White,10,Right,19,Female,Yes,English,D,630,1,16,4,180.0,1.0,1.0,762.995,1.0,629.0,19.0,1.15176,0.915605
White,10,Right,19,Female,Yes,English,D,631,1,4,0,180.0,1.0,1.0,617.481,1.0,630.0,19.0,1.12073,0.847202
White,10,Right,19,Female,Yes,English,D,632,0,0,16,0.0,0.0,1.0,970.304,1.0,631.0,19.0,1.15939,0.979564
White,10,Right,19,Female,Yes,English,D,633,1,8,4,180.0,1.0,1.0,987.026,1.0,632.0,19.0,1.02494,0.840929
White,10,Right,19,Female,Yes,English,D,634,1,16,8,0.0,0.0,1.0,1382.45,1.0,633.0,19.0,1.0675,0.819874
White,10,Right,19,Female,Yes,English,D,635,1,0,16,0.0,0.0,1.0,783.495,1.0,634.0,19.0,1.12146,0.890572
White,10,Right,19,Female,Yes,English,D,636,0,16,16,0.0,0.0,1.0,1054.41,1.0,635.0,19.0,1.07713,0.902572
White,10,Right,19,Female,Yes,English,D,637,0,0,0,0.0,0.0,1.0,627.33,1.0,636.0,19.0,1.08045,0.952805
White,10,Right,19,Female,Yes,English,D,638,0,16,4,0.0,0.0,1.0,1092.71,1.0,637.0,19.0,1.14942,0.990514
White,10,Right,19,Female,Yes,English,D,639,1,0,8,0.0,0.0,1.0,864.612,1.0,638.0,19.0,1.036,0.837793
White,10,Right,19,Female,Yes,English,D,640,1,16,16,180.0,1.0,1.0,1066.71,1.0,639.0,19.0,1.07418,0.866664
White,10,Right,19,Female,Yes,English,D,641,1,0,16,0.0,0.0,1.0,604.381,1.0,640.0,20.0,1.04522,0.969966
White,10,Right,19,Female,Yes,English,D,642,1,16,16,180.0,1.0,1.0,888.713,1.0,641.0,20.0,1.14232,0.984114
White,10,Right,19,Female,Yes,English,D,643,0,8,4,180.0,1.0,1.0,1420.98,1.0,642.0,20.0,1.08119,0.810492
White,10,Right,19,Female,Yes,English,D,644,0,0,4,180.0,1.0,1.0,945.075,1.0,643.0,20.0,1.12796,0.992234
White,10,Right,19,Female,Yes,English,D,645,1,8,16,180.0,1.0,1.0,665.476,1.0,644.0,20.0,1.03593,0.965294
White,10,Right,19,Female,Yes,English,D,646,0,4,8,0.0,0.0,1.0,1012.35,1.0,645.0,20.0,1.15099,0.825634
White,10,Right,19,Female,Yes,English,D,647,1,4,8,180.0,1.0,1.0,1691.78,1.0,646.0,20.0,1.18405,0.894514
White,10,Right,19,Female,Yes,English,D,648,0,0,0,0.0,0.0,1.0,737.533,1.0,647.0,20.0,1.13636,0.848948
White,10,Right,19,Female,Yes,English,D,649,1,0,0,0.0,0.0,1.0,777.929,1.0,648.0,20.0,1.10227,0.885868
White,10,Right,19,Female,Yes,English,D,650,1,16,0,0.0,0.0,1.0,994.602,1.0,649.0,20.0,1.05036,0.891043
White,10,Right,19,Female,Yes,English,D,651,1,16,4,180.0,1.0,1.0,654.415,1.0,650.0,20.0,1.01474,0.876158
White,10,Right,19,Female,Yes,English,D,652,0,16,4,0.0,0.0,1.0,879.138,1.0,651.0,20.0,1.07001,0.89999
White,10,Right,19,Female,Yes,English,D,653,1,8,0,180.0,1.0,1.0,743.739,1.0,652.0,20.0,1.14043,0.961951
White,10,Right,19,Female,Yes,English,D,654,0,8,0,0.0,0.0,1.0,1102.34,1.0,653.0,20.0,1.10635,0.970434
White,10,Right,19,Female,Yes,English,D,655,0,0,8,180.0,1.0,1.0,738.001,1.0,654.0,20.0,1.05575,0.900084
White,10,Right,19,Female,Yes,English,D,656,0,8,8,0.0,0.0,1.0,786.734,1.0,655.0,20.0,1.05942,0.982399
White,10,Right,19,Female,Yes,English,D,657,0,16,8,180.0,1.0,1.0,1096.69,1.0,656.0,20.0,1.15842,0.956649
White,10,Right,19,Female,Yes,English,D,658,1,0,4,180.0,1.0,1.0,691.427,1.0,657.0,20.0,1.07562,0.87318
White,10,Right,19,Female,Yes,English,D,659,0,4,0,0.0,0.0,1.0,975.087,1.0,658.0,20.0,1.15364,0.944203
White,10,Right,19,Female,Yes,English,D,660,1,4,4,0.0,0.0,1.0,1470.43,1.0,659.0,20.0,1.14993,0.812947
White,10,Right,19,Female,Yes,English,D,661,0,4,4,0.0,0.0,1.0,891.963,1.0,660.0,20.0,1.0657,0.890023
White,10,Right,19,Female,Yes,English,D,662,1,4,16,0.0,0.0,1.0,654.918,1.0,661.0,20.0,1.05507,0.940297
White,10,Right,19,Female,Yes,English,D,663,0,4,16,180.0,1.0,1.0,1127.54,1.0,662.0,20.0,1.17017,0.891071
White,10,Right,19,Female,Yes,English,D,664,0,0,16,180.0,1.0,1.0,1283.43,1.0,663.0,20.0,1.08578,0.969837
White,10,Right,19,Female,Yes,English,D,665,0,8,16,0.0,0.0,1.0,1535.68,1.0,664.0,20.0,1.15505,0.803313
White,10,Right,19,Female,Yes,English,D,666,1,16,8,180.0,1.0,1.0,1560.54,1.0,665.0,20.0,1.15539,0.920098
White,10,Right,19,Female,Yes,English,D,667,1,0,8,0.0,0.0,1.0,1261.55,1.0,666.0,20.0,1.16386,0.970836
White,10,Right,19,Female,Yes,English,D,668,0,16,16,180.0,1.0,1.0,982.891,1.0,667.0,20.0,1.07385,0.805923
White,10,Right,19,Female,Yes,English,D,669,1,8,4,180.0,1.0,1.0,1180.35,1.0,668.0,20.0,1.0956,0.848814
White,10,Right,19,Female,Yes,English,D,670,1,4,0,180.0,1.0,1.0,600.847,1.0,669.0,20.0,1.17451,0.881618
White,10,Right,19,Female,Yes,English,D,671,0,16,0,0.0,0.0,1.0,1159.59,1.0,670.0,20.0,1.09183,0.994213
White,10,Right,19,Female,Yes,English,D,672,1,8,8,0.0,0.0,1.0,1055.07,1.0,671.0,20.0,1.09624,0.964766
White,10,Right,19,Female,Yes,English,D,673,1,4,4,180.0,1.0,1.0,819.67,1.0,672.0,21.0,1.07102,0.952977
White,10,Right,19,Female,Yes,English,D,674,1,4,16,180.0,1.0,1.0,516.582,1.0,673.0,21.0,1.00709,0.982569
White,10,Right,19,Female,Yes,English,D,675,1,16,16,0.0,0.0,1.0,632.961,1.0,674.0,21.0,1.00996,0.859477
White,10,Right,19,Female,Yes,English,D,676,0,8,4,180.0,1.0,1.0,805.211,1.0,675.0,21.0,1.00239,0.945563
White,10,Right,19,Female,Yes,English,D,677,0,0,0,180.0,1.0,1.0,536.873,1.0,676.0,21.0,1.03143,0.856516
White,10,Right,19,Female,Yes,English,D,678,0,4,8,180.0,1.0,1.0,974.698,1.0,677.0,21.0,1.01474,0.910177
White,10,Right,19,Female,Yes,English,D,679,1,8,8,0.0,0.0,1.0,885.86,1.0,678.0,21.0,1.05858,0.885353
White,10,Right,19,Female,Yes,English,D,680,0,8,16,180.0,1.0,1.0,1274.92,1.0,679.0,21.0,1.0812,0.966139
White,10,Right,19,Female,Yes,English,D,681,1,8,0,180.0,1.0,1.0,797.55,1.0,680.0,21.0,1.17194,0.900471
White,10,Right,19,Female,Yes,English,D,682,0,8,8,0.0,0.0,1.0,630.065,1.0,681.0,21.0,1.02572,0.982965
White,10,Right,19,Female,Yes,English,D,683,0,0,4,0.0,0.0,1.0,1042.48,1.0,682.0,21.0,1.04313,0.802266
White,10,Right,19,Female,Yes,English,D,684,0,16,4,0.0,0.0,1.0,770.497,1.0,683.0,21.0,1.00389,0.900032
White,10,Right,19,Female,Yes,English,D,685,1,0,16,180.0,1.0,1.0,1360.72,1.0,684.0,21.0,1.11089,0.870471
White,10,Right,19,Female,Yes,English,D,686,1,0,8,0.0,0.0,1.0,675.363,1.0,685.0,21.0,1.12599,0.900659
White,10,Right,19,Female,Yes,English,D,687,1,16,8,180.0,1.0,1.0,824.507,1.0,686.0,21.0,1.18562,0.871549
White,10,Right,19,Female,Yes,English,D,688,1,4,8,0.0,0.0,1.0,974.163,1.0,687.0,21.0,1.10146,0.855997
White,10,Right,19,Female,Yes,English,D,689,1,0,0,0.0,0.0,1.0,684.017,1.0,688.0,21.0,1.0256,0.956582
White,10,Right,19,Female,Yes,English,D,690,1,8,16,180.0,1.0,1.0,1303.47,1.0,689.0,21.0,1.1103,0.917634
White,10,Right,19,Female,Yes,English,D,691,1,16,0,180.0,1.0,1.0,691.486,1.0,690.0,21.0,1.16817,0.80957
White,10,Right,19,Female,Yes,English,D,692,0,16,0,180.0,1.0,1.0,741.178,1.0,691.0,21.0,1.18996,0.851509
White,10,Right,19,Female,Yes,English,D,693,0,4,4,0.0,0.0,1.0,655.007,1.0,692.0,21.0,1.18622,0.878592
White,10,Right,19,Female,Yes,English,D,694,1,16,4,180.0,1.0,1.0,1085.14,1.0,693.0,21.0,1.08583,0.807189
White,10,Right,19,Female,Yes,English,D,695,0,4,0,0.0,0.0,1.0,968.99,1.0,694.0,21.0,1.11351,0.953155
White,10,Right,19,Female,Yes,English,D,696,0,16,8,180.0,1.0,1.0,1830.09,1.0,695.0,21.0,1.05097,0.997488
White,10,Right,19,Female,Yes,English,D,697,0,8,0,0.0,0.0,1.0,941.631,1.0,696.0,21.0,1.05799,0.929807
White,10,Right,19,Female,Yes,English,D,698,0,0,16,0.0,0.0,1.0,722.134,1.0,697.0,21.0,1.18613,0.867597
White,10,Right,19,Female,Yes,English,D,699,0,4,16,180.0,1.0,1.0,765.071,1.0,698.0,21.0,1.06536,0.973133
White,10,Right,19,Female,Yes,English,D,700,0,0,8,0.0,0.0,1.0,806.131,1.0,699.0,21.0,1.03503,0.955943
White,10,Right,19,Female,Yes,English,D,701,1,0,4,0.0,0.0,1.0,1204.82,1.0,700.0,21.0,1.09083,0.973522
White,10,Right,19,Female,Yes,English,D,702,1,4,0,180.0,1.0,1.0,1041.1,1.0,701.0,21.0,1.04829,0.964343
White,10,Right,19,Female,Yes,English,D,703,0,16,16,0.0,0.0,1.0,796.691,1.0,702.0,21.0,1.102,0.850503
White,10,Right,19,Female,Yes,English,D,704,1,8,4,0.0,0.0,1.0,1335.85,1.0,703.0,21.0,1.08778,0.997692
White,10,Right,19,Female,Yes,English,D,705,1,8,8,180.0,1.0,1.0,736.691,1.0,704.0,22.0,1.0595,0.897077
White,10,Right,19,Female,Yes,English,D,706,1,4,8,0.0,0.0,1.0,856.111,1.0,705.0,22.0,1.00882,0.86185
White,10,Right,19,Female,Yes,English,D,707,1,0,4,180.0,1.0,1.0,851.88,1.0,706.0,22.0,1.02133,0.908069
White,10,Right,19,Female,Yes,English,D,708,1,0,16,0.0,0.0,1.0,1119.07,1.0,707.0,22.0,1.04548,0.873801
White,10,Right,19,Female,Yes,English,D,709,1,16,0,0.0,0.0,1.0,606.014,1.0,708.0,22.0,1.08852,0.915968
White,10,Right,19,Female,Yes,English,D,710,0,4,8,0.0,0.0,1.0,1291.62,1.0,709.0,22.0,1.09618,0.826776
White,10,Right,19,Female,Yes,English,D,711,1,0,0,0.0,0.0,1.0,2233.88,1.0,710.0,22.0,1.08857,0.867647
White,10,Right,19,Female,Yes,English,D,712,1,16,4,0.0,0.0,1.0,695.279,1.0,711.0,22.0,1.00362,0.869892
White,10,Right,19,Female,Yes,English,D,713,1,4,0,180.0,1.0,1.0,1042.93,1.0,712.0,22.0,1.11288,0.916573
White,10,Right,19,Female,Yes,English,D,714,0,8,8,180.0,1.0,1.0,873.153,1.0,713.0,22.0,1.055,0.941812
White,10,Right,19,Female,Yes,English,D,715,0,8,4,0.0,0.0,1.0,1283.58,1.0,714.0,22.0,1.02009,0.835159
White,10,Right,19,Female,Yes,English,D,716,0,0,4,0.0,0.0,1.0,684.792,1.0,715.0,22.0,1.12587,0.940914
White,10,Right,19,Female,Yes,English,D,717,1,4,16,180.0,1.0,1.0,1002.16,1.0,716.0,22.0,1.13239,0.837862
White,10,Right,19,Female,Yes,English,D,718,0,0,8,0.0,0.0,1.0,1012.83,1.0,717.0,22.0,1.02983,0.923228
White,10,Right,19,Female,Yes,English,D,719,0,16,0,180.0,1.0,1.0,1127.75,1.0,718.0,22.0,1.02792,0.984162
White,10,Right,19,Female,Yes,English,D,720,0,4,16,180.0,1.0,1.0,1109.53,1.0,719.0,22.0,1.17747,0.805261
White,10,Right,19,Female,Yes,English,D,721,0,8,16,0.0,0.0,1.0,2372.17,1.0,720.0,22.0,1.07279,0.91167
White,10,Right,19,Female,Yes,English,D,722,1,4,4,0.0,0.0,1.0,1091.3,1.0,721.0,22.0,1.1283,0.845671
White,10,Right,19,Female,Yes,English,D,723,0,4,4,0.0,0.0,1.0,1618.75,1.0,722.0,22.0,1.1244,0.86859
White,10,Right,19,Female,Yes,English,D,724,0,0,16,0.0,0.0,1.0,933.129,1.0,723.0,22.0,1.12526,0.965896
White,10,Right,19,Female,Yes,English,D,725,0,8,0,180.0,1.0,1.0,597.607,1.0,724.0,22.0,1.04533,0.855411
White,10,Right,19,Female,Yes,English,D,726,0,0,0,0.0,0.0,1.0,629.479,1.0,725.0,22.0,1.05036,0.930102
White,10,Right,19,Female,Yes,English,D,727,1,0,8,180.0,1.0,1.0,1002.54,1.0,726.0,22.0,1.02113,0.860632
White,10,Right,19,Female,Yes,English,D,728,1,8,4,180.0,1.0,1.0,974.061,1.0,727.0,22.0,1.0608,0.941315
White,10,Right,19,Female,Yes,English,D,729,0,16,4,180.0,1.0,1.0,1472.37,1.0,728.0,22.0,1.08725,0.851522
White,10,Right,19,Female,Yes,English,D,730,0,4,0,180.0,1.0,1.0,845.492,1.0,729.0,22.0,1.17605,0.933284
White,10,Right,19,Female,Yes,English,D,731,1,8,0,180.0,1.0,1.0,770.738,1.0,730.0,22.0,1.07177,0.958509
White,10,Right,19,Female,Yes,English,D,732,0,16,16,180.0,1.0,1.0,636.146,1.0,731.0,22.0,1.14858,0.900355
White,10,Right,19,Female,Yes,English,D,733,1,16,8,0.0,0.0,1.0,1183.69,1.0,732.0,22.0,1.15697,0.803341
White,10,Right,19,Female,Yes,English,D,734,1,16,16,180.0,1.0,1.0,737.136,1.0,733.0,22.0,1.16824,0.996477
White,10,Right,19,Female,Yes,English,D,735,0,16,8,180.0,1.0,1.0,956.707,1.0,734.0,22.0,1.07833,0.882102
White,10,Right,19,Female,Yes,English,D,736,1,8,16,0.0,0.0,1.0,1307.85,1.0,735.0,22.0,1.00534,0.949167
White,10,Right,19,Female,Yes,English,D,737,1,0,16,180.0,1.0,1.0,1660.46,1.0,736.0,23.0,1.10011,0.845592
White,10,Right,19,Female,Yes,English,D,738,1,8,16,0.0,0.0,1.0,1572.7,1.0,737.0,23.0,1.0863,0.815983
White,10,Right,19,Female,Yes,English,D,739,0,4,0,0.0,0.0,1.0,756.26,1.0,738.0,23.0,1.05536,0.904444
White,10,Right,19,Female,Yes,English,D,740,1,8,4,180.0,1.0,1.0,720.659,1.0,739.0,23.0,1.16951,0.897036
White,10,Right,19,Female,Yes,English,D,741,0,4,16,180.0,1.0,1.0,893.804,1.0,740.0,23.0,1.10326,0.950604
White,10,Right,19,Female,Yes,English,D,742,1,16,16,180.0,1.0,1.0,605.547,1.0,741.0,23.0,1.02314,0.901721
White,10,Right,19,Female,Yes,English,D,743,1,0,0,180.0,1.0,1.0,597.727,1.0,742.0,23.0,1.1219,0.85792
White,10,Right,19,Female,Yes,English,D,744,1,0,8,180.0,1.0,1.0,610.302,1.0,743.0,23.0,1.16697,0.987833
White,10,Right,19,Female,Yes,English,D,745,0,16,8,180.0,1.0,1.0,737.713,1.0,744.0,23.0,1.06962,0.855787
White,10,Right,19,Female,Yes,English,D,746,0,0,0,180.0,1.0,1.0,622.079,1.0,745.0,23.0,1.1667,0.847399
White,10,Right,19,Female,Yes,English,D,747,1,8,0,0.0,0.0,1.0,685.97,1.0,746.0,23.0,1.0264,0.930397
White,10,Right,19,Female,Yes,English,D,748,0,16,0,180.0,1.0,1.0,666.653,1.0,747.0,23.0,1.17696,0.85624
White,10,Right,19,Female,Yes,English,D,749,1,16,4,0.0,0.0,1.0,834.053,1.0,748.0,23.0,1.0145,0.80085
White,10,Right,19,Female,Yes,English,D,750,1,16,0,0.0,0.0,1.0,1559.43,1.0,749.0,23.0,1.01547,0.837744
White,10,Right,19,Female,Yes,English,D,751,0,4,4,0.0,0.0,1.0,1128.59,1.0,750.0,23.0,1.02691,0.918561
White,10,Right,19,Female,Yes,English,D,752,1,4,16,0.0,0.0,1.0,1022.02,1.0,751.0,23.0,1.13694,0.845058
White,10,Right,19,Female,Yes,English,D,753,0,16,4,180.0,1.0,1.0,968.727,1.0,752.0,23.0,1.01419,0.856416
White,10,Right,19,Female,Yes,English,D,754,1,8,8,180.0,1.0,1.0,701.008,1.0,753.0,23.0,1.0819,0.962844
White,10,Right,19,Female,Yes,English,D,755,0,16,16,0.0,0.0,1.0,664.925,1.0,754.0,23.0,1.14448,0.822856
White,10,Right,19,Female,Yes,English,D,756,1,4,8,0.0,0.0,1.0,717.645,1.0,755.0,23.0,1.05992,0.809514
White,10,Right,19,Female,Yes,English,D,757,0,8,0,0.0,0.0,1.0,696.973,1.0,756.0,23.0,1.15188,0.967994
White,10,Right,19,Female,Yes,English,D,758,0,8,4,0.0,0.0,1.0,620.556,1.0,757.0,23.0,1.19818,0.822188
White,10,Right,19,Female,Yes,English,D,759,0,0,4,180.0,1.0,1.0,896.029,1.0,758.0,23.0,1.07997,0.989474
White,10,Right,19,Female,Yes,English,D,760,0,4,8,0.0,0.0,1.0,939.15,1.0,759.0,23.0,1.18048,0.869146
White,10,Right,19,Female,Yes,English,D,761,1,4,0,0.0,0.0,1.0,759.707,1.0,760.0,23.0,1.15012,0.833813
White,10,Right,19,Female,Yes,English,D,762,0,8,8,0.0,0.0,1.0,2144.72,1.0,761.0,23.0,1.04136,0.880939
White,10,Right,19,Female,Yes,English,D,763,0,8,16,180.0,1.0,1.0,762.496,1.0,762.0,23.0,1.09763,0.967719
White,10,Right,19,Female,Yes,English,D,764,0,0,8,180.0,1.0,1.0,758.643,1.0,763.0,23.0,1.18719,0.822273
White,10,Right,19,Female,Yes,English,D,765,1,0,4,180.0,1.0,1.0,602.259,1.0,764.0,23.0,1.1116,0.917186
White,10,Right,19,Female,Yes,English,D,766,1,4,4,0.0,0.0,1.0,934.548,1.0,765.0,23.0,1.1514,0.829442
White,10,Right,19,Female,Yes,English,D,767,1,16,8,0.0,0.0,1.0,1712.59,1.0,766.0,23.0,1.08483,0.844141
White,10,Right,19,Female,Yes,English,D,768,0,0,16,180.0,1.0,1.0,795.003,1.0,767.0,23.0,1.1466,0.85097
