Ethnicity,Subject Number,Preferred Hand,Age,Gender,Color blind,First Language,Room,TrialNumber,background,turtles,tortoises,target_id,resp,hit,rt,ran,order,block,iti,fix_duration
White,19,Right, 19,Female,No,English,E,1,0,16,4,0.0,0.0,1.0,1163.69,1.0,0.0,0.0,1.07151,0.910521
White,19,Right, 19,Female,No,English,E,2,0,16,0,180.0,1.0,1.0,773.425,1.0,1.0,0.0,1.03805,0.920892
White,19,Right, 19,Female,No,English,E,3,0,4,0,180.0,1.0,1.0,682.906,1.0,2.0,0.0,1.15501,0.953656
White,19,Right, 19,Female,No,English,E,4,1,0,8,180.0,1.0,1.0,754.433,1.0,3.0,0.0,1.18732,0.913536
White,19,Right, 19,Female,No,English,E,5,1,4,16,180.0,1.0,1.0,522.837,1.0,4.0,0.0,1.07248,0.894035
White,19,Right, 19,Female,No,English,E,6,1,0,16,0.0,0.0,1.0,913.796,1.0,5.0,0.0,1.19235,0.98554
White,19,Right, 19,Female,No,English,E,7,1,16,4,0.0,0.0,1.0,1560.56,1.0,6.0,0.0,1.00593,0.82076
White,19,Right, 19,Female,No,English,E,8,1,16,0,0.0,0.0,1.0,1139.34,1.0,7.0,0.0,1.08024,0.803857
White,19,Right, 19,Female,No,English,E,9,0,8,16,180.0,1.0,1.0,1690.35,1.0,8.0,0.0,1.18383,0.895338
White,19,Right, 19,Female,No,English,E,10,0,8,4,180.0,1.0,1.0,1342.1,1.0,9.0,0.0,1.18069,0.907568
White,19,Right, 19,Female,No,English,E,11,0,4,4,0.0,0.0,1.0,1311.06,1.0,10.0,0.0,1.157,0.905169
White,19,Right, 19,Female,No,English,E,12,1,4,0,180.0,1.0,1.0,836.219,1.0,11.0,0.0,1.18148,0.978362
White,19,Right, 19,Female,No,English,E,13,1,8,16,0.0,0.0,1.0,902.171,1.0,12.0,0.0,1.03955,0.987194
White,19,Right, 19,Female,No,English,E,14,0,0,0,0.0,0.0,1.0,746.186,1.0,13.0,0.0,1.05972,0.951623
White,19,Right, 19,Female,No,English,E,15,1,8,8,180.0,1.0,1.0,807.035,1.0,14.0,0.0,1.1673,0.861681
White,19,Right, 19,Female,No,English,E,16,0,16,16,180.0,1.0,1.0,666.163,1.0,15.0,0.0,1.09943,0.845246
White,19,Right, 19,Female,No,English,E,17,1,4,8,0.0,0.0,1.0,774.086,1.0,16.0,0.0,1.13926,0.968843
White,19,Right, 19,Female,No,English,E,18,0,4,16,0.0,0.0,1.0,1344.45,1.0,17.0,0.0,1.19925,0.936778
White,19,Right, 19,Female,No,English,E,19,0,0,4,0.0,0.0,1.0,836.065,1.0,18.0,0.0,1.1358,0.91612
White,19,Right, 19,Female,No,English,E,20,1,16,8,0.0,0.0,1.0,1198.77,1.0,19.0,0.0,1.08463,0.826623
White,19,Right, 19,Female,No,English,E,21,0,0,8,0.0,0.0,1.0,820.553,1.0,20.0,0.0,1.15268,0.882173
White,19,Right, 19,Female,No,English,E,22,0,4,8,0.0,0.0,1.0,1404.54,1.0,21.0,0.0,1.08104,0.813836
White,19,Right, 19,Female,No,English,E,23,1,8,4,0.0,0.0,1.0,644.7,1.0,22.0,0.0,1.12088,0.903042
White,19,Right, 19,Female,No,English,E,24,1,16,16,180.0,1.0,1.0,1341.14,1.0,23.0,0.0,1.15873,0.922877
White,19,Right, 19,Female,No,English,E,25,1,4,4,180.0,1.0,1.0,687.455,1.0,24.0,0.0,1.1223,0.892821
White,19,Right, 19,Female,No,English,E,26,1,0,4,180.0,1.0,1.0,620.546,1.0,25.0,0.0,1.16856,0.88897
White,19,Right, 19,Female,No,English,E,27,1,0,0,0.0,1.0,0.0,616.157,1.0,26.0,0.0,1.0152,0.833009
White,19,Right, 19,Female,No,English,E,28,0,0,16,180.0,1.0,1.0,889.876,1.0,27.0,0.0,1.00286,0.834249
White,19,Right, 19,Female,No,English,E,29,0,16,8,180.0,1.0,1.0,975.665,1.0,28.0,0.0,1.17682,0.816429
White,19,Right, 19,Female,No,English,E,30,0,8,0,0.0,0.0,1.0,913.042,1.0,29.0,0.0,1.10231,0.890202
White,19,Right, 19,Female,No,English,E,31,1,8,0,180.0,1.0,1.0,869.591,1.0,30.0,0.0,1.17775,0.905202
White,19,Right, 19,Female,No,English,E,32,0,8,8,180.0,1.0,1.0,689.681,1.0,31.0,0.0,1.17717,0.825714
White,19,Right, 19,Female,No,English,E,33,0,0,16,180.0,1.0,1.0,904.545,1.0,32.0,1.0,1.1808,0.804715
White,19,Right, 19,Female,No,English,E,34,1,8,0,0.0,0.0,1.0,922.745,1.0,33.0,1.0,1.01323,0.901521
White,19,Right, 19,Female,No,English,E,35,1,16,0,0.0,0.0,1.0,1018.12,1.0,34.0,1.0,1.14373,0.912509
White,19,Right, 19,Female,No,English,E,36,0,4,16,180.0,1.0,1.0,1098.36,1.0,35.0,1.0,1.0583,0.905242
White,19,Right, 19,Female,No,English,E,37,0,8,4,180.0,1.0,1.0,726.654,1.0,36.0,1.0,1.11959,0.866804
White,19,Right, 19,Female,No,English,E,38,1,4,8,180.0,1.0,1.0,1131.78,1.0,37.0,1.0,1.08354,0.882967
White,19,Right, 19,Female,No,English,E,39,0,16,8,180.0,1.0,1.0,1436.75,1.0,38.0,1.0,1.09651,0.893705
White,19,Right, 19,Female,No,English,E,40,0,0,0,0.0,0.0,1.0,644.488,1.0,39.0,1.0,1.19822,0.890283
White,19,Right, 19,Female,No,English,E,41,0,0,4,180.0,1.0,1.0,710.912,1.0,40.0,1.0,1.06589,0.961107
White,19,Right, 19,Female,No,English,E,42,1,4,0,180.0,1.0,1.0,1266.02,1.0,41.0,1.0,1.19964,0.914639
White,19,Right, 19,Female,No,English,E,43,0,0,8,0.0,0.0,1.0,717.518,1.0,42.0,1.0,1.16957,0.8987
White,19,Right, 19,Female,No,English,E,44,0,4,0,180.0,1.0,1.0,761.959,1.0,43.0,1.0,1.04306,0.918781
White,19,Right, 19,Female,No,English,E,45,0,8,16,0.0,0.0,1.0,998.541,1.0,44.0,1.0,1.04341,0.840785
White,19,Right, 19,Female,No,English,E,46,1,0,16,0.0,0.0,1.0,846.99,1.0,45.0,1.0,1.17372,0.811148
White,19,Right, 19,Female,No,English,E,47,1,16,8,0.0,0.0,1.0,883.843,1.0,46.0,1.0,1.04462,0.992972
White,19,Right, 19,Female,No,English,E,48,1,0,4,180.0,1.0,1.0,829.964,1.0,47.0,1.0,1.02281,0.969169
White,19,Right, 19,Female,No,English,E,49,1,0,0,0.0,0.0,1.0,782.924,1.0,48.0,1.0,1.14789,0.941047
White,19,Right, 19,Female,No,English,E,50,0,4,8,0.0,0.0,1.0,732.016,1.0,49.0,1.0,1.12218,0.812142
White,19,Right, 19,Female,No,English,E,51,1,16,4,180.0,1.0,1.0,1268.43,1.0,50.0,1.0,1.05141,0.904698
White,19,Right, 19,Female,No,English,E,52,0,8,8,0.0,0.0,1.0,746.731,1.0,51.0,1.0,1.0673,0.82074
White,19,Right, 19,Female,No,English,E,53,0,16,4,180.0,1.0,1.0,1005.14,1.0,52.0,1.0,1.18182,0.951607
White,19,Right, 19,Female,No,English,E,54,1,8,16,180.0,1.0,1.0,903.849,1.0,53.0,1.0,1.1952,0.857666
White,19,Right, 19,Female,No,English,E,55,0,16,16,0.0,0.0,1.0,1051.19,1.0,54.0,1.0,1.02669,0.9329
White,19,Right, 19,Female,No,English,E,56,0,8,0,0.0,0.0,1.0,2424.66,1.0,55.0,1.0,1.17314,0.979847
White,19,Right, 19,Female,No,English,E,57,0,16,0,0.0,0.0,1.0,1689.83,1.0,56.0,1.0,1.12803,0.994908
White,19,Right, 19,Female,No,English,E,58,1,4,4,180.0,1.0,1.0,693.292,1.0,57.0,1.0,1.07572,0.84029
White,19,Right, 19,Female,No,English,E,59,1,0,8,0.0,0.0,1.0,941.689,1.0,58.0,1.0,1.1852,0.831054
White,19,Right, 19,Female,No,English,E,60,1,4,16,180.0,1.0,1.0,855.555,1.0,59.0,1.0,1.10349,0.942112
White,19,Right, 19,Female,No,English,E,61,1,16,16,180.0,1.0,1.0,1119.88,1.0,60.0,1.0,1.11756,0.839072
White,19,Right, 19,Female,No,English,E,62,1,8,8,0.0,0.0,1.0,863.217,1.0,61.0,1.0,1.17464,0.904348
White,19,Right, 19,Female,No,English,E,63,0,4,4,180.0,1.0,1.0,1087.17,1.0,62.0,1.0,1.14282,0.803457
White,19,Right, 19,Female,No,English,E,64,1,8,4,0.0,0.0,1.0,1045.4,1.0,63.0,1.0,1.04313,0.958073
White,19,Right, 19,Female,No,English,E,65,0,16,0,0.0,0.0,1.0,616.573,1.0,64.0,2.0,1.01292,0.899305
White,19,Right, 19,Female,No,English,E,66,1,16,16,180.0,1.0,1.0,820.731,1.0,65.0,2.0,1.0017,0.946201
White,19,Right, 19,Female,No,English,E,67,1,16,4,0.0,0.0,1.0,880.167,1.0,66.0,2.0,1.10236,0.85805
White,19,Right, 19,Female,No,English,E,68,1,16,8,0.0,0.0,1.0,816.762,1.0,67.0,2.0,1.17707,0.860807
White,19,Right, 19,Female,No,English,E,69,0,4,4,0.0,0.0,1.0,779.228,1.0,68.0,2.0,1.02127,0.812778
White,19,Right, 19,Female,No,English,E,70,0,8,4,180.0,1.0,1.0,1151.87,1.0,69.0,2.0,1.10742,0.974578
White,19,Right, 19,Female,No,English,E,71,1,0,4,180.0,1.0,1.0,695.666,1.0,70.0,2.0,1.08321,0.861167
White,19,Right, 19,Female,No,English,E,72,1,8,16,0.0,0.0,1.0,1341.24,1.0,71.0,2.0,1.09347,0.912473
White,19,Right, 19,Female,No,English,E,73,0,8,16,180.0,1.0,1.0,1029.55,1.0,72.0,2.0,1.1322,0.840167
White,19,Right, 19,Female,No,English,E,74,1,4,4,0.0,0.0,1.0,1042.73,1.0,73.0,2.0,1.01353,0.930429
White,19,Right, 19,Female,No,English,E,75,0,8,0,180.0,1.0,1.0,998.397,1.0,74.0,2.0,1.02042,0.913604
White,19,Right, 19,Female,No,English,E,76,0,4,0,180.0,1.0,1.0,714.416,1.0,75.0,2.0,1.17184,0.913566
White,19,Right, 19,Female,No,English,E,77,0,0,4,180.0,1.0,1.0,779.38,1.0,76.0,2.0,1.0761,0.90674
White,19,Right, 19,Female,No,English,E,78,0,16,16,0.0,0.0,1.0,1120.43,1.0,77.0,2.0,1.1062,0.809774
White,19,Right, 19,Female,No,English,E,79,1,8,8,0.0,0.0,1.0,857.994,1.0,78.0,2.0,1.09264,0.92719
White,19,Right, 19,Female,No,English,E,80,0,4,16,180.0,1.0,1.0,1129.16,1.0,79.0,2.0,1.00489,0.870346
White,19,Right, 19,Female,No,English,E,81,1,8,0,0.0,0.0,1.0,728.733,1.0,80.0,2.0,1.1985,0.951782
White,19,Right, 19,Female,No,English,E,82,0,16,4,180.0,1.0,1.0,1027.35,1.0,81.0,2.0,1.02543,0.999262
White,19,Right, 19,Female,No,English,E,83,1,4,0,0.0,0.0,1.0,1354.61,1.0,82.0,2.0,1.06569,0.839058
White,19,Right, 19,Female,No,English,E,84,0,0,8,180.0,1.0,1.0,1391.36,1.0,83.0,2.0,1.09988,0.996729
White,19,Right, 19,Female,No,English,E,85,0,0,0,0.0,0.0,1.0,774.83,1.0,84.0,2.0,1.04337,0.873515
White,19,Right, 19,Female,No,English,E,86,1,0,8,0.0,0.0,1.0,1267.98,1.0,85.0,2.0,1.13064,0.827156
White,19,Right, 19,Female,No,English,E,87,0,0,16,0.0,0.0,1.0,780.718,1.0,86.0,2.0,1.1163,0.813201
White,19,Right, 19,Female,No,English,E,88,1,4,16,180.0,1.0,1.0,803.155,1.0,87.0,2.0,1.03048,0.809744
White,19,Right, 19,Female,No,English,E,89,1,4,8,0.0,9999.0,0.0,9999.0,1.0,88.0,2.0,1.06648,0.841201
White,19,Right, 19,Female,No,English,E,90,1,16,0,180.0,1.0,1.0,1075.74,1.0,89.0,2.0,1.03558,0.850444
White,19,Right, 19,Female,No,English,E,91,1,0,16,180.0,1.0,1.0,705.899,1.0,90.0,2.0,1.02617,0.920322
White,19,Right, 19,Female,No,English,E,92,0,16,8,0.0,0.0,1.0,1399.37,1.0,91.0,2.0,1.01166,0.808516
White,19,Right, 19,Female,No,English,E,93,0,8,8,0.0,0.0,1.0,1118.05,1.0,92.0,2.0,1.06326,0.993082
White,19,Right, 19,Female,No,English,E,94,1,8,4,180.0,1.0,1.0,1064.58,1.0,93.0,2.0,1.18666,0.922543
White,19,Right, 19,Female,No,English,E,95,0,4,8,180.0,1.0,1.0,1607.84,1.0,94.0,2.0,1.15161,0.951037
White,19,Right, 19,Female,No,English,E,96,1,0,0,180.0,1.0,1.0,837.192,1.0,95.0,2.0,1.19339,0.898286
White,19,Right, 19,Female,No,English,E,97,0,16,8,180.0,1.0,1.0,792.744,1.0,96.0,3.0,1.09379,0.90212
White,19,Right, 19,Female,No,English,E,98,1,0,16,180.0,1.0,1.0,525.951,1.0,97.0,3.0,1.00073,0.949659
White,19,Right, 19,Female,No,English,E,99,1,4,8,0.0,0.0,1.0,1312.77,1.0,98.0,3.0,1.19827,0.948445
White,19,Right, 19,Female,No,English,E,100,1,8,8,0.0,0.0,1.0,602.587,1.0,99.0,3.0,1.12908,0.821242
White,19,Right, 19,Female,No,English,E,101,0,16,16,180.0,1.0,1.0,1118.48,1.0,100.0,3.0,1.15892,0.827797
White,19,Right, 19,Female,No,English,E,102,0,8,8,180.0,1.0,1.0,550.624,1.0,101.0,3.0,1.01691,0.806014
White,19,Right, 19,Female,No,English,E,103,1,16,16,0.0,0.0,1.0,779.963,1.0,102.0,3.0,1.09093,0.810489
White,19,Right, 19,Female,No,English,E,104,0,8,0,0.0,0.0,1.0,872.191,1.0,103.0,3.0,1.12293,0.979479
White,19,Right, 19,Female,No,English,E,105,1,8,0,180.0,1.0,1.0,795.146,1.0,104.0,3.0,1.05954,0.839033
White,19,Right, 19,Female,No,English,E,106,0,4,16,0.0,0.0,1.0,1119.2,1.0,105.0,3.0,1.06743,0.830275
White,19,Right, 19,Female,No,English,E,107,0,0,0,0.0,0.0,1.0,488.101,1.0,106.0,3.0,1.17466,0.855086
White,19,Right, 19,Female,No,English,E,108,0,4,4,180.0,1.0,1.0,954.05,1.0,107.0,3.0,1.00707,0.925363
White,19,Right, 19,Female,No,English,E,109,1,0,4,180.0,1.0,1.0,737.138,1.0,108.0,3.0,1.05283,0.87729
White,19,Right, 19,Female,No,English,E,110,1,16,8,180.0,1.0,1.0,711.34,1.0,109.0,3.0,1.10902,0.840928
White,19,Right, 19,Female,No,English,E,111,0,4,0,180.0,1.0,1.0,597.019,1.0,110.0,3.0,1.04752,0.805909
White,19,Right, 19,Female,No,English,E,112,1,8,16,0.0,0.0,1.0,661.443,1.0,111.0,3.0,1.08975,0.939683
White,19,Right, 19,Female,No,English,E,113,1,4,16,0.0,0.0,1.0,775.76,1.0,112.0,3.0,1.11355,0.870957
White,19,Right, 19,Female,No,English,E,114,0,4,8,0.0,0.0,1.0,998.726,1.0,113.0,3.0,1.12575,0.969032
White,19,Right, 19,Female,No,English,E,115,1,16,4,180.0,1.0,1.0,735.962,1.0,114.0,3.0,1.08238,0.914941
White,19,Right, 19,Female,No,English,E,116,0,0,16,0.0,0.0,1.0,867.96,1.0,115.0,3.0,1.16775,0.863024
White,19,Right, 19,Female,No,English,E,117,0,8,4,180.0,1.0,1.0,792.484,1.0,116.0,3.0,1.04498,0.863456
White,19,Right, 19,Female,No,English,E,118,1,4,4,180.0,1.0,1.0,1019.83,1.0,117.0,3.0,1.14165,0.868875
White,19,Right, 19,Female,No,English,E,119,1,4,0,0.0,0.0,1.0,765.53,1.0,118.0,3.0,1.13259,0.809056
White,19,Right, 19,Female,No,English,E,120,1,16,0,180.0,1.0,1.0,1263.97,1.0,119.0,3.0,1.15861,0.953485
White,19,Right, 19,Female,No,English,E,121,0,8,16,0.0,0.0,1.0,754.495,1.0,120.0,3.0,1.08298,0.875178
White,19,Right, 19,Female,No,English,E,122,1,0,8,180.0,1.0,1.0,814.916,1.0,121.0,3.0,1.00735,0.814646
White,19,Right, 19,Female,No,English,E,123,1,0,0,0.0,0.0,1.0,853.625,1.0,122.0,3.0,1.02536,0.903651
White,19,Right, 19,Female,No,English,E,124,0,16,4,0.0,0.0,1.0,838.24,1.0,123.0,3.0,1.02063,0.979467
White,19,Right, 19,Female,No,English,E,125,0,0,4,180.0,1.0,1.0,1030.89,1.0,124.0,3.0,1.18654,0.969657
White,19,Right, 19,Female,No,English,E,126,0,0,8,0.0,0.0,1.0,754.997,1.0,125.0,3.0,1.0079,0.923369
White,19,Right, 19,Female,No,English,E,127,1,8,4,180.0,1.0,1.0,1149.43,1.0,126.0,3.0,1.19956,0.996328
White,19,Right, 19,Female,No,English,E,128,0,16,0,0.0,0.0,1.0,866.999,1.0,127.0,3.0,1.19946,0.811497
White,19,Right, 19,Female,No,English,E,129,1,16,4,0.0,0.0,1.0,1424.79,1.0,128.0,4.0,1.15607,0.801214
White,19,Right, 19,Female,No,English,E,130,0,4,8,0.0,0.0,1.0,1293.12,1.0,129.0,4.0,1.18289,0.964033
White,19,Right, 19,Female,No,English,E,131,1,8,4,180.0,1.0,1.0,768.589,1.0,130.0,4.0,1.13364,0.929309
White,19,Right, 19,Female,No,English,E,132,0,8,8,180.0,1.0,1.0,1001.98,1.0,131.0,4.0,1.13415,0.858546
White,19,Right, 19,Female,No,English,E,133,0,8,16,180.0,1.0,1.0,605.197,1.0,132.0,4.0,1.14321,0.835438
White,19,Right, 19,Female,No,English,E,134,0,0,0,180.0,1.0,1.0,532.046,1.0,133.0,4.0,1.19213,0.928476
White,19,Right, 19,Female,No,English,E,135,1,4,4,180.0,1.0,1.0,536.405,1.0,134.0,4.0,1.01762,0.972376
White,19,Right, 19,Female,No,English,E,136,1,4,16,180.0,1.0,1.0,797.027,1.0,135.0,4.0,1.08261,0.976848
White,19,Right, 19,Female,No,English,E,137,0,4,16,0.0,1.0,0.0,635.761,1.0,136.0,4.0,1.0448,0.905177
White,19,Right, 19,Female,No,English,E,138,1,0,0,0.0,0.0,1.0,555.675,1.0,137.0,4.0,1.08129,0.837257
White,19,Right, 19,Female,No,English,E,139,1,8,16,0.0,0.0,1.0,1240.38,1.0,138.0,4.0,1.16694,0.905659
White,19,Right, 19,Female,No,English,E,140,0,16,4,180.0,1.0,1.0,925.179,1.0,139.0,4.0,1.04685,0.91326
White,19,Right, 19,Female,No,English,E,141,0,4,0,180.0,1.0,1.0,813.938,1.0,140.0,4.0,1.17321,0.949476
White,19,Right, 19,Female,No,English,E,142,0,0,4,180.0,1.0,1.0,746.51,1.0,141.0,4.0,1.0809,0.925324
White,19,Right, 19,Female,No,English,E,143,1,0,8,180.0,1.0,1.0,967.002,1.0,142.0,4.0,1.15694,0.935339
White,19,Right, 19,Female,No,English,E,144,0,16,8,0.0,0.0,1.0,772.922,1.0,143.0,4.0,1.01339,0.886321
White,19,Right, 19,Female,No,English,E,145,0,0,16,180.0,1.0,1.0,741.687,1.0,144.0,4.0,1.09621,0.932693
White,19,Right, 19,Female,No,English,E,146,1,4,0,180.0,0.0,0.0,1758.92,1.0,145.0,4.0,1.07928,0.855595
White,19,Right, 19,Female,No,English,E,147,0,16,16,0.0,0.0,1.0,1256.64,1.0,146.0,4.0,1.11182,0.965311
White,19,Right, 19,Female,No,English,E,148,1,16,16,180.0,1.0,1.0,716.644,1.0,147.0,4.0,1.0034,0.99697
White,19,Right, 19,Female,No,English,E,149,0,16,0,0.0,0.0,1.0,1084.59,1.0,148.0,4.0,1.0098,0.902945
White,19,Right, 19,Female,No,English,E,150,1,8,0,180.0,1.0,1.0,616.187,1.0,149.0,4.0,1.17004,0.975843
White,19,Right, 19,Female,No,English,E,151,0,4,4,0.0,0.0,1.0,817.852,1.0,150.0,4.0,1.18194,0.987535
White,19,Right, 19,Female,No,English,E,152,1,8,8,180.0,1.0,1.0,1032.68,1.0,151.0,4.0,1.05077,0.977592
White,19,Right, 19,Female,No,English,E,153,1,4,8,0.0,0.0,1.0,1021.63,1.0,152.0,4.0,1.13372,0.839371
White,19,Right, 19,Female,No,English,E,154,0,0,8,0.0,0.0,1.0,667.246,1.0,153.0,4.0,1.03811,0.900349
White,19,Right, 19,Female,No,English,E,155,0,8,0,0.0,0.0,1.0,786.654,1.0,154.0,4.0,1.11076,0.800087
White,19,Right, 19,Female,No,English,E,156,1,16,8,180.0,1.0,1.0,890.028,1.0,155.0,4.0,1.15418,0.892063
White,19,Right, 19,Female,No,English,E,157,1,16,0,0.0,0.0,1.0,1079.12,1.0,156.0,4.0,1.18431,0.995743
White,19,Right, 19,Female,No,English,E,158,0,8,4,0.0,0.0,1.0,633.115,1.0,157.0,4.0,1.06853,0.931149
White,19,Right, 19,Female,No,English,E,159,1,0,4,0.0,0.0,1.0,852.074,1.0,158.0,4.0,1.09887,0.886503
White,19,Right, 19,Female,No,English,E,160,1,0,16,0.0,0.0,1.0,901.755,1.0,159.0,4.0,1.0556,0.865933
White,19,Right, 19,Female,No,English,E,161,1,4,0,0.0,0.0,1.0,591.197,1.0,160.0,5.0,1.17886,0.855569
White,19,Right, 19,Female,No,English,E,162,0,0,4,180.0,1.0,1.0,762.622,1.0,161.0,5.0,1.00182,0.832878
White,19,Right, 19,Female,No,English,E,163,0,4,16,0.0,0.0,1.0,648.761,1.0,162.0,5.0,1.01795,0.865446
White,19,Right, 19,Female,No,English,E,164,1,8,16,180.0,1.0,1.0,1553.19,1.0,163.0,5.0,1.05663,0.927523
White,19,Right, 19,Female,No,English,E,165,0,0,8,180.0,1.0,1.0,1004.63,1.0,164.0,5.0,1.08409,0.805012
White,19,Right, 19,Female,No,English,E,166,1,0,16,180.0,1.0,1.0,603.151,1.0,165.0,5.0,1.03596,0.823264
White,19,Right, 19,Female,No,English,E,167,0,8,4,0.0,0.0,1.0,708.653,1.0,166.0,5.0,1.02493,0.965813
White,19,Right, 19,Female,No,English,E,168,0,8,16,0.0,0.0,1.0,841.393,1.0,167.0,5.0,1.14484,0.968883
White,19,Right, 19,Female,No,English,E,169,0,4,0,0.0,0.0,1.0,730.032,1.0,168.0,5.0,1.07704,0.831291
White,19,Right, 19,Female,No,English,E,170,0,8,0,0.0,0.0,1.0,1608.73,1.0,169.0,5.0,1.17887,0.807618
White,19,Right, 19,Female,No,English,E,171,1,0,8,0.0,0.0,1.0,606.068,1.0,170.0,5.0,1.0999,0.918999
White,19,Right, 19,Female,No,English,E,172,0,4,4,180.0,1.0,1.0,936.609,1.0,171.0,5.0,1.02303,0.863623
White,19,Right, 19,Female,No,English,E,173,1,4,16,180.0,1.0,1.0,741.091,1.0,172.0,5.0,1.12098,0.900777
White,19,Right, 19,Female,No,English,E,174,1,8,8,180.0,1.0,1.0,939.639,1.0,173.0,5.0,1.11948,0.885333
White,19,Right, 19,Female,No,English,E,175,0,16,4,180.0,1.0,1.0,1363.83,1.0,174.0,5.0,1.17071,0.920575
White,19,Right, 19,Female,No,English,E,176,1,4,4,180.0,1.0,1.0,665.932,1.0,175.0,5.0,1.10662,0.949654
White,19,Right, 19,Female,No,English,E,177,1,16,16,0.0,0.0,1.0,755.553,1.0,176.0,5.0,1.17117,0.980928
White,19,Right, 19,Female,No,English,E,178,1,16,0,180.0,1.0,1.0,788.892,1.0,177.0,5.0,1.09742,0.817207
White,19,Right, 19,Female,No,English,E,179,1,0,4,180.0,1.0,1.0,583.659,1.0,178.0,5.0,1.00957,0.887618
White,19,Right, 19,Female,No,English,E,180,1,16,4,180.0,1.0,1.0,715.119,1.0,179.0,5.0,1.11436,0.916593
White,19,Right, 19,Female,No,English,E,181,0,8,8,0.0,0.0,1.0,923.812,1.0,180.0,5.0,1.09928,0.876557
White,19,Right, 19,Female,No,English,E,182,0,16,16,180.0,1.0,1.0,1693.35,1.0,181.0,5.0,1.10984,0.936939
White,19,Right, 19,Female,No,English,E,183,1,16,8,180.0,1.0,1.0,649.701,1.0,182.0,5.0,1.18567,0.927596
White,19,Right, 19,Female,No,English,E,184,0,16,8,0.0,0.0,1.0,753.442,1.0,183.0,5.0,1.15101,0.923161
White,19,Right, 19,Female,No,English,E,185,1,8,4,180.0,1.0,1.0,975.572,1.0,184.0,5.0,1.19005,0.937752
White,19,Right, 19,Female,No,English,E,186,1,8,0,0.0,0.0,1.0,797.704,1.0,185.0,5.0,1.19345,0.868581
White,19,Right, 19,Female,No,English,E,187,0,0,16,0.0,0.0,1.0,753.366,1.0,186.0,5.0,1.16306,0.870196
White,19,Right, 19,Female,No,English,E,188,0,4,8,180.0,1.0,1.0,830.504,1.0,187.0,5.0,1.0513,0.920728
White,19,Right, 19,Female,No,English,E,189,1,0,0,0.0,0.0,1.0,782.806,1.0,188.0,5.0,1.03206,0.975551
White,19,Right, 19,Female,No,English,E,190,0,0,0,0.0,0.0,1.0,528.625,1.0,189.0,5.0,1.07177,0.926126
White,19,Right, 19,Female,No,English,E,191,1,4,8,0.0,0.0,1.0,883.289,1.0,190.0,5.0,1.13902,0.806438
White,19,Right, 19,Female,No,English,E,192,0,16,0,0.0,0.0,1.0,499.014,1.0,191.0,5.0,1.15539,0.897194
White,19,Right, 19,Female,No,English,E,193,0,16,4,0.0,0.0,1.0,700.75,1.0,192.0,6.0,1.1866,0.900271
White,19,Right, 19,Female,No,English,E,194,1,8,4,180.0,1.0,1.0,726.879,1.0,193.0,6.0,1.18073,0.959768
White,19,Right, 19,Female,No,English,E,195,1,4,0,180.0,1.0,1.0,607.445,1.0,194.0,6.0,1.01118,0.800271
White,19,Right, 19,Female,No,English,E,196,0,8,0,0.0,0.0,1.0,608.997,1.0,195.0,6.0,1.09398,0.895168
White,19,Right, 19,Female,No,English,E,197,1,8,8,180.0,1.0,1.0,1035.43,1.0,196.0,6.0,1.1908,0.907244
White,19,Right, 19,Female,No,English,E,198,0,4,0,0.0,0.0,1.0,769.488,1.0,197.0,6.0,1.05378,0.864724
White,19,Right, 19,Female,No,English,E,199,1,4,4,0.0,0.0,1.0,563.404,1.0,198.0,6.0,1.05004,0.96463
White,19,Right, 19,Female,No,English,E,200,0,4,16,180.0,1.0,1.0,771.799,1.0,199.0,6.0,1.05702,0.829015
White,19,Right, 19,Female,No,English,E,201,0,0,8,0.0,0.0,1.0,707.05,1.0,200.0,6.0,1.16623,0.968518
White,19,Right, 19,Female,No,English,E,202,1,4,8,180.0,1.0,1.0,760.033,1.0,201.0,6.0,1.12498,0.806623
White,19,Right, 19,Female,No,English,E,203,1,8,16,0.0,0.0,1.0,597.367,1.0,202.0,6.0,1.17048,0.903978
White,19,Right, 19,Female,No,English,E,204,0,8,16,180.0,1.0,1.0,753.229,1.0,203.0,6.0,1.02367,0.996207
White,19,Right, 19,Female,No,English,E,205,1,8,0,180.0,1.0,1.0,824.271,1.0,204.0,6.0,1.14926,0.953081
White,19,Right, 19,Female,No,English,E,206,0,4,8,180.0,1.0,1.0,714.339,1.0,205.0,6.0,1.09267,0.919272
White,19,Right, 19,Female,No,English,E,207,1,16,8,0.0,0.0,1.0,731.139,1.0,206.0,6.0,1.06787,0.862191
White,19,Right, 19,Female,No,English,E,208,0,16,8,0.0,0.0,1.0,942.08,1.0,207.0,6.0,1.05999,0.813474
White,19,Right, 19,Female,No,English,E,209,0,8,4,0.0,0.0,1.0,1378.93,1.0,208.0,6.0,1.13211,0.872596
White,19,Right, 19,Female,No,English,E,210,0,16,16,180.0,1.0,1.0,1392.74,1.0,209.0,6.0,1.03816,0.893954
White,19,Right, 19,Female,No,English,E,211,1,16,16,0.0,0.0,1.0,602.202,1.0,210.0,6.0,1.09055,0.903029
White,19,Right, 19,Female,No,English,E,212,1,0,0,0.0,0.0,1.0,729.859,1.0,211.0,6.0,1.04194,0.832467
White,19,Right, 19,Female,No,English,E,213,0,8,8,0.0,0.0,1.0,981.833,1.0,212.0,6.0,1.06577,0.962472
White,19,Right, 19,Female,No,English,E,214,0,4,4,0.0,0.0,1.0,641.366,1.0,213.0,6.0,1.00738,0.920566
White,19,Right, 19,Female,No,English,E,215,1,0,4,0.0,0.0,1.0,608.957,1.0,214.0,6.0,1.11204,0.827297
White,19,Right, 19,Female,No,English,E,216,1,16,4,180.0,1.0,1.0,843.695,1.0,215.0,6.0,1.09955,0.838311
White,19,Right, 19,Female,No,English,E,217,0,0,4,180.0,0.0,0.0,538.108,1.0,216.0,6.0,1.11598,0.824417
White,19,Right, 19,Female,No,English,E,218,0,0,16,180.0,1.0,1.0,616.848,1.0,217.0,6.0,1.05149,0.957795
White,19,Right, 19,Female,No,English,E,219,0,16,0,180.0,1.0,1.0,824.599,1.0,218.0,6.0,1.18806,0.851025
White,19,Right, 19,Female,No,English,E,220,1,0,8,180.0,1.0,1.0,490.717,1.0,219.0,6.0,1.1469,0.918626
White,19,Right, 19,Female,No,English,E,221,0,0,0,0.0,0.0,1.0,757.16,1.0,220.0,6.0,1.08203,0.995136
White,19,Right, 19,Female,No,English,E,222,1,4,16,0.0,0.0,1.0,867.937,1.0,221.0,6.0,1.1258,0.965593
White,19,Right, 19,Female,No,English,E,223,1,0,16,180.0,1.0,1.0,692.194,1.0,222.0,6.0,1.15488,0.952296
White,19,Right, 19,Female,No,English,E,224,1,16,0,180.0,1.0,1.0,576.13,1.0,223.0,6.0,1.03258,0.823045
White,19,Right, 19,Female,No,English,E,225,0,4,16,180.0,1.0,1.0,803.002,1.0,224.0,7.0,1.19456,0.97573
White,19,Right, 19,Female,No,English,E,226,1,16,8,180.0,1.0,1.0,704.923,1.0,225.0,7.0,1.15343,0.969263
White,19,Right, 19,Female,No,English,E,227,0,4,4,180.0,1.0,1.0,843.486,1.0,226.0,7.0,1.19812,0.89459
White,19,Right, 19,Female,No,English,E,228,0,8,8,0.0,0.0,1.0,747.083,1.0,227.0,7.0,1.1093,0.831335
White,19,Right, 19,Female,No,English,E,229,1,0,16,0.0,0.0,1.0,753.855,1.0,228.0,7.0,1.12904,0.867231
White,19,Right, 19,Female,No,English,E,230,1,16,0,0.0,0.0,1.0,554.491,1.0,229.0,7.0,1.15471,0.928069
White,19,Right, 19,Female,No,English,E,231,1,0,4,0.0,0.0,1.0,615.779,1.0,230.0,7.0,1.19707,0.840483
White,19,Right, 19,Female,No,English,E,232,0,0,8,0.0,0.0,1.0,703.628,1.0,231.0,7.0,1.08437,0.873796
White,19,Right, 19,Female,No,English,E,233,1,8,16,0.0,0.0,1.0,557.706,1.0,232.0,7.0,1.16186,0.822414
White,19,Right, 19,Female,No,English,E,234,1,8,4,180.0,1.0,1.0,751.973,1.0,233.0,7.0,1.11715,0.87297
White,19,Right, 19,Female,No,English,E,235,1,4,8,180.0,1.0,1.0,761.173,1.0,234.0,7.0,1.05267,0.872935
White,19,Right, 19,Female,No,English,E,236,1,16,4,0.0,0.0,1.0,1269.42,1.0,235.0,7.0,1.16685,0.932292
White,19,Right, 19,Female,No,English,E,237,0,8,16,180.0,1.0,1.0,862.247,1.0,236.0,7.0,1.06687,0.817272
White,19,Right, 19,Female,No,English,E,238,0,0,0,180.0,1.0,1.0,604.727,1.0,237.0,7.0,1.03056,0.835757
White,19,Right, 19,Female,No,English,E,239,1,8,0,180.0,1.0,1.0,518.066,1.0,238.0,7.0,1.12671,0.818596
White,19,Right, 19,Female,No,English,E,240,1,4,0,0.0,0.0,1.0,736.294,1.0,239.0,7.0,1.07799,0.950652
White,19,Right, 19,Female,No,English,E,241,1,8,8,180.0,1.0,1.0,1933.25,1.0,240.0,7.0,1.17161,0.824039
White,19,Right, 19,Female,No,English,E,242,0,16,0,180.0,9999.0,0.0,9999.0,1.0,241.0,7.0,1.1046,0.83603
White,19,Right, 19,Female,No,English,E,243,1,4,4,0.0,0.0,1.0,1224.15,1.0,242.0,7.0,1.02087,0.971802
White,19,Right, 19,Female,No,English,E,244,0,16,16,0.0,0.0,1.0,1375.56,1.0,243.0,7.0,1.10662,0.942668
White,19,Right, 19,Female,No,English,E,245,1,4,16,0.0,0.0,1.0,920.42,1.0,244.0,7.0,1.03628,0.831694
White,19,Right, 19,Female,No,English,E,246,1,0,0,180.0,1.0,1.0,1529.82,1.0,245.0,7.0,1.05196,0.850309
White,19,Right, 19,Female,No,English,E,247,0,0,16,180.0,1.0,1.0,1199.48,1.0,246.0,7.0,1.08118,0.881773
White,19,Right, 19,Female,No,English,E,248,0,16,8,0.0,0.0,1.0,1180.67,1.0,247.0,7.0,1.06194,0.8512
White,19,Right, 19,Female,No,English,E,249,1,16,16,180.0,1.0,1.0,748.728,1.0,248.0,7.0,1.02199,0.819094
White,19,Right, 19,Female,No,English,E,250,0,16,4,180.0,1.0,1.0,924.452,1.0,249.0,7.0,1.15312,0.856022
White,19,Right, 19,Female,No,English,E,251,0,4,8,0.0,0.0,1.0,845.43,1.0,250.0,7.0,1.1295,0.909353
White,19,Right, 19,Female,No,English,E,252,0,4,0,0.0,0.0,1.0,1223.79,1.0,251.0,7.0,1.04732,0.823514
White,19,Right, 19,Female,No,English,E,253,0,8,4,0.0,0.0,1.0,986.136,1.0,252.0,7.0,1.18372,0.820806
White,19,Right, 19,Female,No,English,E,254,1,0,8,0.0,0.0,1.0,620.624,1.0,253.0,7.0,1.13659,0.835084
White,19,Right, 19,Female,No,English,E,255,0,8,0,180.0,1.0,1.0,898.352,1.0,254.0,7.0,1.05794,0.924769
White,19,Right, 19,Female,No,English,E,256,0,0,4,180.0,0.0,0.0,430.59,1.0,255.0,7.0,1.1984,0.899631
White,19,Right, 19,Female,No,English,E,257,0,16,0,180.0,1.0,1.0,1144.73,1.0,256.0,8.0,1.03734,0.825193
White,19,Right, 19,Female,No,English,E,258,0,16,8,180.0,1.0,1.0,2022.71,1.0,257.0,8.0,1.11487,0.892445
White,19,Right, 19,Female,No,English,E,259,1,16,16,0.0,0.0,1.0,778.458,1.0,258.0,8.0,1.02483,0.969458
White,19,Right, 19,Female,No,English,E,260,1,0,8,180.0,1.0,1.0,868.207,1.0,259.0,8.0,1.15941,0.859825
White,19,Right, 19,Female,No,English,E,261,0,4,8,0.0,0.0,1.0,942.724,1.0,260.0,8.0,1.00348,0.829537
White,19,Right, 19,Female,No,English,E,262,1,0,0,180.0,1.0,1.0,786.484,1.0,261.0,8.0,1.07894,0.827856
White,19,Right, 19,Female,No,English,E,263,0,16,16,0.0,0.0,1.0,899.812,1.0,262.0,8.0,1.05517,0.872753
White,19,Right, 19,Female,No,English,E,264,1,16,8,180.0,1.0,1.0,797.527,1.0,263.0,8.0,1.17251,0.897744
White,19,Right, 19,Female,No,English,E,265,0,0,4,180.0,1.0,1.0,1171.06,1.0,264.0,8.0,1.1837,0.990574
White,19,Right, 19,Female,No,English,E,266,0,0,16,0.0,0.0,1.0,684.451,1.0,265.0,8.0,1.15358,0.852742
White,19,Right, 19,Female,No,English,E,267,1,8,4,180.0,1.0,1.0,910.779,1.0,266.0,8.0,1.12498,0.901545
White,19,Right, 19,Female,No,English,E,268,1,16,0,180.0,1.0,1.0,671.106,1.0,267.0,8.0,1.05425,0.973973
White,19,Right, 19,Female,No,English,E,269,1,4,16,0.0,0.0,1.0,990.43,1.0,268.0,8.0,1.14452,0.822917
White,19,Right, 19,Female,No,English,E,270,0,16,4,180.0,1.0,1.0,896.766,1.0,269.0,8.0,1.00174,0.909516
White,19,Right, 19,Female,No,English,E,271,0,4,0,0.0,0.0,1.0,761.061,1.0,270.0,8.0,1.11136,0.801415
White,19,Right, 19,Female,No,English,E,272,0,8,16,0.0,0.0,1.0,832.972,1.0,271.0,8.0,1.00594,0.943049
White,19,Right, 19,Female,No,English,E,273,1,4,4,180.0,1.0,1.0,783.202,1.0,272.0,8.0,1.03376,0.955438
White,19,Right, 19,Female,No,English,E,274,1,0,16,0.0,0.0,1.0,944.685,1.0,273.0,8.0,1.09106,0.902415
White,19,Right, 19,Female,No,English,E,275,1,8,16,0.0,0.0,1.0,879.979,1.0,274.0,8.0,1.02757,0.894652
White,19,Right, 19,Female,No,English,E,276,0,4,4,0.0,0.0,1.0,1474.23,1.0,275.0,8.0,1.06075,0.839427
White,19,Right, 19,Female,No,English,E,277,0,0,0,180.0,0.0,0.0,428.407,1.0,276.0,8.0,1.01116,0.860123
White,19,Right, 19,Female,No,English,E,278,1,16,4,0.0,0.0,1.0,1275.37,1.0,277.0,8.0,1.19016,0.886986
White,19,Right, 19,Female,No,English,E,279,0,8,0,180.0,1.0,1.0,942.17,1.0,278.0,8.0,1.02181,0.857593
White,19,Right, 19,Female,No,English,E,280,1,4,0,180.0,1.0,1.0,924.643,1.0,279.0,8.0,1.1753,0.853781
White,19,Right, 19,Female,No,English,E,281,1,8,8,0.0,0.0,1.0,747.006,1.0,280.0,8.0,1.03666,0.959229
White,19,Right, 19,Female,No,English,E,282,0,8,4,0.0,0.0,1.0,1288.85,1.0,281.0,8.0,1.08263,0.942568
White,19,Right, 19,Female,No,English,E,283,1,4,8,0.0,0.0,1.0,900.998,1.0,282.0,8.0,1.0138,0.970281
White,19,Right, 19,Female,No,English,E,284,0,8,8,180.0,1.0,1.0,830.053,1.0,283.0,8.0,1.07521,0.872094
White,19,Right, 19,Female,No,English,E,285,1,0,4,180.0,1.0,1.0,667.326,1.0,284.0,8.0,1.04857,0.958478
White,19,Right, 19,Female,No,English,E,286,1,8,0,180.0,1.0,1.0,1130.2,1.0,285.0,8.0,1.09393,0.961261
White,19,Right, 19,Female,No,English,E,287,0,4,16,0.0,0.0,1.0,741.652,1.0,286.0,8.0,1.11269,0.91864
White,19,Right, 19,Female,No,English,E,288,0,0,8,0.0,0.0,1.0,938.005,1.0,287.0,8.0,1.01502,0.845976
White,19,Right, 19,Female,No,English,E,289,0,4,16,180.0,1.0,1.0,813.735,1.0,288.0,9.0,1.18997,0.800147
White,19,Right, 19,Female,No,English,E,290,0,16,16,0.0,0.0,1.0,653.88,1.0,289.0,9.0,1.15055,0.919344
White,19,Right, 19,Female,No,English,E,291,1,4,16,180.0,1.0,1.0,760.075,1.0,290.0,9.0,1.14622,0.948579
White,19,Right, 19,Female,No,English,E,292,1,4,8,180.0,1.0,1.0,879.615,1.0,291.0,9.0,1.07913,0.857929
White,19,Right, 19,Female,No,English,E,293,0,0,0,180.0,1.0,1.0,870.63,1.0,292.0,9.0,1.12017,0.994778
White,19,Right, 19,Female,No,English,E,294,1,4,0,0.0,0.0,1.0,823.944,1.0,293.0,9.0,1.1753,0.906316
White,19,Right, 19,Female,No,English,E,295,0,8,0,0.0,0.0,1.0,777.566,1.0,294.0,9.0,1.03166,0.864478
White,19,Right, 19,Female,No,English,E,296,0,16,0,0.0,0.0,1.0,913.63,1.0,295.0,9.0,1.05373,0.879068
White,19,Right, 19,Female,No,English,E,297,0,16,4,0.0,0.0,1.0,785.663,1.0,296.0,9.0,1.03452,0.970833
White,19,Right, 19,Female,No,English,E,298,1,0,0,180.0,1.0,1.0,829.479,1.0,297.0,9.0,1.15864,0.852413
White,19,Right, 19,Female,No,English,E,299,1,8,16,0.0,0.0,1.0,857.298,1.0,298.0,9.0,1.1194,0.874968
White,19,Right, 19,Female,No,English,E,300,0,4,8,0.0,0.0,1.0,908.84,1.0,299.0,9.0,1.07674,0.926366
White,19,Right, 19,Female,No,English,E,301,0,8,4,180.0,1.0,1.0,1207.14,1.0,300.0,9.0,1.06201,0.961332
White,19,Right, 19,Female,No,English,E,302,0,4,4,0.0,0.0,1.0,1168.33,1.0,301.0,9.0,1.07717,0.881038
White,19,Right, 19,Female,No,English,E,303,1,16,4,0.0,9999.0,0.0,9999.0,1.0,302.0,9.0,1.08841,0.973396
White,19,Right, 19,Female,No,English,E,304,1,0,4,180.0,1.0,1.0,785.916,1.0,303.0,9.0,1.02819,0.848244
White,19,Right, 19,Female,No,English,E,305,1,16,16,180.0,1.0,1.0,676.722,1.0,304.0,9.0,1.16408,0.835599
White,19,Right, 19,Female,No,English,E,306,0,16,8,180.0,1.0,1.0,572.447,1.0,305.0,9.0,1.03694,0.957178
White,19,Right, 19,Female,No,English,E,307,1,16,0,180.0,1.0,1.0,411.155,1.0,306.0,9.0,1.04768,0.813983
White,19,Right, 19,Female,No,English,E,308,1,4,4,0.0,0.0,1.0,676.893,1.0,307.0,9.0,1.13277,0.860515
White,19,Right, 19,Female,No,English,E,309,0,4,0,0.0,0.0,1.0,500.477,1.0,308.0,9.0,1.16124,0.861297
White,19,Right, 19,Female,No,English,E,310,0,0,4,180.0,1.0,1.0,798.752,1.0,309.0,9.0,1.10769,0.85206
White,19,Right, 19,Female,No,English,E,311,1,8,0,180.0,1.0,1.0,889.161,1.0,310.0,9.0,1.06312,0.892084
White,19,Right, 19,Female,No,English,E,312,0,0,16,180.0,1.0,1.0,783.099,1.0,311.0,9.0,1.15364,0.831723
White,19,Right, 19,Female,No,English,E,313,1,8,8,180.0,1.0,1.0,731.156,1.0,312.0,9.0,1.03397,0.949372
White,19,Right, 19,Female,No,English,E,314,1,0,8,180.0,1.0,1.0,601.427,1.0,313.0,9.0,1.12897,0.830577
White,19,Right, 19,Female,No,English,E,315,0,8,8,0.0,0.0,1.0,834.543,1.0,314.0,9.0,1.00185,0.900066
White,19,Right, 19,Female,No,English,E,316,0,8,16,0.0,0.0,1.0,1428.74,1.0,315.0,9.0,1.18055,0.935995
White,19,Right, 19,Female,No,English,E,317,0,0,8,0.0,0.0,1.0,504.767,1.0,316.0,9.0,1.00552,0.981231
White,19,Right, 19,Female,No,English,E,318,1,8,4,0.0,0.0,1.0,897.567,1.0,317.0,9.0,1.18999,0.965941
White,19,Right, 19,Female,No,English,E,319,1,0,16,0.0,0.0,1.0,775.701,1.0,318.0,9.0,1.15441,0.90275
White,19,Right, 19,Female,No,English,E,320,1,16,8,180.0,1.0,1.0,983.083,1.0,319.0,9.0,1.14415,0.901944
White,19,Right, 19,Female,No,English,E,321,1,8,4,180.0,1.0,1.0,820.786,1.0,320.0,10.0,1.18638,0.842924
White,19,Right, 19,Female,No,English,E,322,1,8,8,0.0,0.0,1.0,674.438,1.0,321.0,10.0,1.0596,0.905384
White,19,Right, 19,Female,No,English,E,323,0,4,8,0.0,0.0,1.0,704.34,1.0,322.0,10.0,1.13811,0.992636
White,19,Right, 19,Female,No,English,E,324,1,4,8,180.0,1.0,1.0,801.091,1.0,323.0,10.0,1.00782,0.974513
White,19,Right, 19,Female,No,English,E,325,1,16,16,0.0,0.0,1.0,795.719,1.0,324.0,10.0,1.08521,0.892803
White,19,Right, 19,Female,No,English,E,326,1,0,4,180.0,1.0,1.0,820.181,1.0,325.0,10.0,1.0213,0.88958
White,19,Right, 19,Female,No,English,E,327,0,8,16,0.0,0.0,1.0,882.369,1.0,326.0,10.0,1.06524,0.994022
White,19,Right, 19,Female,No,English,E,328,1,0,16,0.0,0.0,1.0,1082.47,1.0,327.0,10.0,1.09843,0.935244
White,19,Right, 19,Female,No,English,E,329,0,16,8,180.0,1.0,1.0,862.709,1.0,328.0,10.0,1.09574,0.994861
White,19,Right, 19,Female,No,English,E,330,0,0,8,0.0,0.0,1.0,654.904,1.0,329.0,10.0,1.18127,0.985665
White,19,Right, 19,Female,No,English,E,331,0,4,0,0.0,0.0,1.0,762.675,1.0,330.0,10.0,1.03599,0.943901
White,19,Right, 19,Female,No,English,E,332,0,4,4,180.0,1.0,1.0,876.774,1.0,331.0,10.0,1.08479,0.830445
White,19,Right, 19,Female,No,English,E,333,1,8,16,0.0,0.0,1.0,1016.03,1.0,332.0,10.0,1.19839,0.965227
White,19,Right, 19,Female,No,English,E,334,0,0,4,0.0,0.0,1.0,937.644,1.0,333.0,10.0,1.01334,0.865488
White,19,Right, 19,Female,No,English,E,335,0,16,0,0.0,0.0,1.0,1293.35,1.0,334.0,10.0,1.10752,0.818961
White,19,Right, 19,Female,No,English,E,336,1,8,0,0.0,0.0,1.0,814.093,1.0,335.0,10.0,1.05159,0.917404
White,19,Right, 19,Female,No,English,E,337,1,4,4,180.0,1.0,1.0,1532.44,1.0,336.0,10.0,1.15492,0.885222
White,19,Right, 19,Female,No,English,E,338,1,0,0,180.0,1.0,1.0,694.753,1.0,337.0,10.0,1.04652,0.97265
White,19,Right, 19,Female,No,English,E,339,0,0,16,0.0,0.0,1.0,1208.03,1.0,338.0,10.0,1.07191,0.999322
White,19,Right, 19,Female,No,English,E,340,0,16,4,180.0,1.0,1.0,798.132,1.0,339.0,10.0,1.13696,0.950073
White,19,Right, 19,Female,No,English,E,341,0,8,4,0.0,0.0,1.0,866.714,1.0,340.0,10.0,1.19201,0.922953
White,19,Right, 19,Female,No,English,E,342,1,4,0,0.0,0.0,1.0,815.085,1.0,341.0,10.0,1.0728,0.953676
White,19,Right, 19,Female,No,English,E,343,0,8,0,180.0,1.0,1.0,850.713,1.0,342.0,10.0,1.05333,0.872283
White,19,Right, 19,Female,No,English,E,344,1,16,4,180.0,1.0,1.0,948.033,1.0,343.0,10.0,1.15648,0.900707
White,19,Right, 19,Female,No,English,E,345,1,16,8,180.0,1.0,1.0,611.055,1.0,344.0,10.0,1.13277,0.971259
White,19,Right, 19,Female,No,English,E,346,1,0,8,0.0,0.0,1.0,1003.18,1.0,345.0,10.0,1.01321,0.936444
White,19,Right, 19,Female,No,English,E,347,1,16,0,180.0,1.0,1.0,707.813,1.0,346.0,10.0,1.07643,0.843089
White,19,Right, 19,Female,No,English,E,348,0,0,0,180.0,1.0,1.0,560.967,1.0,347.0,10.0,1.19527,0.810743
White,19,Right, 19,Female,No,English,E,349,1,4,16,180.0,1.0,1.0,875.119,1.0,348.0,10.0,1.00001,0.885236
White,19,Right, 19,Female,No,English,E,350,0,16,16,180.0,1.0,1.0,1137.18,1.0,349.0,10.0,1.12803,0.897504
White,19,Right, 19,Female,No,English,E,351,0,8,8,180.0,1.0,1.0,766.332,1.0,350.0,10.0,1.07767,0.868141
White,19,Right, 19,Female,No,English,E,352,0,4,16,0.0,0.0,1.0,760.157,1.0,351.0,10.0,1.12664,0.831283
White,19,Right, 19,Female,No,English,E,353,0,16,4,0.0,0.0,1.0,1123.14,1.0,352.0,11.0,1.14668,0.975256
White,19,Right, 19,Female,No,English,E,354,1,8,16,0.0,0.0,1.0,654.359,1.0,353.0,11.0,1.12592,0.99214
White,19,Right, 19,Female,No,English,E,355,0,16,8,0.0,0.0,1.0,932.338,1.0,354.0,11.0,1.03119,0.944845
White,19,Right, 19,Female,No,English,E,356,1,4,0,180.0,1.0,1.0,1184.59,1.0,355.0,11.0,1.05745,0.990597
White,19,Right, 19,Female,No,English,E,357,1,16,4,0.0,0.0,1.0,750.434,1.0,356.0,11.0,1.12098,0.882539
White,19,Right, 19,Female,No,English,E,358,1,16,16,180.0,1.0,1.0,931.687,1.0,357.0,11.0,1.01609,0.952501
White,19,Right, 19,Female,No,English,E,359,0,4,0,0.0,0.0,1.0,1355.37,1.0,358.0,11.0,1.15207,0.914578
White,19,Right, 19,Female,No,English,E,360,1,8,4,180.0,1.0,1.0,794.387,1.0,359.0,11.0,1.15083,0.873982
White,19,Right, 19,Female,No,English,E,361,0,4,4,180.0,1.0,1.0,1191.02,1.0,360.0,11.0,1.10912,0.883238
White,19,Right, 19,Female,No,English,E,362,1,4,4,0.0,0.0,1.0,715.318,1.0,361.0,11.0,1.10329,0.952204
White,19,Right, 19,Female,No,English,E,363,1,8,0,180.0,1.0,1.0,971.622,1.0,362.0,11.0,1.10563,0.933775
White,19,Right, 19,Female,No,English,E,364,1,0,0,180.0,1.0,1.0,883.635,1.0,363.0,11.0,1.06742,0.814047
White,19,Right, 19,Female,No,English,E,365,0,0,16,0.0,0.0,1.0,659.283,1.0,364.0,11.0,1.07353,0.912762
White,19,Right, 19,Female,No,English,E,366,1,0,4,180.0,1.0,1.0,580.335,1.0,365.0,11.0,1.14359,0.958182
White,19,Right, 19,Female,No,English,E,367,0,8,8,0.0,0.0,1.0,691.127,1.0,366.0,11.0,1.19182,0.802142
White,19,Right, 19,Female,No,English,E,368,0,16,0,180.0,1.0,1.0,939.143,1.0,367.0,11.0,1.09284,0.811792
White,19,Right, 19,Female,No,English,E,369,0,4,16,180.0,1.0,1.0,678.348,1.0,368.0,11.0,1.08907,0.957517
White,19,Right, 19,Female,No,English,E,370,1,16,0,0.0,1.0,0.0,559.782,1.0,369.0,11.0,1.05663,0.896596
White,19,Right, 19,Female,No,English,E,371,0,0,4,180.0,1.0,1.0,835.749,1.0,370.0,11.0,1.10184,0.933218
White,19,Right, 19,Female,No,English,E,372,0,8,16,0.0,0.0,1.0,738.29,1.0,371.0,11.0,1.18607,0.906908
White,19,Right, 19,Female,No,English,E,373,1,4,16,0.0,0.0,1.0,736.088,1.0,372.0,11.0,1.13824,0.852739
White,19,Right, 19,Female,No,English,E,374,1,0,16,180.0,1.0,1.0,516.416,1.0,373.0,11.0,1.17175,0.981964
White,19,Right, 19,Female,No,English,E,375,1,16,8,180.0,1.0,1.0,780.842,1.0,374.0,11.0,1.16537,0.89283
White,19,Right, 19,Female,No,English,E,376,0,4,8,0.0,0.0,1.0,1082.06,1.0,375.0,11.0,1.0016,0.950447
White,19,Right, 19,Female,No,English,E,377,1,4,8,180.0,1.0,1.0,946.457,1.0,376.0,11.0,1.04552,0.808512
White,19,Right, 19,Female,No,English,E,378,1,0,8,180.0,1.0,1.0,651.548,1.0,377.0,11.0,1.09798,0.902109
White,19,Right, 19,Female,No,English,E,379,0,0,0,180.0,1.0,1.0,598.662,1.0,378.0,11.0,1.00433,0.891059
White,19,Right, 19,Female,No,English,E,380,0,8,0,0.0,0.0,1.0,891.168,1.0,379.0,11.0,1.18538,0.906996
White,19,Right, 19,Female,No,English,E,381,0,8,4,0.0,0.0,1.0,618.65,1.0,380.0,11.0,1.02997,0.943694
White,19,Right, 19,Female,No,English,E,382,0,0,8,0.0,0.0,1.0,675.032,1.0,381.0,11.0,1.09516,0.9633
White,19,Right, 19,Female,No,English,E,383,0,16,16,0.0,0.0,1.0,1004.0,1.0,382.0,11.0,1.19966,0.948097
White,19,Right, 19,Female,No,English,E,384,1,8,8,180.0,1.0,1.0,892.694,1.0,383.0,11.0,1.01845,0.859379
White,19,Right, 19,Female,No,English,E,385,0,0,16,180.0,1.0,1.0,919.302,1.0,384.0,12.0,1.16083,0.98214
White,19,Right, 19,Female,No,English,E,386,1,8,4,180.0,1.0,1.0,519.727,1.0,385.0,12.0,1.05291,0.923729
White,19,Right, 19,Female,No,English,E,387,0,0,4,180.0,1.0,1.0,737.504,1.0,386.0,12.0,1.09524,0.959662
White,19,Right, 19,Female,No,English,E,388,1,0,4,0.0,0.0,1.0,794.364,1.0,387.0,12.0,1.00535,0.853825
White,19,Right, 19,Female,No,English,E,389,1,16,4,0.0,0.0,1.0,750.436,1.0,388.0,12.0,1.09117,0.886673
White,19,Right, 19,Female,No,English,E,390,1,4,8,180.0,1.0,1.0,1093.31,1.0,389.0,12.0,1.03998,0.836244
White,19,Right, 19,Female,No,English,E,391,0,0,0,0.0,0.0,1.0,738.594,1.0,390.0,12.0,1.0588,0.922367
White,19,Right, 19,Female,No,English,E,392,1,4,0,0.0,0.0,1.0,1127.02,1.0,391.0,12.0,1.07004,0.800749
White,19,Right, 19,Female,No,English,E,393,1,0,8,0.0,0.0,1.0,614.821,1.0,392.0,12.0,1.11282,0.9661
White,19,Right, 19,Female,No,English,E,394,1,8,8,0.0,0.0,1.0,647.582,1.0,393.0,12.0,1.02631,0.948142
White,19,Right, 19,Female,No,English,E,395,0,16,4,180.0,1.0,1.0,944.967,1.0,394.0,12.0,1.12909,0.968703
White,19,Right, 19,Female,No,English,E,396,0,8,16,180.0,1.0,1.0,899.755,1.0,395.0,12.0,1.13253,0.830164
White,19,Right, 19,Female,No,English,E,397,1,4,4,180.0,1.0,1.0,1072.52,1.0,396.0,12.0,1.06535,0.893632
White,19,Right, 19,Female,No,English,E,398,0,16,16,0.0,0.0,1.0,1049.86,1.0,397.0,12.0,1.1438,0.850028
White,19,Right, 19,Female,No,English,E,399,1,8,16,0.0,0.0,1.0,743.182,1.0,398.0,12.0,1.19836,0.891448
White,19,Right, 19,Female,No,English,E,400,1,16,8,180.0,1.0,1.0,952.136,1.0,399.0,12.0,1.15043,0.827815
White,19,Right, 19,Female,No,English,E,401,1,16,0,180.0,1.0,1.0,827.047,1.0,400.0,12.0,1.01102,0.925574
White,19,Right, 19,Female,No,English,E,402,0,8,4,180.0,1.0,1.0,1172.3,1.0,401.0,12.0,1.03438,0.905631
White,19,Right, 19,Female,No,English,E,403,1,0,16,0.0,0.0,1.0,744.337,1.0,402.0,12.0,1.03072,0.976165
White,19,Right, 19,Female,No,English,E,404,0,8,8,0.0,0.0,1.0,1015.36,1.0,403.0,12.0,1.11881,0.917522
White,19,Right, 19,Female,No,English,E,405,0,4,8,0.0,0.0,1.0,832.675,1.0,404.0,12.0,1.1474,0.963788
White,19,Right, 19,Female,No,English,E,406,0,4,16,0.0,0.0,1.0,943.371,1.0,405.0,12.0,1.09615,0.986859
White,19,Right, 19,Female,No,English,E,407,0,8,0,0.0,0.0,1.0,1104.92,1.0,406.0,12.0,1.09877,0.869729
White,19,Right, 19,Female,No,English,E,408,0,0,8,180.0,1.0,1.0,951.995,1.0,407.0,12.0,1.08476,0.884988
White,19,Right, 19,Female,No,English,E,409,0,16,0,180.0,1.0,1.0,1063.12,1.0,408.0,12.0,1.02061,0.849442
White,19,Right, 19,Female,No,English,E,410,1,0,0,0.0,0.0,1.0,489.683,1.0,409.0,12.0,1.11855,0.991362
White,19,Right, 19,Female,No,English,E,411,1,8,0,0.0,0.0,1.0,560.169,1.0,410.0,12.0,1.10779,0.910396
White,19,Right, 19,Female,No,English,E,412,0,16,8,180.0,1.0,1.0,778.117,1.0,411.0,12.0,1.0411,0.90312
White,19,Right, 19,Female,No,English,E,413,0,4,0,180.0,1.0,1.0,667.212,1.0,412.0,12.0,1.14195,0.876163
White,19,Right, 19,Female,No,English,E,414,1,4,16,180.0,1.0,1.0,580.875,1.0,413.0,12.0,1.04481,0.805659
White,19,Right, 19,Female,No,English,E,415,0,4,4,180.0,1.0,1.0,1029.26,1.0,414.0,12.0,1.19895,0.986325
White,19,Right, 19,Female,No,English,E,416,1,16,16,0.0,0.0,1.0,747.437,1.0,415.0,12.0,1.11064,0.957801
White,19,Right, 19,Female,No,English,E,417,1,0,16,0.0,0.0,1.0,550.96,1.0,416.0,13.0,1.09,0.902898
White,19,Right, 19,Female,No,English,E,418,0,8,8,0.0,0.0,1.0,1006.17,1.0,417.0,13.0,1.0031,0.95373
White,19,Right, 19,Female,No,English,E,419,0,0,8,0.0,0.0,1.0,658.536,1.0,418.0,13.0,1.10265,0.899803
White,19,Right, 19,Female,No,English,E,420,0,4,4,180.0,1.0,1.0,729.38,1.0,419.0,13.0,1.01408,0.869849
White,19,Right, 19,Female,No,English,E,421,1,8,8,0.0,0.0,1.0,731.462,1.0,420.0,13.0,1.19011,0.892239
White,19,Right, 19,Female,No,English,E,422,1,4,16,180.0,1.0,1.0,857.849,1.0,421.0,13.0,1.02376,0.914372
White,19,Right, 19,Female,No,English,E,423,0,8,16,0.0,0.0,1.0,775.189,1.0,422.0,13.0,1.03808,0.948181
White,19,Right, 19,Female,No,English,E,424,0,4,0,0.0,0.0,1.0,857.107,1.0,423.0,13.0,1.15363,0.817818
White,19,Right, 19,Female,No,English,E,425,0,0,4,180.0,1.0,1.0,610.717,1.0,424.0,13.0,1.1115,0.848146
White,19,Right, 19,Female,No,English,E,426,0,16,4,0.0,0.0,1.0,1047.29,1.0,425.0,13.0,1.04204,0.936046
White,19,Right, 19,Female,No,English,E,427,1,8,16,0.0,0.0,1.0,1129.72,1.0,426.0,13.0,1.10678,0.900941
White,19,Right, 19,Female,No,English,E,428,0,4,16,0.0,0.0,1.0,981.634,1.0,427.0,13.0,1.0307,0.937938
White,19,Right, 19,Female,No,English,E,429,0,0,16,180.0,1.0,1.0,708.889,1.0,428.0,13.0,1.15434,0.835525
White,19,Right, 19,Female,No,English,E,430,1,16,8,0.0,0.0,1.0,677.634,1.0,429.0,13.0,1.06825,0.994087
White,19,Right, 19,Female,No,English,E,431,1,0,0,180.0,1.0,1.0,866.173,1.0,430.0,13.0,1.09922,0.98379
White,19,Right, 19,Female,No,English,E,432,1,16,0,180.0,1.0,1.0,572.087,1.0,431.0,13.0,1.17386,0.869734
White,19,Right, 19,Female,No,English,E,433,0,16,16,180.0,1.0,1.0,817.656,1.0,432.0,13.0,1.11786,0.86572
White,19,Right, 19,Female,No,English,E,434,1,8,4,180.0,1.0,1.0,1644.43,1.0,433.0,13.0,1.1818,0.831834
White,19,Right, 19,Female,No,English,E,435,1,8,0,180.0,1.0,1.0,755.772,1.0,434.0,13.0,1.05448,0.874919
White,19,Right, 19,Female,No,English,E,436,0,8,0,180.0,1.0,1.0,771.401,1.0,435.0,13.0,1.13066,0.809848
White,19,Right, 19,Female,No,English,E,437,0,8,4,0.0,1.0,0.0,523.003,1.0,436.0,13.0,1.01287,0.812756
White,19,Right, 19,Female,No,English,E,438,0,16,0,180.0,1.0,1.0,903.657,1.0,437.0,13.0,1.15923,0.834851
White,19,Right, 19,Female,No,English,E,439,1,4,4,0.0,0.0,1.0,918.924,1.0,438.0,13.0,1.14431,0.931302
White,19,Right, 19,Female,No,English,E,440,1,0,4,180.0,1.0,1.0,664.147,1.0,439.0,13.0,1.10809,0.991902
White,19,Right, 19,Female,No,English,E,441,0,16,8,0.0,0.0,1.0,755.725,1.0,440.0,13.0,1.03756,0.920852
White,19,Right, 19,Female,No,English,E,442,1,16,4,180.0,1.0,1.0,979.382,1.0,441.0,13.0,1.11557,0.814281
White,19,Right, 19,Female,No,English,E,443,1,0,8,0.0,0.0,1.0,771.469,1.0,442.0,13.0,1.08806,0.848742
White,19,Right, 19,Female,No,English,E,444,1,4,0,180.0,1.0,1.0,543.172,1.0,443.0,13.0,1.10605,0.829466
White,19,Right, 19,Female,No,English,E,445,0,4,8,180.0,1.0,1.0,837.882,1.0,444.0,13.0,1.16237,0.813692
White,19,Right, 19,Female,No,English,E,446,1,16,16,0.0,0.0,1.0,1214.61,1.0,445.0,13.0,1.02628,0.855523
White,19,Right, 19,Female,No,English,E,447,1,4,8,180.0,1.0,1.0,906.23,1.0,446.0,13.0,1.17136,0.866308
White,19,Right, 19,Female,No,English,E,448,0,0,0,0.0,0.0,1.0,776.695,1.0,447.0,13.0,1.14724,0.884274
White,19,Right, 19,Female,No,English,E,449,0,0,16,0.0,0.0,1.0,702.192,1.0,448.0,14.0,1.02901,0.9824
White,19,Right, 19,Female,No,English,E,450,1,16,0,180.0,1.0,1.0,1125.54,1.0,449.0,14.0,1.12402,0.967234
White,19,Right, 19,Female,No,English,E,451,1,4,16,0.0,0.0,1.0,1052.15,1.0,450.0,14.0,1.02989,0.968768
White,19,Right, 19,Female,No,English,E,452,1,16,8,0.0,0.0,1.0,577.117,1.0,451.0,14.0,1.18237,0.890937
White,19,Right, 19,Female,No,English,E,453,0,4,4,180.0,1.0,1.0,770.887,1.0,452.0,14.0,1.16081,0.80958
White,19,Right, 19,Female,No,English,E,454,1,8,16,0.0,0.0,1.0,597.69,1.0,453.0,14.0,1.10309,0.937576
White,19,Right, 19,Female,No,English,E,455,1,4,8,0.0,0.0,1.0,834.396,1.0,454.0,14.0,1.125,0.868024
White,19,Right, 19,Female,No,English,E,456,0,16,16,0.0,0.0,1.0,746.166,1.0,455.0,14.0,1.13317,0.849384
White,19,Right, 19,Female,No,English,E,457,0,0,0,0.0,0.0,1.0,490.677,1.0,456.0,14.0,1.14596,0.976721
White,19,Right, 19,Female,No,English,E,458,1,8,8,0.0,0.0,1.0,528.042,1.0,457.0,14.0,1.08593,0.82163
White,19,Right, 19,Female,No,English,E,459,1,8,0,180.0,1.0,1.0,793.565,1.0,458.0,14.0,1.16659,0.890145
White,19,Right, 19,Female,No,English,E,460,1,16,4,180.0,1.0,1.0,617.89,1.0,459.0,14.0,1.18738,0.939745
White,19,Right, 19,Female,No,English,E,461,1,4,0,180.0,1.0,1.0,700.008,1.0,460.0,14.0,1.13272,0.833737
White,19,Right, 19,Female,No,English,E,462,0,4,8,0.0,0.0,1.0,1106.34,1.0,461.0,14.0,1.01964,0.820574
White,19,Right, 19,Female,No,English,E,463,0,16,4,0.0,0.0,1.0,1313.44,1.0,462.0,14.0,1.0937,0.961846
White,19,Right, 19,Female,No,English,E,464,1,0,0,0.0,0.0,1.0,652.806,1.0,463.0,14.0,1.02445,0.845228
White,19,Right, 19,Female,No,English,E,465,1,16,16,180.0,1.0,1.0,740.584,1.0,464.0,14.0,1.00661,0.976706
White,19,Right, 19,Female,No,English,E,466,0,8,4,0.0,0.0,1.0,1155.32,1.0,465.0,14.0,1.10135,0.87322
White,19,Right, 19,Female,No,English,E,467,1,0,16,180.0,1.0,1.0,1125.43,1.0,466.0,14.0,1.06386,0.937996
White,19,Right, 19,Female,No,English,E,468,0,16,8,180.0,1.0,1.0,941.44,1.0,467.0,14.0,1.08638,0.93828
White,19,Right, 19,Female,No,English,E,469,0,8,16,180.0,1.0,1.0,781.438,1.0,468.0,14.0,1.10811,0.885652
White,19,Right, 19,Female,No,English,E,470,1,0,4,0.0,0.0,1.0,698.618,1.0,469.0,14.0,1.01031,0.953154
White,19,Right, 19,Female,No,English,E,471,1,8,4,0.0,0.0,1.0,618.318,1.0,470.0,14.0,1.06396,0.867239
White,19,Right, 19,Female,No,English,E,472,0,4,16,180.0,1.0,1.0,729.342,1.0,471.0,14.0,1.04046,0.85012
White,19,Right, 19,Female,No,English,E,473,0,0,4,0.0,0.0,1.0,665.353,1.0,472.0,14.0,1.14542,0.96976
White,19,Right, 19,Female,No,English,E,474,0,0,8,180.0,1.0,1.0,605.114,1.0,473.0,14.0,1.18491,0.911397
White,19,Right, 19,Female,No,English,E,475,1,0,8,180.0,1.0,1.0,1059.22,1.0,474.0,14.0,1.15198,0.854617
White,19,Right, 19,Female,No,English,E,476,0,16,0,180.0,1.0,1.0,1033.1,1.0,475.0,14.0,1.04312,0.818475
White,19,Right, 19,Female,No,English,E,477,0,8,0,180.0,1.0,1.0,692.177,1.0,476.0,14.0,1.14777,0.859203
White,19,Right, 19,Female,No,English,E,478,1,4,4,180.0,1.0,1.0,609.14,1.0,477.0,14.0,1.09501,0.889266
White,19,Right, 19,Female,No,English,E,479,0,8,8,0.0,0.0,1.0,819.957,1.0,478.0,14.0,1.03078,0.85983
White,19,Right, 19,Female,No,English,E,480,0,4,0,180.0,1.0,1.0,625.313,1.0,479.0,14.0,1.17381,0.96834
White,19,Right, 19,Female,No,English,E,481,0,16,16,180.0,1.0,1.0,649.6,1.0,480.0,15.0,1.04421,0.880237
White,19,Right, 19,Female,No,English,E,482,1,8,0,180.0,1.0,1.0,598.548,1.0,481.0,15.0,1.13143,0.988417
White,19,Right, 19,Female,No,English,E,483,1,0,0,180.0,1.0,1.0,516.127,1.0,482.0,15.0,1.02563,0.932052
White,19,Right, 19,Female,No,English,E,484,1,0,8,0.0,0.0,1.0,860.439,1.0,483.0,15.0,1.00105,0.948298
White,19,Right, 19,Female,No,English,E,485,1,16,16,180.0,1.0,1.0,713.865,1.0,484.0,15.0,1.09929,0.86856
White,19,Right, 19,Female,No,English,E,486,0,8,16,0.0,0.0,1.0,822.046,1.0,485.0,15.0,1.04485,0.817298
White,19,Right, 19,Female,No,English,E,487,1,0,16,0.0,0.0,1.0,769.406,1.0,486.0,15.0,1.12654,0.985413
White,19,Right, 19,Female,No,English,E,488,0,16,4,180.0,1.0,1.0,953.039,1.0,487.0,15.0,1.15969,0.972746
White,19,Right, 19,Female,No,English,E,489,0,16,0,0.0,0.0,1.0,850.178,1.0,488.0,15.0,1.14113,0.977629
White,19,Right, 19,Female,No,English,E,490,0,0,0,0.0,0.0,1.0,652.669,1.0,489.0,15.0,1.13469,0.877294
White,19,Right, 19,Female,No,English,E,491,1,4,8,0.0,0.0,1.0,686.226,1.0,490.0,15.0,1.09704,0.927427
White,19,Right, 19,Female,No,English,E,492,1,4,4,0.0,0.0,1.0,615.537,1.0,491.0,15.0,1.08851,0.969829
White,19,Right, 19,Female,No,English,E,493,1,16,8,180.0,1.0,1.0,724.691,1.0,492.0,15.0,1.14502,0.832392
White,19,Right, 19,Female,No,English,E,494,1,8,4,180.0,1.0,1.0,1043.9,1.0,493.0,15.0,1.12889,0.921763
White,19,Right, 19,Female,No,English,E,495,0,4,0,180.0,1.0,1.0,972.843,1.0,494.0,15.0,1.18166,0.808621
White,19,Right, 19,Female,No,English,E,496,1,8,16,180.0,1.0,1.0,813.752,1.0,495.0,15.0,1.04067,0.860368
White,19,Right, 19,Female,No,English,E,497,0,0,4,0.0,0.0,1.0,712.959,1.0,496.0,15.0,1.15522,0.942396
White,19,Right, 19,Female,No,English,E,498,0,16,8,0.0,0.0,1.0,682.151,1.0,497.0,15.0,1.03366,0.817277
White,19,Right, 19,Female,No,English,E,499,0,4,4,180.0,1.0,1.0,779.114,1.0,498.0,15.0,1.0917,0.916035
White,19,Right, 19,Female,No,English,E,500,1,4,0,0.0,0.0,1.0,729.594,1.0,499.0,15.0,1.05805,0.892728
White,19,Right, 19,Female,No,English,E,501,1,4,16,0.0,0.0,1.0,716.04,1.0,500.0,15.0,1.07475,0.807288
White,19,Right, 19,Female,No,English,E,502,1,0,4,0.0,0.0,1.0,577.992,1.0,501.0,15.0,1.08355,0.992025
White,19,Right, 19,Female,No,English,E,503,0,8,4,180.0,1.0,1.0,824.782,1.0,502.0,15.0,1.01952,0.805095
White,19,Right, 19,Female,No,English,E,504,0,0,16,180.0,1.0,1.0,747.36,1.0,503.0,15.0,1.01182,0.819313
White,19,Right, 19,Female,No,English,E,505,1,16,0,180.0,1.0,1.0,655.595,1.0,504.0,15.0,1.1045,0.825473
White,19,Right, 19,Female,No,English,E,506,0,0,8,0.0,0.0,1.0,880.822,1.0,505.0,15.0,1.19531,0.841807
White,19,Right, 19,Female,No,English,E,507,0,8,8,180.0,1.0,1.0,540.831,1.0,506.0,15.0,1.00998,0.807225
White,19,Right, 19,Female,No,English,E,508,1,16,4,180.0,1.0,1.0,954.383,1.0,507.0,15.0,1.17095,0.961601
White,19,Right, 19,Female,No,English,E,509,1,8,8,0.0,0.0,1.0,974.672,1.0,508.0,15.0,1.08137,0.824442
White,19,Right, 19,Female,No,English,E,510,0,8,0,180.0,1.0,1.0,676.932,1.0,509.0,15.0,1.05238,0.88487
White,19,Right, 19,Female,No,English,E,511,0,4,8,0.0,0.0,1.0,633.893,1.0,510.0,15.0,1.09459,0.851617
White,19,Right, 19,Female,No,English,E,512,0,4,16,0.0,0.0,1.0,839.482,1.0,511.0,15.0,1.11015,0.918477
White,19,Right, 19,Female,No,English,E,513,1,16,8,0.0,0.0,1.0,765.788,1.0,512.0,16.0,1.12629,0.891235
White,19,Right, 19,Female,No,English,E,514,0,8,8,0.0,0.0,1.0,929.005,1.0,513.0,16.0,1.11113,0.854075
White,19,Right, 19,Female,No,English,E,515,1,16,0,0.0,0.0,1.0,623.074,1.0,514.0,16.0,1.01115,0.845314
White,19,Right, 19,Female,No,English,E,516,0,0,4,180.0,1.0,1.0,607.485,1.0,515.0,16.0,1.01283,0.966064
White,19,Right, 19,Female,No,English,E,517,1,8,4,0.0,0.0,1.0,1366.92,1.0,516.0,16.0,1.07652,0.981184
White,19,Right, 19,Female,No,English,E,518,0,8,0,0.0,0.0,1.0,823.724,1.0,517.0,16.0,1.02585,0.883586
White,19,Right, 19,Female,No,English,E,519,0,16,8,180.0,1.0,1.0,969.622,1.0,518.0,16.0,1.00202,0.912816
White,19,Right, 19,Female,No,English,E,520,1,8,8,0.0,0.0,1.0,746.559,1.0,519.0,16.0,1.02948,0.855262
White,19,Right, 19,Female,No,English,E,521,1,4,0,180.0,1.0,1.0,770.136,1.0,520.0,16.0,1.16086,0.84799
White,19,Right, 19,Female,No,English,E,522,0,4,16,0.0,0.0,1.0,744.999,1.0,521.0,16.0,1.17611,0.95022
White,19,Right, 19,Female,No,English,E,523,1,4,4,180.0,1.0,1.0,659.922,1.0,522.0,16.0,1.07781,0.954126
White,19,Right, 19,Female,No,English,E,524,1,0,4,180.0,1.0,1.0,563.857,1.0,523.0,16.0,1.09281,0.999412
White,19,Right, 19,Female,No,English,E,525,1,8,16,0.0,0.0,1.0,862.564,1.0,524.0,16.0,1.0248,0.899206
White,19,Right, 19,Female,No,English,E,526,0,8,16,180.0,1.0,1.0,962.435,1.0,525.0,16.0,1.02542,0.966345
White,19,Right, 19,Female,No,English,E,527,0,16,4,180.0,1.0,1.0,775.154,1.0,526.0,16.0,1.16463,0.928216
White,19,Right, 19,Female,No,English,E,528,1,4,16,0.0,0.0,1.0,608.763,1.0,527.0,16.0,1.17965,0.915203
White,19,Right, 19,Female,No,English,E,529,0,16,16,180.0,1.0,1.0,771.456,1.0,528.0,16.0,1.06751,0.92363
White,19,Right, 19,Female,No,English,E,530,1,8,0,180.0,1.0,1.0,433.178,1.0,529.0,16.0,1.00256,0.838333
White,19,Right, 19,Female,No,English,E,531,1,4,8,0.0,0.0,1.0,614.961,1.0,530.0,16.0,1.16737,0.874849
White,19,Right, 19,Female,No,English,E,532,1,0,0,0.0,0.0,1.0,586.229,1.0,531.0,16.0,1.11483,0.916769
White,19,Right, 19,Female,No,English,E,533,1,0,16,180.0,1.0,1.0,591.766,1.0,532.0,16.0,1.0722,0.80559
White,19,Right, 19,Female,No,English,E,534,0,4,8,0.0,0.0,1.0,1000.85,1.0,533.0,16.0,1.0278,0.82501
White,19,Right, 19,Female,No,English,E,535,0,16,0,0.0,0.0,1.0,1178.83,1.0,534.0,16.0,1.05355,0.902928
White,19,Right, 19,Female,No,English,E,536,0,8,4,180.0,1.0,1.0,1114.1,1.0,535.0,16.0,1.07011,0.869909
White,19,Right, 19,Female,No,English,E,537,0,0,0,180.0,1.0,1.0,700.729,1.0,536.0,16.0,1.08336,0.890981
White,19,Right, 19,Female,No,English,E,538,0,0,16,0.0,0.0,1.0,614.552,1.0,537.0,16.0,1.13064,0.942622
White,19,Right, 19,Female,No,English,E,539,0,4,4,180.0,1.0,1.0,859.131,1.0,538.0,16.0,1.13692,0.865239
White,19,Right, 19,Female,No,English,E,540,0,0,8,180.0,1.0,1.0,653.792,1.0,539.0,16.0,1.11856,0.876821
White,19,Right, 19,Female,No,English,E,541,1,16,4,0.0,0.0,1.0,778.329,1.0,540.0,16.0,1.10613,0.934018
White,19,Right, 19,Female,No,English,E,542,1,16,16,180.0,1.0,1.0,689.687,1.0,541.0,16.0,1.01532,0.854647
White,19,Right, 19,Female,No,English,E,543,0,4,0,0.0,0.0,1.0,697.166,1.0,542.0,16.0,1.19873,0.905927
White,19,Right, 19,Female,No,English,E,544,1,0,8,180.0,1.0,1.0,690.192,1.0,543.0,16.0,1.13651,0.89697
White,19,Right, 19,Female,No,English,E,545,0,16,4,180.0,1.0,1.0,850.664,1.0,544.0,17.0,1.12156,0.88993
White,19,Right, 19,Female,No,English,E,546,1,8,16,0.0,0.0,1.0,748.527,1.0,545.0,17.0,1.01581,0.88459
White,19,Right, 19,Female,No,English,E,547,1,16,16,180.0,1.0,1.0,669.612,1.0,546.0,17.0,1.16351,0.854878
White,19,Right, 19,Female,No,English,E,548,0,8,16,180.0,1.0,1.0,597.226,1.0,547.0,17.0,1.08229,0.806244
White,19,Right, 19,Female,No,English,E,549,1,8,8,0.0,0.0,1.0,668.599,1.0,548.0,17.0,1.00252,0.967428
White,19,Right, 19,Female,No,English,E,550,1,16,4,0.0,0.0,1.0,646.502,1.0,549.0,17.0,1.08776,0.944806
White,19,Right, 19,Female,No,English,E,551,1,4,4,0.0,0.0,1.0,643.906,1.0,550.0,17.0,1.1153,0.919322
White,19,Right, 19,Female,No,English,E,552,0,0,4,180.0,1.0,1.0,971.095,1.0,551.0,17.0,1.09006,0.959205
White,19,Right, 19,Female,No,English,E,553,0,8,0,0.0,0.0,1.0,789.146,1.0,552.0,17.0,1.18857,0.881844
White,19,Right, 19,Female,No,English,E,554,1,16,0,180.0,1.0,1.0,823.826,1.0,553.0,17.0,1.03802,0.827432
White,19,Right, 19,Female,No,English,E,555,1,0,16,0.0,0.0,1.0,593.45,1.0,554.0,17.0,1.16789,0.950008
White,19,Right, 19,Female,No,English,E,556,1,4,16,0.0,0.0,1.0,909.116,1.0,555.0,17.0,1.02042,0.903711
White,19,Right, 19,Female,No,English,E,557,0,4,16,0.0,0.0,1.0,1244.57,1.0,556.0,17.0,1.05096,0.97932
White,19,Right, 19,Female,No,English,E,558,1,4,8,180.0,1.0,1.0,603.737,1.0,557.0,17.0,1.15336,0.943832
White,19,Right, 19,Female,No,English,E,559,0,0,16,0.0,0.0,1.0,735.035,1.0,558.0,17.0,1.02502,0.93198
White,19,Right, 19,Female,No,English,E,560,1,0,0,180.0,1.0,1.0,568.981,1.0,559.0,17.0,1.11937,0.831143
White,19,Right, 19,Female,No,English,E,561,0,16,16,180.0,1.0,1.0,948.365,1.0,560.0,17.0,1.01937,0.899414
White,19,Right, 19,Female,No,English,E,562,0,4,8,180.0,1.0,1.0,1047.21,1.0,561.0,17.0,1.17799,0.95748
White,19,Right, 19,Female,No,English,E,563,0,4,0,0.0,0.0,1.0,864.926,1.0,562.0,17.0,1.19984,0.892444
White,19,Right, 19,Female,No,English,E,564,1,8,4,0.0,0.0,1.0,716.573,1.0,563.0,17.0,1.1078,0.998776
White,19,Right, 19,Female,No,English,E,565,0,0,0,180.0,1.0,1.0,943.721,1.0,564.0,17.0,1.02008,0.969769
White,19,Right, 19,Female,No,English,E,566,0,16,8,180.0,1.0,1.0,970.973,1.0,565.0,17.0,1.12381,0.966898
White,19,Right, 19,Female,No,English,E,567,1,0,8,0.0,0.0,1.0,714.675,1.0,566.0,17.0,1.10904,0.876607
White,19,Right, 19,Female,No,English,E,568,1,4,0,180.0,1.0,1.0,1084.54,1.0,567.0,17.0,1.08415,0.86141
White,19,Right, 19,Female,No,English,E,569,0,4,4,180.0,1.0,1.0,660.302,1.0,568.0,17.0,1.19848,0.949709
White,19,Right, 19,Female,No,English,E,570,0,16,0,0.0,0.0,1.0,777.516,1.0,569.0,17.0,1.00088,0.877738
White,19,Right, 19,Female,No,English,E,571,0,8,4,0.0,0.0,1.0,656.537,1.0,570.0,17.0,1.12886,0.945159
White,19,Right, 19,Female,No,English,E,572,0,8,8,180.0,1.0,1.0,596.811,1.0,571.0,17.0,1.14989,0.801242
White,19,Right, 19,Female,No,English,E,573,1,16,8,180.0,1.0,1.0,546.797,1.0,572.0,17.0,1.11468,0.935475
White,19,Right, 19,Female,No,English,E,574,1,0,4,0.0,0.0,1.0,704.1,1.0,573.0,17.0,1.09549,0.845635
White,19,Right, 19,Female,No,English,E,575,1,8,0,180.0,1.0,1.0,754.522,1.0,574.0,17.0,1.06637,0.849698
White,19,Right, 19,Female,No,English,E,576,0,0,8,0.0,0.0,1.0,698.48,1.0,575.0,17.0,1.00964,0.918342
White,19,Right, 19,Female,No,English,E,577,1,0,8,180.0,1.0,1.0,601.904,1.0,576.0,18.0,1.16357,0.870979
White,19,Right, 19,Female,No,English,E,578,1,16,4,0.0,0.0,1.0,609.723,1.0,577.0,18.0,1.19086,0.901955
White,19,Right, 19,Female,No,English,E,579,0,4,16,0.0,0.0,1.0,751.082,1.0,578.0,18.0,1.11534,0.992372
White,19,Right, 19,Female,No,English,E,580,0,8,4,180.0,1.0,1.0,853.894,1.0,579.0,18.0,1.06369,0.857296
White,19,Right, 19,Female,No,English,E,581,0,4,0,180.0,1.0,1.0,867.694,1.0,580.0,18.0,1.16001,0.965533
White,19,Right, 19,Female,No,English,E,582,1,16,0,180.0,1.0,1.0,697.846,1.0,581.0,18.0,1.00172,0.817281
White,19,Right, 19,Female,No,English,E,583,1,8,4,0.0,0.0,1.0,792.136,1.0,582.0,18.0,1.00667,0.847092
White,19,Right, 19,Female,No,English,E,584,0,16,8,0.0,0.0,1.0,834.38,1.0,583.0,18.0,1.16984,0.983381
White,19,Right, 19,Female,No,English,E,585,0,16,16,0.0,0.0,1.0,816.862,1.0,584.0,18.0,1.13085,0.991858
White,19,Right, 19,Female,No,English,E,586,1,0,0,0.0,0.0,1.0,694.1,1.0,585.0,18.0,1.14288,0.999092
White,19,Right, 19,Female,No,English,E,587,1,0,4,0.0,0.0,1.0,618.929,1.0,586.0,18.0,1.08582,0.929828
White,19,Right, 19,Female,No,English,E,588,1,8,0,180.0,1.0,1.0,757.948,1.0,587.0,18.0,1.11296,0.984192
White,19,Right, 19,Female,No,English,E,589,1,16,16,0.0,0.0,1.0,732.823,1.0,588.0,18.0,1.00212,0.901259
White,19,Right, 19,Female,No,English,E,590,0,4,8,180.0,1.0,1.0,1175.62,1.0,589.0,18.0,1.09347,0.834451
White,19,Right, 19,Female,No,English,E,591,1,4,16,180.0,1.0,1.0,610.621,1.0,590.0,18.0,1.13799,0.851642
White,19,Right, 19,Female,No,English,E,592,0,8,16,0.0,0.0,1.0,665.031,1.0,591.0,18.0,1.12875,0.836946
White,19,Right, 19,Female,No,English,E,593,0,0,0,0.0,0.0,1.0,545.767,1.0,592.0,18.0,1.01202,0.974885
White,19,Right, 19,Female,No,English,E,594,1,0,16,180.0,1.0,1.0,728.092,1.0,593.0,18.0,1.15836,0.941244
White,19,Right, 19,Female,No,English,E,595,0,0,16,0.0,0.0,1.0,587.754,1.0,594.0,18.0,1.02219,0.880433
White,19,Right, 19,Female,No,English,E,596,1,8,8,0.0,0.0,1.0,668.48,1.0,595.0,18.0,1.00028,0.961491
White,19,Right, 19,Female,No,English,E,597,1,4,8,180.0,1.0,1.0,1089.81,1.0,596.0,18.0,1.05585,0.821489
White,19,Right, 19,Female,No,English,E,598,0,0,4,180.0,1.0,1.0,682.383,1.0,597.0,18.0,1.02708,0.926436
White,19,Right, 19,Female,No,English,E,599,0,4,4,180.0,1.0,1.0,846.297,1.0,598.0,18.0,1.00371,0.967464
White,19,Right, 19,Female,No,English,E,600,1,8,16,180.0,1.0,1.0,618.439,1.0,599.0,18.0,1.09094,0.875931
White,19,Right, 19,Female,No,English,E,601,0,16,4,180.0,1.0,1.0,979.976,1.0,600.0,18.0,1.12222,0.806991
White,19,Right, 19,Female,No,English,E,602,1,4,4,180.0,1.0,1.0,1036.16,1.0,601.0,18.0,1.06246,0.845617
White,19,Right, 19,Female,No,English,E,603,1,16,8,0.0,0.0,1.0,696.03,1.0,602.0,18.0,1.13401,0.808476
White,19,Right, 19,Female,No,English,E,604,0,16,0,0.0,0.0,1.0,1286.03,1.0,603.0,18.0,1.127,0.903829
White,19,Right, 19,Female,No,English,E,605,0,8,8,180.0,1.0,1.0,822.305,1.0,604.0,18.0,1.11796,0.888118
White,19,Right, 19,Female,No,English,E,606,0,8,0,0.0,0.0,1.0,632.316,1.0,605.0,18.0,1.17656,0.985707
White,19,Right, 19,Female,No,English,E,607,1,4,0,0.0,0.0,1.0,755.664,1.0,606.0,18.0,1.08197,0.846658
White,19,Right, 19,Female,No,English,E,608,0,0,8,180.0,1.0,1.0,686.864,1.0,607.0,18.0,1.05078,0.948581
White,19,Right, 19,Female,No,English,E,609,0,8,8,180.0,1.0,1.0,720.389,1.0,608.0,19.0,1.13378,0.820188
White,19,Right, 19,Female,No,English,E,610,1,16,16,0.0,0.0,1.0,831.458,1.0,609.0,19.0,1.08359,0.924991
White,19,Right, 19,Female,No,English,E,611,1,4,8,0.0,0.0,1.0,615.163,1.0,610.0,19.0,1.19424,0.956993
White,19,Right, 19,Female,No,English,E,612,1,0,8,180.0,1.0,1.0,699.618,1.0,611.0,19.0,1.07394,0.801677
White,19,Right, 19,Female,No,English,E,613,1,0,0,0.0,0.0,1.0,539.358,1.0,612.0,19.0,1.09986,0.906769
White,19,Right, 19,Female,No,English,E,614,0,8,16,0.0,0.0,1.0,1039.06,1.0,613.0,19.0,1.10369,0.916153
White,19,Right, 19,Female,No,English,E,615,0,16,4,180.0,1.0,1.0,742.115,1.0,614.0,19.0,1.00832,0.94411
White,19,Right, 19,Female,No,English,E,616,0,8,0,0.0,0.0,1.0,918.892,1.0,615.0,19.0,1.07477,0.975766
White,19,Right, 19,Female,No,English,E,617,0,16,8,0.0,0.0,1.0,591.787,1.0,616.0,19.0,1.05919,0.867833
White,19,Right, 19,Female,No,English,E,618,1,4,16,180.0,1.0,1.0,691.439,1.0,617.0,19.0,1.10091,0.959293
White,19,Right, 19,Female,No,English,E,619,1,0,4,0.0,0.0,1.0,1192.86,1.0,618.0,19.0,1.02682,0.961229
White,19,Right, 19,Female,No,English,E,620,0,16,0,180.0,1.0,1.0,1352.36,1.0,619.0,19.0,1.01685,0.989649
White,19,Right, 19,Female,No,English,E,621,0,4,16,180.0,1.0,1.0,627.128,1.0,620.0,19.0,1.09449,0.895318
White,19,Right, 19,Female,No,English,E,622,0,0,8,180.0,1.0,1.0,797.077,1.0,621.0,19.0,1.04573,0.805249
White,19,Right, 19,Female,No,English,E,623,1,16,8,0.0,0.0,1.0,925.893,1.0,622.0,19.0,1.18171,0.879342
White,19,Right, 19,Female,No,English,E,624,1,4,4,180.0,1.0,1.0,777.385,1.0,623.0,19.0,1.01509,0.909041
White,19,Right, 19,Female,No,English,E,625,1,4,0,180.0,1.0,1.0,920.171,1.0,624.0,19.0,1.18941,0.839483
White,19,Right, 19,Female,No,English,E,626,0,0,0,180.0,1.0,1.0,725.004,1.0,625.0,19.0,1.12616,0.812634
White,19,Right, 19,Female,No,English,E,627,1,16,0,0.0,0.0,1.0,697.089,1.0,626.0,19.0,1.18234,0.89403
White,19,Right, 19,Female,No,English,E,628,0,8,4,180.0,1.0,1.0,782.589,1.0,627.0,19.0,1.13752,0.982881
White,19,Right, 19,Female,No,English,E,629,1,8,8,0.0,0.0,1.0,750.017,1.0,628.0,19.0,1.1701,0.88808
White,19,Right, 19,Female,No,English,E,630,1,8,16,0.0,0.0,1.0,714.999,1.0,629.0,19.0,1.17283,0.853874
White,19,Right, 19,Female,No,English,E,631,0,0,4,180.0,1.0,1.0,685.681,1.0,630.0,19.0,1.13167,0.885387
White,19,Right, 19,Female,No,English,E,632,0,4,8,0.0,0.0,1.0,762.859,1.0,631.0,19.0,1.00921,0.922065
White,19,Right, 19,Female,No,English,E,633,1,0,16,0.0,0.0,1.0,684.292,1.0,632.0,19.0,1.13297,0.87312
White,19,Right, 19,Female,No,English,E,634,1,8,4,180.0,1.0,1.0,628.276,1.0,633.0,19.0,1.01717,0.968692
White,19,Right, 19,Female,No,English,E,635,0,0,16,180.0,1.0,1.0,732.985,1.0,634.0,19.0,1.19096,0.874889
White,19,Right, 19,Female,No,English,E,636,1,8,0,180.0,1.0,1.0,683.572,1.0,635.0,19.0,1.12339,0.938252
White,19,Right, 19,Female,No,English,E,637,0,4,0,0.0,0.0,1.0,790.328,1.0,636.0,19.0,1.03437,0.96261
White,19,Right, 19,Female,No,English,E,638,0,4,4,0.0,0.0,1.0,573.641,1.0,637.0,19.0,1.10405,0.865506
White,19,Right, 19,Female,No,English,E,639,1,16,4,0.0,0.0,1.0,849.91,1.0,638.0,19.0,1.04196,0.826134
White,19,Right, 19,Female,No,English,E,640,0,16,16,180.0,1.0,1.0,1023.18,1.0,639.0,19.0,1.00508,0.989434
White,19,Right, 19,Female,No,English,E,641,1,8,4,0.0,0.0,1.0,603.879,1.0,640.0,20.0,1.0077,0.839463
White,19,Right, 19,Female,No,English,E,642,1,4,0,180.0,1.0,1.0,589.432,1.0,641.0,20.0,1.09307,0.812528
White,19,Right, 19,Female,No,English,E,643,0,8,4,0.0,0.0,1.0,1109.51,1.0,642.0,20.0,1.05624,0.847257
White,19,Right, 19,Female,No,English,E,644,1,0,16,0.0,0.0,1.0,1097.18,1.0,643.0,20.0,1.13588,0.959133
White,19,Right, 19,Female,No,English,E,645,0,0,8,0.0,0.0,1.0,973.983,1.0,644.0,20.0,1.07814,0.888802
White,19,Right, 19,Female,No,English,E,646,0,4,4,0.0,0.0,1.0,788.5,1.0,645.0,20.0,1.01675,0.901976
White,19,Right, 19,Female,No,English,E,647,1,0,4,180.0,1.0,1.0,659.613,1.0,646.0,20.0,1.19779,0.885512
White,19,Right, 19,Female,No,English,E,648,0,4,0,0.0,0.0,1.0,644.545,1.0,647.0,20.0,1.10792,0.887427
White,19,Right, 19,Female,No,English,E,649,0,16,16,0.0,0.0,1.0,645.435,1.0,648.0,20.0,1.02321,0.854048
White,19,Right, 19,Female,No,English,E,650,1,8,8,180.0,1.0,1.0,1036.21,1.0,649.0,20.0,1.19034,0.840751
White,19,Right, 19,Female,No,English,E,651,1,4,16,180.0,1.0,1.0,835.398,1.0,650.0,20.0,1.06162,0.80478
White,19,Right, 19,Female,No,English,E,652,1,0,0,0.0,0.0,1.0,601.033,1.0,651.0,20.0,1.16225,0.923367
White,19,Right, 19,Female,No,English,E,653,0,8,8,180.0,1.0,1.0,908.007,1.0,652.0,20.0,1.15537,0.823804
White,19,Right, 19,Female,No,English,E,654,0,0,4,0.0,0.0,1.0,777.08,1.0,653.0,20.0,1.02662,0.972459
White,19,Right, 19,Female,No,English,E,655,0,4,8,180.0,1.0,1.0,660.925,1.0,654.0,20.0,1.12116,0.822824
White,19,Right, 19,Female,No,English,E,656,0,16,0,180.0,1.0,1.0,623.681,1.0,655.0,20.0,1.0424,0.93539
White,19,Right, 19,Female,No,English,E,657,1,8,0,0.0,0.0,1.0,572.631,1.0,656.0,20.0,1.00984,0.963591
White,19,Right, 19,Female,No,English,E,658,1,16,8,180.0,1.0,1.0,773.365,1.0,657.0,20.0,1.10269,0.939896
White,19,Right, 19,Female,No,English,E,659,1,0,8,180.0,1.0,1.0,651.78,1.0,658.0,20.0,1.06869,0.93636
White,19,Right, 19,Female,No,English,E,660,1,16,0,0.0,0.0,1.0,858.739,1.0,659.0,20.0,1.09444,0.869001
White,19,Right, 19,Female,No,English,E,661,1,16,16,0.0,0.0,1.0,611.942,1.0,660.0,20.0,1.19322,0.964614
White,19,Right, 19,Female,No,English,E,662,0,0,16,0.0,0.0,1.0,680.509,1.0,661.0,20.0,1.03638,0.903041
White,19,Right, 19,Female,No,English,E,663,1,4,4,180.0,1.0,1.0,512.586,1.0,662.0,20.0,1.02809,0.963087
White,19,Right, 19,Female,No,English,E,664,1,8,16,180.0,1.0,1.0,721.837,1.0,663.0,20.0,1.1631,0.994289
White,19,Right, 19,Female,No,English,E,665,0,16,8,180.0,1.0,1.0,970.285,1.0,664.0,20.0,1.1231,0.904125
White,19,Right, 19,Female,No,English,E,666,1,16,4,180.0,1.0,1.0,584.908,1.0,665.0,20.0,1.13065,0.919446
White,19,Right, 19,Female,No,English,E,667,0,16,4,180.0,1.0,1.0,565.959,1.0,666.0,20.0,1.04826,0.970472
White,19,Right, 19,Female,No,English,E,668,0,8,16,0.0,0.0,1.0,1036.91,1.0,667.0,20.0,1.13636,0.9406
White,19,Right, 19,Female,No,English,E,669,0,0,0,0.0,0.0,1.0,520.606,1.0,668.0,20.0,1.09871,0.848221
White,19,Right, 19,Female,No,English,E,670,0,4,16,0.0,0.0,1.0,539.746,1.0,669.0,20.0,1.07325,0.972584
White,19,Right, 19,Female,No,English,E,671,0,8,0,180.0,1.0,1.0,816.563,1.0,670.0,20.0,1.17487,0.910137
White,19,Right, 19,Female,No,English,E,672,1,4,8,180.0,1.0,1.0,769.431,1.0,671.0,20.0,1.05316,0.896009
White,19,Right, 19,Female,No,English,E,673,1,0,0,0.0,0.0,1.0,920.676,1.0,672.0,21.0,1.01311,0.905963
White,19,Right, 19,Female,No,English,E,674,1,8,4,180.0,1.0,1.0,622.473,1.0,673.0,21.0,1.14591,0.891396
White,19,Right, 19,Female,No,English,E,675,1,0,16,0.0,0.0,1.0,617.2,1.0,674.0,21.0,1.01444,0.838686
White,19,Right, 19,Female,No,English,E,676,0,8,16,180.0,1.0,1.0,644.029,1.0,675.0,21.0,1.03499,0.822963
White,19,Right, 19,Female,No,English,E,677,0,8,0,0.0,0.0,1.0,615.081,1.0,676.0,21.0,1.0012,0.80612
White,19,Right, 19,Female,No,English,E,678,0,8,4,180.0,1.0,1.0,700.381,1.0,677.0,21.0,1.13013,0.927909
White,19,Right, 19,Female,No,English,E,679,1,4,8,180.0,1.0,1.0,564.37,1.0,678.0,21.0,1.08531,0.90258
White,19,Right, 19,Female,No,English,E,680,1,4,0,0.0,0.0,1.0,826.07,1.0,679.0,21.0,1.12701,0.913414
White,19,Right, 19,Female,No,English,E,681,1,16,0,0.0,0.0,1.0,740.929,1.0,680.0,21.0,1.1792,0.930422
White,19,Right, 19,Female,No,English,E,682,1,4,16,180.0,1.0,1.0,757.881,1.0,681.0,21.0,1.09166,0.806585
White,19,Right, 19,Female,No,English,E,683,1,8,0,180.0,1.0,1.0,588.939,1.0,682.0,21.0,1.17851,0.840994
White,19,Right, 19,Female,No,English,E,684,1,8,8,180.0,1.0,1.0,621.97,1.0,683.0,21.0,1.00714,0.957219
White,19,Right, 19,Female,No,English,E,685,1,16,4,180.0,1.0,1.0,1096.04,1.0,684.0,21.0,1.18889,0.851384
White,19,Right, 19,Female,No,English,E,686,1,0,8,0.0,1.0,0.0,410.924,1.0,685.0,21.0,1.03143,0.93903
White,19,Right, 19,Female,No,English,E,687,1,16,8,0.0,9999.0,0.0,9999.0,1.0,686.0,21.0,1.0077,0.913009
White,19,Right, 19,Female,No,English,E,688,1,16,16,0.0,0.0,1.0,752.901,1.0,687.0,21.0,1.0855,0.932453
White,19,Right, 19,Female,No,English,E,689,1,8,16,0.0,0.0,1.0,648.671,1.0,688.0,21.0,1.17032,0.957139
White,19,Right, 19,Female,No,English,E,690,0,16,0,180.0,1.0,1.0,753.612,1.0,689.0,21.0,1.06998,0.962497
White,19,Right, 19,Female,No,English,E,691,0,4,16,0.0,0.0,1.0,823.829,1.0,690.0,21.0,1.0724,0.960736
White,19,Right, 19,Female,No,English,E,692,0,0,16,180.0,1.0,1.0,1009.75,1.0,691.0,21.0,1.01719,0.87881
White,19,Right, 19,Female,No,English,E,693,0,16,4,0.0,0.0,1.0,1144.02,1.0,692.0,21.0,1.05639,0.867622
White,19,Right, 19,Female,No,English,E,694,1,0,4,0.0,0.0,1.0,844.242,1.0,693.0,21.0,1.02094,0.951619
White,19,Right, 19,Female,No,English,E,695,0,4,8,0.0,0.0,1.0,1023.23,1.0,694.0,21.0,1.14708,0.928944
White,19,Right, 19,Female,No,English,E,696,0,0,0,180.0,1.0,1.0,664.533,1.0,695.0,21.0,1.01435,0.930241
White,19,Right, 19,Female,No,English,E,697,0,8,8,180.0,1.0,1.0,682.525,1.0,696.0,21.0,1.149,0.852525
White,19,Right, 19,Female,No,English,E,698,0,4,4,180.0,1.0,1.0,790.705,1.0,697.0,21.0,1.02252,0.963544
White,19,Right, 19,Female,No,English,E,699,1,4,4,0.0,0.0,1.0,704.798,1.0,698.0,21.0,1.02833,0.881895
White,19,Right, 19,Female,No,English,E,700,0,0,8,0.0,0.0,1.0,1004.1,1.0,699.0,21.0,1.14924,0.816471
White,19,Right, 19,Female,No,English,E,701,0,16,16,180.0,1.0,1.0,1421.81,1.0,700.0,21.0,1.14364,0.910291
White,19,Right, 19,Female,No,English,E,702,0,4,0,180.0,1.0,1.0,829.799,1.0,701.0,21.0,1.14174,0.818817
White,19,Right, 19,Female,No,English,E,703,0,16,8,0.0,0.0,1.0,801.628,1.0,702.0,21.0,1.00791,0.885207
White,19,Right, 19,Female,No,English,E,704,0,0,4,180.0,1.0,1.0,641.322,1.0,703.0,21.0,1.08068,0.963683
White,19,Right, 19,Female,No,English,E,705,0,4,8,0.0,0.0,1.0,572.101,1.0,704.0,22.0,1.06439,0.804397
White,19,Right, 19,Female,No,English,E,706,1,8,0,180.0,1.0,1.0,827.014,1.0,705.0,22.0,1.03515,0.850546
White,19,Right, 19,Female,No,English,E,707,0,8,0,180.0,1.0,1.0,692.827,1.0,706.0,22.0,1.08067,0.95998
White,19,Right, 19,Female,No,English,E,708,0,4,0,180.0,1.0,1.0,455.659,1.0,707.0,22.0,1.0201,0.910468
White,19,Right, 19,Female,No,English,E,709,0,16,0,0.0,0.0,1.0,1047.52,1.0,708.0,22.0,1.17604,0.959498
White,19,Right, 19,Female,No,English,E,710,1,16,4,0.0,0.0,1.0,949.0,1.0,709.0,22.0,1.04186,0.926317
White,19,Right, 19,Female,No,English,E,711,0,4,4,0.0,0.0,1.0,783.648,1.0,710.0,22.0,1.19536,0.929851
White,19,Right, 19,Female,No,English,E,712,1,16,0,0.0,0.0,1.0,899.901,1.0,711.0,22.0,1.1426,0.930978
White,19,Right, 19,Female,No,English,E,713,1,8,8,0.0,0.0,1.0,587.469,1.0,712.0,22.0,1.12443,0.81754
White,19,Right, 19,Female,No,English,E,714,0,16,8,180.0,1.0,1.0,801.778,1.0,713.0,22.0,1.07409,0.966651
White,19,Right, 19,Female,No,English,E,715,0,4,16,0.0,0.0,1.0,580.161,1.0,714.0,22.0,1.13267,0.922946
White,19,Right, 19,Female,No,English,E,716,0,0,0,180.0,1.0,1.0,666.95,1.0,715.0,22.0,1.14135,0.813698
White,19,Right, 19,Female,No,English,E,717,1,4,4,180.0,1.0,1.0,714.18,1.0,716.0,22.0,1.01376,0.934676
White,19,Right, 19,Female,No,English,E,718,1,0,8,180.0,1.0,1.0,679.8,1.0,717.0,22.0,1.1723,0.943746
White,19,Right, 19,Female,No,English,E,719,1,16,16,0.0,0.0,1.0,790.662,1.0,718.0,22.0,1.17021,0.910789
White,19,Right, 19,Female,No,English,E,720,0,16,4,0.0,0.0,1.0,633.639,1.0,719.0,22.0,1.01513,0.862591
White,19,Right, 19,Female,No,English,E,721,0,8,8,0.0,0.0,1.0,536.072,1.0,720.0,22.0,1.05614,0.899648
White,19,Right, 19,Female,No,English,E,722,0,0,16,180.0,1.0,1.0,1003.13,1.0,721.0,22.0,1.18767,0.952746
White,19,Right, 19,Female,No,English,E,723,1,4,16,0.0,0.0,1.0,616.419,1.0,722.0,22.0,1.13828,0.899302
White,19,Right, 19,Female,No,English,E,724,0,16,16,0.0,0.0,1.0,566.82,1.0,723.0,22.0,1.09218,0.990558
White,19,Right, 19,Female,No,English,E,725,1,8,16,180.0,0.0,0.0,1162.8,1.0,724.0,22.0,1.0036,0.899267
White,19,Right, 19,Female,No,English,E,726,1,4,0,0.0,0.0,1.0,757.967,1.0,725.0,22.0,1.07653,0.876712
White,19,Right, 19,Female,No,English,E,727,1,0,0,180.0,1.0,1.0,626.937,1.0,726.0,22.0,1.09445,0.910043
White,19,Right, 19,Female,No,English,E,728,0,8,16,180.0,1.0,1.0,952.244,1.0,727.0,22.0,1.01258,0.952227
White,19,Right, 19,Female,No,English,E,729,1,4,8,180.0,1.0,1.0,1500.97,1.0,728.0,22.0,1.17702,0.999465
White,19,Right, 19,Female,No,English,E,730,0,0,4,0.0,0.0,1.0,1308.82,1.0,729.0,22.0,1.0183,0.800554
White,19,Right, 19,Female,No,English,E,731,1,8,4,180.0,1.0,1.0,672.733,1.0,730.0,22.0,1.10812,0.855814
White,19,Right, 19,Female,No,English,E,732,1,0,16,180.0,1.0,1.0,577.069,1.0,731.0,22.0,1.06097,0.915261
White,19,Right, 19,Female,No,English,E,733,1,0,4,180.0,1.0,1.0,541.91,1.0,732.0,22.0,1.00614,0.985852
White,19,Right, 19,Female,No,English,E,734,0,8,4,0.0,0.0,1.0,1218.96,1.0,733.0,22.0,1.10391,0.938211
White,19,Right, 19,Female,No,English,E,735,1,16,8,180.0,1.0,1.0,759.567,1.0,734.0,22.0,1.19716,0.937233
White,19,Right, 19,Female,No,English,E,736,0,0,8,0.0,0.0,1.0,960.071,1.0,735.0,22.0,1.1496,0.910734
White,19,Right, 19,Female,No,English,E,737,0,4,0,0.0,0.0,1.0,1410.51,1.0,736.0,23.0,1.19133,0.809169
White,19,Right, 19,Female,No,English,E,738,0,4,4,0.0,0.0,1.0,1012.15,1.0,737.0,23.0,1.12757,0.864325
White,19,Right, 19,Female,No,English,E,739,1,4,4,0.0,9999.0,0.0,9999.0,1.0,738.0,23.0,1.16045,0.832049
White,19,Right, 19,Female,No,English,E,740,1,8,4,0.0,0.0,1.0,1134.1,1.0,739.0,23.0,1.15906,0.842682
White,19,Right, 19,Female,No,English,E,741,0,16,16,180.0,1.0,1.0,1370.9,1.0,740.0,23.0,1.16458,0.91798
White,19,Right, 19,Female,No,English,E,742,0,16,0,180.0,1.0,1.0,780.254,1.0,741.0,23.0,1.14875,0.859108
White,19,Right, 19,Female,No,English,E,743,1,4,8,0.0,0.0,1.0,674.121,1.0,742.0,23.0,1.15228,0.851188
White,19,Right, 19,Female,No,English,E,744,1,8,0,0.0,0.0,1.0,672.561,1.0,743.0,23.0,1.1474,0.973068
White,19,Right, 19,Female,No,English,E,745,0,0,4,0.0,0.0,1.0,543.84,1.0,744.0,23.0,1.18245,0.889988
White,19,Right, 19,Female,No,English,E,746,0,16,4,0.0,0.0,1.0,1085.7,1.0,745.0,23.0,1.08464,0.895095
White,19,Right, 19,Female,No,English,E,747,0,0,0,180.0,1.0,1.0,689.309,1.0,746.0,23.0,1.1236,0.897922
White,19,Right, 19,Female,No,English,E,748,0,16,8,180.0,1.0,1.0,763.145,1.0,747.0,23.0,1.10338,0.904763
White,19,Right, 19,Female,No,English,E,749,1,8,8,0.0,0.0,1.0,673.458,1.0,748.0,23.0,1.03232,0.984969
White,19,Right, 19,Female,No,English,E,750,1,0,4,180.0,1.0,1.0,792.918,1.0,749.0,23.0,1.08443,0.864263
White,19,Right, 19,Female,No,English,E,751,1,0,0,180.0,1.0,1.0,732.577,1.0,750.0,23.0,1.07485,0.941575
White,19,Right, 19,Female,No,English,E,752,1,16,8,0.0,0.0,1.0,710.702,1.0,751.0,23.0,1.01748,0.820095
White,19,Right, 19,Female,No,English,E,753,0,8,8,180.0,1.0,1.0,860.773,1.0,752.0,23.0,1.17771,0.956053
White,19,Right, 19,Female,No,English,E,754,1,0,8,0.0,0.0,1.0,1121.38,1.0,753.0,23.0,1.02429,0.974236
White,19,Right, 19,Female,No,English,E,755,1,0,16,180.0,1.0,1.0,626.607,1.0,754.0,23.0,1.0504,0.841158
White,19,Right, 19,Female,No,English,E,756,1,4,0,180.0,1.0,1.0,685.948,1.0,755.0,23.0,1.11196,0.976074
White,19,Right, 19,Female,No,English,E,757,0,8,4,0.0,0.0,1.0,908.868,1.0,756.0,23.0,1.05006,0.82876
White,19,Right, 19,Female,No,English,E,758,0,8,0,180.0,1.0,1.0,831.778,1.0,757.0,23.0,1.035,0.875371
White,19,Right, 19,Female,No,English,E,759,0,4,8,180.0,1.0,1.0,610.107,1.0,758.0,23.0,1.03317,0.837138
White,19,Right, 19,Female,No,English,E,760,0,4,16,180.0,1.0,1.0,839.602,1.0,759.0,23.0,1.01898,0.82172
White,19,Right, 19,Female,No,English,E,761,1,16,4,180.0,1.0,1.0,602.636,1.0,760.0,23.0,1.14497,0.878858
White,19,Right, 19,Female,No,English,E,762,1,16,0,0.0,0.0,1.0,727.994,1.0,761.0,23.0,1.11453,0.899815
White,19,Right, 19,Female,No,English,E,763,1,16,16,180.0,1.0,1.0,1083.26,1.0,762.0,23.0,1.01865,0.990676
White,19,Right, 19,Female,No,English,E,764,0,0,8,0.0,0.0,1.0,934.716,1.0,763.0,23.0,1.15931,0.950851
White,19,Right, 19,Female,No,English,E,765,1,8,16,180.0,1.0,1.0,683.21,1.0,764.0,23.0,1.17391,0.803075
White,19,Right, 19,Female,No,English,E,766,0,0,16,0.0,0.0,1.0,884.056,1.0,765.0,23.0,1.09408,0.814618
White,19,Right, 19,Female,No,English,E,767,1,4,16,0.0,0.0,1.0,1133.31,1.0,766.0,23.0,1.06254,0.957816
White,19,Right, 19,Female,No,English,E,768,0,8,16,180.0,1.0,1.0,784.513,1.0,767.0,23.0,1.12358,0.978009
