Ethnicity,Subject Number,Preferred Hand,Age,Gender,Color blind,First Language,Room,TrialNumber,background,turtles,tortoises,target_id,resp,hit,rt,ran,order,block,iti,fix_duration
Asian,15,Right,21,Female,Yes,Mandarin,B,1,1,0,4,180.0,1.0,1.0,609.285,1.0,0.0,0.0,1.12173,0.897594
Asian,15,Right,21,Female,Yes,Mandarin,B,2,0,8,0,180.0,0.0,0.0,759.919,1.0,1.0,0.0,1.04614,0.884759
Asian,15,Right,21,Female,Yes,Mandarin,B,3,0,4,4,180.0,1.0,1.0,565.267,1.0,2.0,0.0,1.15377,0.957303
Asian,15,Right,21,Female,Yes,Mandarin,B,4,1,8,0,0.0,0.0,1.0,1093.63,1.0,3.0,0.0,1.01353,0.985972
Asian,15,Right,21,Female,Yes,Mandarin,B,5,1,4,8,0.0,0.0,1.0,695.379,1.0,4.0,0.0,1.03519,0.965247
Asian,15,Right,21,Female,Yes,Mandarin,B,6,1,4,0,0.0,0.0,1.0,1020.02,1.0,5.0,0.0,1.14176,0.946215
Asian,15,Right,21,Female,Yes,Mandarin,B,7,1,16,0,0.0,0.0,1.0,634.432,1.0,6.0,0.0,1.06554,0.949983
Asian,15,Right,21,Female,Yes,Mandarin,B,8,0,16,8,180.0,1.0,1.0,808.411,1.0,7.0,0.0,1.07631,0.832339
Asian,15,Right,21,Female,Yes,Mandarin,B,9,0,4,0,180.0,1.0,1.0,855.25,1.0,8.0,0.0,1.18557,0.859547
Asian,15,Right,21,Female,Yes,Mandarin,B,10,0,0,0,180.0,1.0,1.0,892.064,1.0,9.0,0.0,1.10129,0.951615
Asian,15,Right,21,Female,Yes,Mandarin,B,11,1,8,8,0.0,0.0,1.0,693.66,1.0,10.0,0.0,1.00885,0.971608
Asian,15,Right,21,Female,Yes,Mandarin,B,12,0,0,4,180.0,1.0,1.0,576.785,1.0,11.0,0.0,1.11357,0.85272
Asian,15,Right,21,Female,Yes,Mandarin,B,13,1,8,4,0.0,0.0,1.0,673.13,1.0,12.0,0.0,1.15056,0.86626
Asian,15,Right,21,Female,Yes,Mandarin,B,14,1,0,16,180.0,1.0,1.0,933.373,1.0,13.0,0.0,1.10176,0.879379
Asian,15,Right,21,Female,Yes,Mandarin,B,15,0,16,0,0.0,0.0,1.0,701.818,1.0,14.0,0.0,1.1832,0.88391
Asian,15,Right,21,Female,Yes,Mandarin,B,16,0,8,8,0.0,0.0,1.0,649.838,1.0,15.0,0.0,1.12441,0.908793
Asian,15,Right,21,Female,Yes,Mandarin,B,17,1,0,8,180.0,1.0,1.0,1006.55,1.0,16.0,0.0,1.10885,0.954674
Asian,15,Right,21,Female,Yes,Mandarin,B,18,1,16,8,0.0,0.0,1.0,826.083,1.0,17.0,0.0,1.03833,0.895094
Asian,15,Right,21,Female,Yes,Mandarin,B,19,0,0,16,180.0,1.0,1.0,1044.97,1.0,18.0,0.0,1.0045,0.822919
Asian,15,Right,21,Female,Yes,Mandarin,B,20,1,4,16,0.0,0.0,1.0,576.424,1.0,19.0,0.0,1.13596,0.993655
Asian,15,Right,21,Female,Yes,Mandarin,B,21,0,0,8,180.0,0.0,0.0,653.295,1.0,20.0,0.0,1.09812,0.918403
Asian,15,Right,21,Female,Yes,Mandarin,B,22,1,16,16,0.0,0.0,1.0,889.418,1.0,21.0,0.0,1.05764,0.879948
Asian,15,Right,21,Female,Yes,Mandarin,B,23,1,4,4,0.0,0.0,1.0,539.313,1.0,22.0,0.0,1.08432,0.841095
Asian,15,Right,21,Female,Yes,Mandarin,B,24,0,16,4,180.0,1.0,1.0,1020.49,1.0,23.0,0.0,1.03528,0.800147
Asian,15,Right,21,Female,Yes,Mandarin,B,25,1,16,4,180.0,1.0,1.0,625.372,1.0,24.0,0.0,1.08821,0.913512
Asian,15,Right,21,Female,Yes,Mandarin,B,26,1,8,16,180.0,1.0,1.0,726.064,1.0,25.0,0.0,1.01166,0.992122
Asian,15,Right,21,Female,Yes,Mandarin,B,27,0,8,4,0.0,0.0,1.0,758.219,1.0,26.0,0.0,1.06639,0.960133
Asian,15,Right,21,Female,Yes,Mandarin,B,28,0,8,16,180.0,1.0,1.0,613.999,1.0,27.0,0.0,1.16048,0.838483
Asian,15,Right,21,Female,Yes,Mandarin,B,29,0,4,8,180.0,1.0,1.0,620.784,1.0,28.0,0.0,1.02006,0.808792
Asian,15,Right,21,Female,Yes,Mandarin,B,30,0,4,16,0.0,0.0,1.0,982.818,1.0,29.0,0.0,1.12073,0.982053
Asian,15,Right,21,Female,Yes,Mandarin,B,31,1,0,0,0.0,0.0,1.0,602.32,1.0,30.0,0.0,1.17311,0.923267
Asian,15,Right,21,Female,Yes,Mandarin,B,32,0,16,16,0.0,0.0,1.0,1138.37,1.0,31.0,0.0,1.17526,0.803039
Asian,15,Right,21,Female,Yes,Mandarin,B,33,0,16,8,0.0,0.0,1.0,1006.03,1.0,32.0,1.0,1.04505,0.831756
Asian,15,Right,21,Female,Yes,Mandarin,B,34,1,0,16,0.0,0.0,1.0,648.21,1.0,33.0,1.0,1.17898,0.906838
Asian,15,Right,21,Female,Yes,Mandarin,B,35,1,8,0,0.0,0.0,1.0,577.076,1.0,34.0,1.0,1.12834,0.907033
Asian,15,Right,21,Female,Yes,Mandarin,B,36,0,8,0,0.0,0.0,1.0,750.172,1.0,35.0,1.0,1.07291,0.895281
Asian,15,Right,21,Female,Yes,Mandarin,B,37,0,8,8,180.0,1.0,1.0,871.295,1.0,36.0,1.0,1.05749,0.867405
Asian,15,Right,21,Female,Yes,Mandarin,B,38,0,0,8,0.0,0.0,1.0,678.878,1.0,37.0,1.0,1.13827,0.841333
Asian,15,Right,21,Female,Yes,Mandarin,B,39,1,4,16,0.0,0.0,1.0,1425.38,1.0,38.0,1.0,1.02343,0.845369
Asian,15,Right,21,Female,Yes,Mandarin,B,40,1,4,8,180.0,0.0,0.0,752.412,1.0,39.0,1.0,1.18591,0.938143
Asian,15,Right,21,Female,Yes,Mandarin,B,41,0,4,16,0.0,0.0,1.0,687.488,1.0,40.0,1.0,1.1922,0.836102
Asian,15,Right,21,Female,Yes,Mandarin,B,42,1,0,8,180.0,1.0,1.0,991.094,1.0,41.0,1.0,1.02494,0.94329
Asian,15,Right,21,Female,Yes,Mandarin,B,43,1,4,0,0.0,0.0,1.0,665.362,1.0,42.0,1.0,1.18482,0.939044
Asian,15,Right,21,Female,Yes,Mandarin,B,44,0,16,0,180.0,1.0,1.0,667.721,1.0,43.0,1.0,1.04321,0.964073
Asian,15,Right,21,Female,Yes,Mandarin,B,45,1,4,4,180.0,1.0,1.0,675.125,1.0,44.0,1.0,1.01485,0.814169
Asian,15,Right,21,Female,Yes,Mandarin,B,46,1,16,0,0.0,0.0,1.0,1152.31,1.0,45.0,1.0,1.09351,0.810735
Asian,15,Right,21,Female,Yes,Mandarin,B,47,0,16,16,0.0,0.0,1.0,822.575,1.0,46.0,1.0,1.14741,0.932788
Asian,15,Right,21,Female,Yes,Mandarin,B,48,1,16,8,0.0,0.0,1.0,966.013,1.0,47.0,1.0,1.10843,0.871193
Asian,15,Right,21,Female,Yes,Mandarin,B,49,1,8,8,180.0,1.0,1.0,1027.42,1.0,48.0,1.0,1.09436,0.874874
Asian,15,Right,21,Female,Yes,Mandarin,B,50,1,8,4,0.0,0.0,1.0,823.605,1.0,49.0,1.0,1.19397,0.969469
Asian,15,Right,21,Female,Yes,Mandarin,B,51,0,4,0,180.0,1.0,1.0,803.777,1.0,50.0,1.0,1.08504,0.886056
Asian,15,Right,21,Female,Yes,Mandarin,B,52,0,16,4,0.0,0.0,1.0,578.314,1.0,51.0,1.0,1.11725,0.909961
Asian,15,Right,21,Female,Yes,Mandarin,B,53,0,4,4,0.0,0.0,1.0,858.015,1.0,52.0,1.0,1.12422,0.872704
Asian,15,Right,21,Female,Yes,Mandarin,B,54,1,0,4,180.0,1.0,1.0,1136.09,1.0,53.0,1.0,1.08172,0.913435
Asian,15,Right,21,Female,Yes,Mandarin,B,55,0,8,4,180.0,0.0,0.0,1230.43,1.0,54.0,1.0,1.18468,0.936253
Asian,15,Right,21,Female,Yes,Mandarin,B,56,0,8,16,180.0,1.0,1.0,604.776,1.0,55.0,1.0,1.1463,0.933285
Asian,15,Right,21,Female,Yes,Mandarin,B,57,1,8,16,180.0,1.0,1.0,533.504,1.0,56.0,1.0,1.10333,0.915507
Asian,15,Right,21,Female,Yes,Mandarin,B,58,0,4,8,180.0,1.0,1.0,706.986,1.0,57.0,1.0,1.09398,0.830601
Asian,15,Right,21,Female,Yes,Mandarin,B,59,0,0,16,180.0,1.0,1.0,660.572,1.0,58.0,1.0,1.05749,0.805867
Asian,15,Right,21,Female,Yes,Mandarin,B,60,0,0,4,180.0,1.0,1.0,530.144,1.0,59.0,1.0,1.02985,0.861256
Asian,15,Right,21,Female,Yes,Mandarin,B,61,1,0,0,180.0,1.0,1.0,557.95,1.0,60.0,1.0,1.01063,0.868297
Asian,15,Right,21,Female,Yes,Mandarin,B,62,0,0,0,0.0,1.0,0.0,433.739,1.0,61.0,1.0,1.09167,0.856222
Asian,15,Right,21,Female,Yes,Mandarin,B,63,1,16,16,180.0,1.0,1.0,1824.93,1.0,62.0,1.0,1.17561,0.904537
Asian,15,Right,21,Female,Yes,Mandarin,B,64,1,16,4,0.0,0.0,1.0,980.24,1.0,63.0,1.0,1.11533,0.982273
Asian,15,Right,21,Female,Yes,Mandarin,B,65,0,8,4,180.0,1.0,1.0,879.421,1.0,64.0,2.0,1.05583,0.858722
Asian,15,Right,21,Female,Yes,Mandarin,B,66,0,8,0,0.0,0.0,1.0,855.096,1.0,65.0,2.0,1.11234,0.804794
Asian,15,Right,21,Female,Yes,Mandarin,B,67,0,16,16,180.0,1.0,1.0,743.145,1.0,66.0,2.0,1.19107,0.914231
Asian,15,Right,21,Female,Yes,Mandarin,B,68,0,4,0,180.0,1.0,1.0,676.344,1.0,67.0,2.0,1.1164,0.810791
Asian,15,Right,21,Female,Yes,Mandarin,B,69,1,16,16,0.0,0.0,1.0,1182.11,1.0,68.0,2.0,1.13398,0.91968
Asian,15,Right,21,Female,Yes,Mandarin,B,70,1,8,0,0.0,0.0,1.0,1024.12,1.0,69.0,2.0,1.00362,0.873445
Asian,15,Right,21,Female,Yes,Mandarin,B,71,1,4,16,180.0,1.0,1.0,912.279,1.0,70.0,2.0,1.14469,0.805838
Asian,15,Right,21,Female,Yes,Mandarin,B,72,0,4,4,0.0,0.0,1.0,664.6,1.0,71.0,2.0,1.14983,0.803031
Asian,15,Right,21,Female,Yes,Mandarin,B,73,0,0,4,180.0,1.0,1.0,1000.43,1.0,72.0,2.0,1.01765,0.934408
Asian,15,Right,21,Female,Yes,Mandarin,B,74,1,16,0,180.0,1.0,1.0,613.818,1.0,73.0,2.0,1.10841,0.889292
Asian,15,Right,21,Female,Yes,Mandarin,B,75,1,0,4,0.0,0.0,1.0,777.33,1.0,74.0,2.0,1.18229,0.944465
Asian,15,Right,21,Female,Yes,Mandarin,B,76,0,8,16,0.0,0.0,1.0,602.151,1.0,75.0,2.0,1.13806,0.955926
Asian,15,Right,21,Female,Yes,Mandarin,B,77,1,4,4,0.0,0.0,1.0,663.697,1.0,76.0,2.0,1.0092,0.929254
Asian,15,Right,21,Female,Yes,Mandarin,B,78,1,16,8,0.0,0.0,1.0,593.649,1.0,77.0,2.0,1.02492,0.801606
Asian,15,Right,21,Female,Yes,Mandarin,B,79,1,16,4,180.0,1.0,1.0,831.561,1.0,78.0,2.0,1.0821,0.894951
Asian,15,Right,21,Female,Yes,Mandarin,B,80,0,4,8,180.0,1.0,1.0,684.739,1.0,79.0,2.0,1.1215,0.981885
Asian,15,Right,21,Female,Yes,Mandarin,B,81,1,0,0,0.0,0.0,1.0,613.406,1.0,80.0,2.0,1.01333,0.925362
Asian,15,Right,21,Female,Yes,Mandarin,B,82,1,8,8,180.0,1.0,1.0,952.475,1.0,81.0,2.0,1.05243,0.91265
Asian,15,Right,21,Female,Yes,Mandarin,B,83,0,8,8,180.0,1.0,1.0,1422.68,1.0,82.0,2.0,1.09642,0.940562
Asian,15,Right,21,Female,Yes,Mandarin,B,84,1,0,8,0.0,0.0,1.0,683.049,1.0,83.0,2.0,1.09166,0.941264
Asian,15,Right,21,Female,Yes,Mandarin,B,85,0,0,0,180.0,1.0,1.0,664.882,1.0,84.0,2.0,1.08864,0.861598
Asian,15,Right,21,Female,Yes,Mandarin,B,86,0,16,8,180.0,1.0,1.0,710.386,1.0,85.0,2.0,1.03493,0.894095
Asian,15,Right,21,Female,Yes,Mandarin,B,87,1,4,8,0.0,0.0,1.0,690.745,1.0,86.0,2.0,1.10001,0.804485
Asian,15,Right,21,Female,Yes,Mandarin,B,88,1,8,16,0.0,0.0,1.0,972.14,1.0,87.0,2.0,1.09437,0.909151
Asian,15,Right,21,Female,Yes,Mandarin,B,89,1,0,16,0.0,0.0,1.0,993.272,1.0,88.0,2.0,1.17563,0.876279
Asian,15,Right,21,Female,Yes,Mandarin,B,90,0,16,0,0.0,0.0,1.0,698.934,1.0,89.0,2.0,1.13462,0.991918
Asian,15,Right,21,Female,Yes,Mandarin,B,91,0,16,4,180.0,1.0,1.0,888.128,1.0,90.0,2.0,1.12048,0.954899
Asian,15,Right,21,Female,Yes,Mandarin,B,92,1,8,4,0.0,0.0,1.0,783.884,1.0,91.0,2.0,1.15702,0.920711
Asian,15,Right,21,Female,Yes,Mandarin,B,93,0,0,16,0.0,0.0,1.0,705.129,1.0,92.0,2.0,1.04286,0.861919
Asian,15,Right,21,Female,Yes,Mandarin,B,94,1,4,0,180.0,1.0,1.0,656.689,1.0,93.0,2.0,1.08993,0.876246
Asian,15,Right,21,Female,Yes,Mandarin,B,95,0,4,16,180.0,1.0,1.0,610.691,1.0,94.0,2.0,1.19192,0.92977
Asian,15,Right,21,Female,Yes,Mandarin,B,96,0,0,8,180.0,1.0,1.0,928.266,1.0,95.0,2.0,1.11859,0.915215
Asian,15,Right,21,Female,Yes,Mandarin,B,97,0,8,0,0.0,0.0,1.0,1085.58,1.0,96.0,3.0,1.14786,0.841581
Asian,15,Right,21,Female,Yes,Mandarin,B,98,0,16,0,180.0,1.0,1.0,823.463,1.0,97.0,3.0,1.0132,0.900017
Asian,15,Right,21,Female,Yes,Mandarin,B,99,0,4,16,180.0,1.0,1.0,648.981,1.0,98.0,3.0,1.1358,0.960377
Asian,15,Right,21,Female,Yes,Mandarin,B,100,1,8,8,0.0,0.0,1.0,605.032,1.0,99.0,3.0,1.1555,0.853934
Asian,15,Right,21,Female,Yes,Mandarin,B,101,0,4,0,180.0,1.0,1.0,634.135,1.0,100.0,3.0,1.19268,0.984183
Asian,15,Right,21,Female,Yes,Mandarin,B,102,0,0,4,180.0,1.0,1.0,670.643,1.0,101.0,3.0,1.06005,0.838034
Asian,15,Right,21,Female,Yes,Mandarin,B,103,1,0,4,0.0,0.0,1.0,569.169,1.0,102.0,3.0,1.17472,0.839616
Asian,15,Right,21,Female,Yes,Mandarin,B,104,1,4,4,180.0,1.0,1.0,825.334,1.0,103.0,3.0,1.03767,0.81183
Asian,15,Right,21,Female,Yes,Mandarin,B,105,1,8,4,0.0,0.0,1.0,1153.74,1.0,104.0,3.0,1.10187,0.893673
Asian,15,Right,21,Female,Yes,Mandarin,B,106,1,0,16,0.0,0.0,1.0,973.655,1.0,105.0,3.0,1.09471,0.985867
Asian,15,Right,21,Female,Yes,Mandarin,B,107,0,0,8,0.0,0.0,1.0,551.569,1.0,106.0,3.0,1.19508,0.908597
Asian,15,Right,21,Female,Yes,Mandarin,B,108,0,8,4,0.0,0.0,1.0,514.048,1.0,107.0,3.0,1.01264,0.917531
Asian,15,Right,21,Female,Yes,Mandarin,B,109,1,8,0,180.0,1.0,1.0,1027.06,1.0,108.0,3.0,1.1606,0.966736
Asian,15,Right,21,Female,Yes,Mandarin,B,110,0,16,4,0.0,0.0,1.0,573.354,1.0,109.0,3.0,1.06437,0.957773
Asian,15,Right,21,Female,Yes,Mandarin,B,111,1,0,8,180.0,1.0,1.0,789.583,1.0,110.0,3.0,1.01377,0.823796
Asian,15,Right,21,Female,Yes,Mandarin,B,112,0,8,16,180.0,1.0,1.0,1423.47,1.0,111.0,3.0,1.14163,0.90956
Asian,15,Right,21,Female,Yes,Mandarin,B,113,0,4,8,180.0,1.0,1.0,735.504,1.0,112.0,3.0,1.15611,0.821402
Asian,15,Right,21,Female,Yes,Mandarin,B,114,0,16,8,0.0,0.0,1.0,874.979,1.0,113.0,3.0,1.14721,0.912403
Asian,15,Right,21,Female,Yes,Mandarin,B,115,0,0,16,0.0,0.0,1.0,611.594,1.0,114.0,3.0,1.01456,0.848233
Asian,15,Right,21,Female,Yes,Mandarin,B,116,0,8,8,180.0,1.0,1.0,1018.03,1.0,115.0,3.0,1.09773,0.882915
Asian,15,Right,21,Female,Yes,Mandarin,B,117,0,4,4,180.0,1.0,1.0,654.24,1.0,116.0,3.0,1.16876,0.946167
Asian,15,Right,21,Female,Yes,Mandarin,B,118,1,4,8,180.0,1.0,1.0,624.932,1.0,117.0,3.0,1.15367,0.905455
Asian,15,Right,21,Female,Yes,Mandarin,B,119,1,16,0,0.0,0.0,1.0,702.499,1.0,118.0,3.0,1.00762,0.936571
Asian,15,Right,21,Female,Yes,Mandarin,B,120,1,0,0,0.0,0.0,1.0,656.895,1.0,119.0,3.0,1.14077,0.862619
Asian,15,Right,21,Female,Yes,Mandarin,B,121,0,0,0,180.0,1.0,1.0,647.849,1.0,120.0,3.0,1.14856,0.886169
Asian,15,Right,21,Female,Yes,Mandarin,B,122,1,16,4,0.0,0.0,1.0,801.742,1.0,121.0,3.0,1.12439,0.92472
Asian,15,Right,21,Female,Yes,Mandarin,B,123,1,4,16,0.0,0.0,1.0,677.926,1.0,122.0,3.0,1.01561,0.960104
Asian,15,Right,21,Female,Yes,Mandarin,B,124,0,16,16,180.0,1.0,1.0,626.161,1.0,123.0,3.0,1.0038,0.896806
Asian,15,Right,21,Female,Yes,Mandarin,B,125,1,8,16,180.0,1.0,1.0,847.19,1.0,124.0,3.0,1.03093,0.843377
Asian,15,Right,21,Female,Yes,Mandarin,B,126,1,4,0,0.0,0.0,1.0,1147.38,1.0,125.0,3.0,1.04078,0.877859
Asian,15,Right,21,Female,Yes,Mandarin,B,127,1,16,8,0.0,0.0,1.0,1167.64,1.0,126.0,3.0,1.19714,0.803613
Asian,15,Right,21,Female,Yes,Mandarin,B,128,1,16,16,180.0,1.0,1.0,609.796,1.0,127.0,3.0,1.13048,0.868143
Asian,15,Right,21,Female,Yes,Mandarin,B,129,0,0,16,180.0,1.0,1.0,978.624,1.0,128.0,4.0,1.15805,0.877725
Asian,15,Right,21,Female,Yes,Mandarin,B,130,0,4,8,0.0,0.0,1.0,790.751,1.0,129.0,4.0,1.02872,0.803399
Asian,15,Right,21,Female,Yes,Mandarin,B,131,1,16,16,0.0,0.0,1.0,618.542,1.0,130.0,4.0,1.03263,0.938219
Asian,15,Right,21,Female,Yes,Mandarin,B,132,0,8,8,180.0,1.0,1.0,557.989,1.0,131.0,4.0,1.02169,0.911597
Asian,15,Right,21,Female,Yes,Mandarin,B,133,0,4,0,180.0,1.0,1.0,705.458,1.0,132.0,4.0,1.08581,0.947949
Asian,15,Right,21,Female,Yes,Mandarin,B,134,0,8,16,0.0,0.0,1.0,606.045,1.0,133.0,4.0,1.07733,0.910422
Asian,15,Right,21,Female,Yes,Mandarin,B,135,1,16,8,180.0,1.0,1.0,608.778,1.0,134.0,4.0,1.08784,0.981504
Asian,15,Right,21,Female,Yes,Mandarin,B,136,0,0,8,180.0,1.0,1.0,734.838,1.0,135.0,4.0,1.18137,0.901995
Asian,15,Right,21,Female,Yes,Mandarin,B,137,0,16,8,180.0,1.0,1.0,782.232,1.0,136.0,4.0,1.17862,0.978598
Asian,15,Right,21,Female,Yes,Mandarin,B,138,1,0,0,0.0,0.0,1.0,641.604,1.0,137.0,4.0,1.09798,0.998323
Asian,15,Right,21,Female,Yes,Mandarin,B,139,1,4,0,180.0,1.0,1.0,737.236,1.0,138.0,4.0,1.03874,0.936131
Asian,15,Right,21,Female,Yes,Mandarin,B,140,0,4,16,180.0,1.0,1.0,623.669,1.0,139.0,4.0,1.01118,0.966612
Asian,15,Right,21,Female,Yes,Mandarin,B,141,1,8,16,0.0,0.0,1.0,1234.86,1.0,140.0,4.0,1.17782,0.839546
Asian,15,Right,21,Female,Yes,Mandarin,B,142,0,4,4,0.0,0.0,1.0,814.141,1.0,141.0,4.0,1.16317,0.985895
Asian,15,Right,21,Female,Yes,Mandarin,B,143,1,16,4,0.0,0.0,1.0,680.431,1.0,142.0,4.0,1.16699,0.853877
Asian,15,Right,21,Female,Yes,Mandarin,B,144,1,4,4,0.0,0.0,1.0,940.978,1.0,143.0,4.0,1.11872,0.968316
Asian,15,Right,21,Female,Yes,Mandarin,B,145,0,16,16,0.0,0.0,1.0,925.427,1.0,144.0,4.0,1.19855,0.92433
Asian,15,Right,21,Female,Yes,Mandarin,B,146,0,8,0,180.0,1.0,1.0,673.839,1.0,145.0,4.0,1.07331,0.852865
Asian,15,Right,21,Female,Yes,Mandarin,B,147,1,8,8,0.0,0.0,1.0,692.665,1.0,146.0,4.0,1.08274,0.832897
Asian,15,Right,21,Female,Yes,Mandarin,B,148,0,0,0,180.0,1.0,1.0,626.5,1.0,147.0,4.0,1.17511,0.804715
Asian,15,Right,21,Female,Yes,Mandarin,B,149,1,0,8,180.0,1.0,1.0,628.202,1.0,148.0,4.0,1.13252,0.865707
Asian,15,Right,21,Female,Yes,Mandarin,B,150,1,4,16,0.0,0.0,1.0,1137.47,1.0,149.0,4.0,1.00572,0.872999
Asian,15,Right,21,Female,Yes,Mandarin,B,151,1,8,0,0.0,0.0,1.0,1293.81,1.0,150.0,4.0,1.01815,0.817286
Asian,15,Right,21,Female,Yes,Mandarin,B,152,0,8,4,180.0,1.0,1.0,620.448,1.0,151.0,4.0,1.16421,0.948384
Asian,15,Right,21,Female,Yes,Mandarin,B,153,1,16,0,180.0,1.0,1.0,650.562,1.0,152.0,4.0,1.06028,0.862435
Asian,15,Right,21,Female,Yes,Mandarin,B,154,0,16,4,0.0,0.0,1.0,1044.59,1.0,153.0,4.0,1.06475,0.866869
Asian,15,Right,21,Female,Yes,Mandarin,B,155,0,0,4,0.0,0.0,1.0,611.05,1.0,154.0,4.0,1.19654,0.955836
Asian,15,Right,21,Female,Yes,Mandarin,B,156,1,0,4,180.0,1.0,1.0,699.918,1.0,155.0,4.0,1.10905,0.982883
Asian,15,Right,21,Female,Yes,Mandarin,B,157,0,16,0,0.0,0.0,1.0,615.245,1.0,156.0,4.0,1.08363,0.846418
Asian,15,Right,21,Female,Yes,Mandarin,B,158,1,0,16,0.0,0.0,1.0,611.836,1.0,157.0,4.0,1.16626,0.818541
Asian,15,Right,21,Female,Yes,Mandarin,B,159,1,4,8,180.0,1.0,1.0,858.743,1.0,158.0,4.0,1.02888,0.802922
Asian,15,Right,21,Female,Yes,Mandarin,B,160,1,8,4,180.0,1.0,1.0,1081.26,1.0,159.0,4.0,1.18314,0.929481
Asian,15,Right,21,Female,Yes,Mandarin,B,161,1,4,0,0.0,0.0,1.0,600.593,1.0,160.0,5.0,1.12828,0.900984
Asian,15,Right,21,Female,Yes,Mandarin,B,162,0,4,0,0.0,0.0,1.0,782.52,1.0,161.0,5.0,1.08972,0.948215
Asian,15,Right,21,Female,Yes,Mandarin,B,163,0,8,4,180.0,1.0,1.0,1110.62,1.0,162.0,5.0,1.16747,0.923755
Asian,15,Right,21,Female,Yes,Mandarin,B,164,1,0,4,180.0,1.0,1.0,672.584,1.0,163.0,5.0,1.15376,0.962673
Asian,15,Right,21,Female,Yes,Mandarin,B,165,1,0,8,0.0,0.0,1.0,628.397,1.0,164.0,5.0,1.12643,0.805526
Asian,15,Right,21,Female,Yes,Mandarin,B,166,1,16,4,180.0,1.0,1.0,599.495,1.0,165.0,5.0,1.07348,0.982374
Asian,15,Right,21,Female,Yes,Mandarin,B,167,0,4,4,180.0,1.0,1.0,668.371,1.0,166.0,5.0,1.0064,0.90949
Asian,15,Right,21,Female,Yes,Mandarin,B,168,1,4,4,180.0,1.0,1.0,691.6,1.0,167.0,5.0,1.13994,0.971707
Asian,15,Right,21,Female,Yes,Mandarin,B,169,1,8,8,180.0,1.0,1.0,857.506,1.0,168.0,5.0,1.15718,0.902618
Asian,15,Right,21,Female,Yes,Mandarin,B,170,1,4,16,180.0,1.0,1.0,761.84,1.0,169.0,5.0,1.03509,0.832431
Asian,15,Right,21,Female,Yes,Mandarin,B,171,0,8,16,0.0,0.0,1.0,770.552,1.0,170.0,5.0,1.00213,0.945347
Asian,15,Right,21,Female,Yes,Mandarin,B,172,0,0,8,0.0,0.0,1.0,443.236,1.0,171.0,5.0,1.01867,0.946828
Asian,15,Right,21,Female,Yes,Mandarin,B,173,0,16,4,180.0,1.0,1.0,680.152,1.0,172.0,5.0,1.12005,0.865303
Asian,15,Right,21,Female,Yes,Mandarin,B,174,1,16,16,180.0,1.0,1.0,964.303,1.0,173.0,5.0,1.10759,0.822817
Asian,15,Right,21,Female,Yes,Mandarin,B,175,0,16,8,0.0,0.0,1.0,557.447,1.0,174.0,5.0,1.09309,0.897054
Asian,15,Right,21,Female,Yes,Mandarin,B,176,0,4,16,180.0,1.0,1.0,859.503,1.0,175.0,5.0,1.00902,0.923564
Asian,15,Right,21,Female,Yes,Mandarin,B,177,1,16,0,0.0,0.0,1.0,750.118,1.0,176.0,5.0,1.00468,0.856842
Asian,15,Right,21,Female,Yes,Mandarin,B,178,0,16,16,0.0,0.0,1.0,640.949,1.0,177.0,5.0,1.02454,0.997739
Asian,15,Right,21,Female,Yes,Mandarin,B,179,1,16,8,180.0,1.0,1.0,1068.3,1.0,178.0,5.0,1.04357,0.919464
Asian,15,Right,21,Female,Yes,Mandarin,B,180,1,8,0,180.0,1.0,1.0,677.833,1.0,179.0,5.0,1.17334,0.957155
Asian,15,Right,21,Female,Yes,Mandarin,B,181,0,0,0,0.0,0.0,1.0,707.002,1.0,180.0,5.0,1.02165,0.82047
Asian,15,Right,21,Female,Yes,Mandarin,B,182,0,8,8,0.0,0.0,1.0,644.979,1.0,181.0,5.0,1.01231,0.958126
Asian,15,Right,21,Female,Yes,Mandarin,B,183,0,16,0,0.0,0.0,1.0,1014.51,1.0,182.0,5.0,1.09951,0.99138
Asian,15,Right,21,Female,Yes,Mandarin,B,184,1,0,0,180.0,1.0,1.0,662.773,1.0,183.0,5.0,1.01489,0.896645
Asian,15,Right,21,Female,Yes,Mandarin,B,185,0,4,8,180.0,1.0,1.0,711.086,1.0,184.0,5.0,1.02286,0.925794
Asian,15,Right,21,Female,Yes,Mandarin,B,186,0,0,16,0.0,0.0,1.0,591.042,1.0,185.0,5.0,1.06631,0.898278
Asian,15,Right,21,Female,Yes,Mandarin,B,187,1,8,16,0.0,0.0,1.0,666.006,1.0,186.0,5.0,1.07725,0.859439
Asian,15,Right,21,Female,Yes,Mandarin,B,188,0,8,0,0.0,0.0,1.0,793.497,1.0,187.0,5.0,1.16414,0.927779
Asian,15,Right,21,Female,Yes,Mandarin,B,189,1,4,8,0.0,0.0,1.0,723.445,1.0,188.0,5.0,1.18457,0.928221
Asian,15,Right,21,Female,Yes,Mandarin,B,190,1,0,16,0.0,0.0,1.0,631.045,1.0,189.0,5.0,1.08928,0.823174
Asian,15,Right,21,Female,Yes,Mandarin,B,191,1,8,4,180.0,1.0,1.0,999.161,1.0,190.0,5.0,1.11021,0.882642
Asian,15,Right,21,Female,Yes,Mandarin,B,192,0,0,4,180.0,0.0,0.0,508.289,1.0,191.0,5.0,1.06189,0.832587
Asian,15,Right,21,Female,Yes,Mandarin,B,193,0,4,8,0.0,0.0,1.0,1284.44,1.0,192.0,6.0,1.18259,0.873449
Asian,15,Right,21,Female,Yes,Mandarin,B,194,1,4,8,180.0,1.0,1.0,1244.31,1.0,193.0,6.0,1.07087,0.816303
Asian,15,Right,21,Female,Yes,Mandarin,B,195,1,4,0,0.0,0.0,1.0,562.845,1.0,194.0,6.0,1.04229,0.848274
Asian,15,Right,21,Female,Yes,Mandarin,B,196,0,16,4,180.0,1.0,1.0,626.736,1.0,195.0,6.0,1.17253,0.962122
Asian,15,Right,21,Female,Yes,Mandarin,B,197,0,4,0,0.0,1.0,0.0,522.546,1.0,196.0,6.0,1.15489,0.841721
Asian,15,Right,21,Female,Yes,Mandarin,B,198,1,8,16,0.0,0.0,1.0,1131.63,1.0,197.0,6.0,1.14276,0.8986
Asian,15,Right,21,Female,Yes,Mandarin,B,199,1,8,0,0.0,0.0,1.0,827.313,1.0,198.0,6.0,1.02645,0.903038
Asian,15,Right,21,Female,Yes,Mandarin,B,200,1,16,4,180.0,1.0,1.0,985.935,1.0,199.0,6.0,1.1596,0.945798
Asian,15,Right,21,Female,Yes,Mandarin,B,201,0,16,8,0.0,0.0,1.0,961.375,1.0,200.0,6.0,1.19495,0.949267
Asian,15,Right,21,Female,Yes,Mandarin,B,202,1,0,0,0.0,0.0,1.0,618.126,1.0,201.0,6.0,1.16582,0.879964
Asian,15,Right,21,Female,Yes,Mandarin,B,203,1,8,4,180.0,1.0,1.0,1001.86,1.0,202.0,6.0,1.10972,0.891585
Asian,15,Right,21,Female,Yes,Mandarin,B,204,0,0,4,180.0,1.0,1.0,725.933,1.0,203.0,6.0,1.03852,0.885844
Asian,15,Right,21,Female,Yes,Mandarin,B,205,0,8,0,180.0,1.0,1.0,879.513,1.0,204.0,6.0,1.08186,0.860974
Asian,15,Right,21,Female,Yes,Mandarin,B,206,1,16,16,0.0,0.0,1.0,887.095,1.0,205.0,6.0,1.15056,0.884712
Asian,15,Right,21,Female,Yes,Mandarin,B,207,1,4,4,180.0,1.0,1.0,763.879,1.0,206.0,6.0,1.0775,0.851448
Asian,15,Right,21,Female,Yes,Mandarin,B,208,1,0,16,180.0,1.0,1.0,661.315,1.0,207.0,6.0,1.11254,0.869952
Asian,15,Right,21,Female,Yes,Mandarin,B,209,0,4,4,0.0,0.0,1.0,686.492,1.0,208.0,6.0,1.18637,0.980755
Asian,15,Right,21,Female,Yes,Mandarin,B,210,0,8,8,180.0,1.0,1.0,954.863,1.0,209.0,6.0,1.06191,0.843859
Asian,15,Right,21,Female,Yes,Mandarin,B,211,0,8,4,0.0,0.0,1.0,773.867,1.0,210.0,6.0,1.06741,0.821473
Asian,15,Right,21,Female,Yes,Mandarin,B,212,0,0,0,0.0,0.0,1.0,726.417,1.0,211.0,6.0,1.02992,0.981711
Asian,15,Right,21,Female,Yes,Mandarin,B,213,0,16,16,180.0,1.0,1.0,938.036,1.0,212.0,6.0,1.11457,0.937485
Asian,15,Right,21,Female,Yes,Mandarin,B,214,1,4,16,180.0,1.0,1.0,1174.11,1.0,213.0,6.0,1.05634,0.843971
Asian,15,Right,21,Female,Yes,Mandarin,B,215,1,8,8,0.0,0.0,1.0,953.466,1.0,214.0,6.0,1.13812,0.822286
Asian,15,Right,21,Female,Yes,Mandarin,B,216,1,16,8,0.0,0.0,1.0,613.684,1.0,215.0,6.0,1.19583,0.941294
Asian,15,Right,21,Female,Yes,Mandarin,B,217,0,8,16,180.0,1.0,1.0,793.02,1.0,216.0,6.0,1.18057,0.982581
Asian,15,Right,21,Female,Yes,Mandarin,B,218,0,0,8,180.0,1.0,1.0,984.613,1.0,217.0,6.0,1.17947,0.849748
Asian,15,Right,21,Female,Yes,Mandarin,B,219,0,16,0,180.0,1.0,1.0,703.394,1.0,218.0,6.0,1.14768,0.871709
Asian,15,Right,21,Female,Yes,Mandarin,B,220,0,4,16,180.0,1.0,1.0,573.423,1.0,219.0,6.0,1.06751,0.878973
Asian,15,Right,21,Female,Yes,Mandarin,B,221,0,0,16,0.0,0.0,1.0,679.405,1.0,220.0,6.0,1.12338,0.856603
Asian,15,Right,21,Female,Yes,Mandarin,B,222,1,0,8,0.0,0.0,1.0,1431.94,1.0,221.0,6.0,1.05769,0.809158
Asian,15,Right,21,Female,Yes,Mandarin,B,223,1,16,0,180.0,1.0,1.0,1105.55,1.0,222.0,6.0,1.10962,0.874849
Asian,15,Right,21,Female,Yes,Mandarin,B,224,1,0,4,0.0,0.0,1.0,662.002,1.0,223.0,6.0,1.06827,0.844705
Asian,15,Right,21,Female,Yes,Mandarin,B,225,0,8,16,180.0,1.0,1.0,774.017,1.0,224.0,7.0,1.10008,0.893691
Asian,15,Right,21,Female,Yes,Mandarin,B,226,1,16,16,180.0,1.0,1.0,733.89,1.0,225.0,7.0,1.09044,0.835002
Asian,15,Right,21,Female,Yes,Mandarin,B,227,1,4,4,180.0,1.0,1.0,875.547,1.0,226.0,7.0,1.06671,0.954061
Asian,15,Right,21,Female,Yes,Mandarin,B,228,1,8,16,0.0,0.0,1.0,679.494,1.0,227.0,7.0,1.02648,0.888814
Asian,15,Right,21,Female,Yes,Mandarin,B,229,1,0,4,0.0,0.0,1.0,631.798,1.0,228.0,7.0,1.10959,0.895219
Asian,15,Right,21,Female,Yes,Mandarin,B,230,0,4,8,0.0,0.0,1.0,727.661,1.0,229.0,7.0,1.1779,0.841156
Asian,15,Right,21,Female,Yes,Mandarin,B,231,0,0,16,180.0,1.0,1.0,819.576,1.0,230.0,7.0,1.04461,0.916903
Asian,15,Right,21,Female,Yes,Mandarin,B,232,1,4,8,0.0,0.0,1.0,648.944,1.0,231.0,7.0,1.10064,0.804079
Asian,15,Right,21,Female,Yes,Mandarin,B,233,0,16,8,0.0,0.0,1.0,754.686,1.0,232.0,7.0,1.12807,0.911542
Asian,15,Right,21,Female,Yes,Mandarin,B,234,0,8,4,180.0,1.0,1.0,599.353,1.0,233.0,7.0,1.07495,0.994813
Asian,15,Right,21,Female,Yes,Mandarin,B,235,0,16,4,0.0,0.0,1.0,616.542,1.0,234.0,7.0,1.10245,0.804802
Asian,15,Right,21,Female,Yes,Mandarin,B,236,0,8,0,180.0,1.0,1.0,803.992,1.0,235.0,7.0,1.08745,0.995675
Asian,15,Right,21,Female,Yes,Mandarin,B,237,0,4,16,0.0,0.0,1.0,628.647,1.0,236.0,7.0,1.17348,0.817482
Asian,15,Right,21,Female,Yes,Mandarin,B,238,0,0,8,180.0,1.0,1.0,605.853,1.0,237.0,7.0,1.19577,0.908467
Asian,15,Right,21,Female,Yes,Mandarin,B,239,0,4,0,0.0,0.0,1.0,595.677,1.0,238.0,7.0,1.12233,0.98621
Asian,15,Right,21,Female,Yes,Mandarin,B,240,0,0,4,0.0,0.0,1.0,651.586,1.0,239.0,7.0,1.08263,0.979217
Asian,15,Right,21,Female,Yes,Mandarin,B,241,1,16,0,0.0,0.0,1.0,1284.48,1.0,240.0,7.0,1.13688,0.996585
Asian,15,Right,21,Female,Yes,Mandarin,B,242,1,0,0,180.0,1.0,1.0,636.841,1.0,241.0,7.0,1.00386,0.949817
Asian,15,Right,21,Female,Yes,Mandarin,B,243,0,16,0,180.0,1.0,1.0,1062.52,1.0,242.0,7.0,1.09287,0.873201
Asian,15,Right,21,Female,Yes,Mandarin,B,244,0,4,4,0.0,0.0,1.0,614.998,1.0,243.0,7.0,1.04499,0.913977
Asian,15,Right,21,Female,Yes,Mandarin,B,245,1,8,8,180.0,1.0,1.0,859.09,1.0,244.0,7.0,1.10238,0.887586
Asian,15,Right,21,Female,Yes,Mandarin,B,246,1,0,16,180.0,1.0,1.0,691.272,1.0,245.0,7.0,1.0022,0.980696
Asian,15,Right,21,Female,Yes,Mandarin,B,247,1,4,0,0.0,0.0,1.0,792.585,1.0,246.0,7.0,1.00025,0.864101
Asian,15,Right,21,Female,Yes,Mandarin,B,248,0,0,0,180.0,1.0,1.0,688.899,1.0,247.0,7.0,1.01353,0.811412
Asian,15,Right,21,Female,Yes,Mandarin,B,249,1,16,4,180.0,1.0,1.0,659.107,1.0,248.0,7.0,1.09699,0.930379
Asian,15,Right,21,Female,Yes,Mandarin,B,250,1,0,8,180.0,1.0,1.0,538.155,1.0,249.0,7.0,1.0059,0.879322
Asian,15,Right,21,Female,Yes,Mandarin,B,251,1,4,16,180.0,1.0,1.0,936.838,1.0,250.0,7.0,1.18565,0.972583
Asian,15,Right,21,Female,Yes,Mandarin,B,252,1,8,4,0.0,0.0,1.0,771.843,1.0,251.0,7.0,1.08761,0.925252
Asian,15,Right,21,Female,Yes,Mandarin,B,253,1,8,0,0.0,0.0,1.0,777.397,1.0,252.0,7.0,1.06624,0.911246
Asian,15,Right,21,Female,Yes,Mandarin,B,254,0,16,16,180.0,1.0,1.0,624.047,1.0,253.0,7.0,1.02455,0.865119
Asian,15,Right,21,Female,Yes,Mandarin,B,255,0,8,8,0.0,0.0,1.0,649.736,1.0,254.0,7.0,1.09732,0.910367
Asian,15,Right,21,Female,Yes,Mandarin,B,256,1,16,8,0.0,0.0,1.0,680.655,1.0,255.0,7.0,1.1535,0.920942
Asian,15,Right,21,Female,Yes,Mandarin,B,257,0,8,16,180.0,1.0,1.0,804.409,1.0,256.0,8.0,1.04766,0.816584
Asian,15,Right,21,Female,Yes,Mandarin,B,258,1,8,4,180.0,1.0,1.0,677.832,1.0,257.0,8.0,1.0399,0.851833
Asian,15,Right,21,Female,Yes,Mandarin,B,259,0,16,16,0.0,0.0,1.0,667.118,1.0,258.0,8.0,1.07863,0.82884
Asian,15,Right,21,Female,Yes,Mandarin,B,260,0,8,8,0.0,0.0,1.0,699.414,1.0,259.0,8.0,1.09305,0.954314
Asian,15,Right,21,Female,Yes,Mandarin,B,261,0,0,4,180.0,1.0,1.0,873.142,1.0,260.0,8.0,1.01197,0.990274
Asian,15,Right,21,Female,Yes,Mandarin,B,262,1,0,0,0.0,0.0,1.0,472.518,1.0,261.0,8.0,1.01749,0.917427
Asian,15,Right,21,Female,Yes,Mandarin,B,263,1,0,8,180.0,1.0,1.0,565.117,1.0,262.0,8.0,1.06834,0.92857
Asian,15,Right,21,Female,Yes,Mandarin,B,264,1,8,16,180.0,1.0,1.0,806.445,1.0,263.0,8.0,1.04014,0.913904
Asian,15,Right,21,Female,Yes,Mandarin,B,265,1,4,16,0.0,0.0,1.0,889.979,1.0,264.0,8.0,1.18647,0.956378
Asian,15,Right,21,Female,Yes,Mandarin,B,266,0,16,8,180.0,1.0,1.0,722.956,1.0,265.0,8.0,1.09141,0.958137
Asian,15,Right,21,Female,Yes,Mandarin,B,267,0,16,4,0.0,0.0,1.0,805.592,1.0,266.0,8.0,1.16482,0.942353
Asian,15,Right,21,Female,Yes,Mandarin,B,268,1,16,16,0.0,0.0,1.0,1078.86,1.0,267.0,8.0,1.19729,0.91524
Asian,15,Right,21,Female,Yes,Mandarin,B,269,1,8,0,0.0,0.0,1.0,729.657,1.0,268.0,8.0,1.02888,0.858403
Asian,15,Right,21,Female,Yes,Mandarin,B,270,0,8,0,0.0,0.0,1.0,826.292,1.0,269.0,8.0,1.05464,0.961623
Asian,15,Right,21,Female,Yes,Mandarin,B,271,0,4,0,0.0,0.0,1.0,842.053,1.0,270.0,8.0,1.1357,0.947401
Asian,15,Right,21,Female,Yes,Mandarin,B,272,0,4,8,0.0,0.0,1.0,508.374,1.0,271.0,8.0,1.18267,0.883058
Asian,15,Right,21,Female,Yes,Mandarin,B,273,1,16,0,0.0,0.0,1.0,586.13,1.0,272.0,8.0,1.10877,0.942125
Asian,15,Right,21,Female,Yes,Mandarin,B,274,1,4,0,180.0,1.0,1.0,819.985,1.0,273.0,8.0,1.08769,0.83862
Asian,15,Right,21,Female,Yes,Mandarin,B,275,1,16,8,0.0,0.0,1.0,1490.06,1.0,274.0,8.0,1.12639,0.878915
Asian,15,Right,21,Female,Yes,Mandarin,B,276,0,8,4,180.0,1.0,1.0,864.328,1.0,275.0,8.0,1.14939,0.995074
Asian,15,Right,21,Female,Yes,Mandarin,B,277,1,4,8,180.0,1.0,1.0,835.101,1.0,276.0,8.0,1.0423,0.818626
Asian,15,Right,21,Female,Yes,Mandarin,B,278,1,8,8,180.0,1.0,1.0,1521.75,1.0,277.0,8.0,1.18374,0.84254
Asian,15,Right,21,Female,Yes,Mandarin,B,279,1,0,4,0.0,0.0,1.0,895.867,1.0,278.0,8.0,1.06094,0.852201
Asian,15,Right,21,Female,Yes,Mandarin,B,280,1,4,4,180.0,1.0,1.0,788.736,1.0,279.0,8.0,1.1766,0.970091
Asian,15,Right,21,Female,Yes,Mandarin,B,281,1,0,16,180.0,1.0,1.0,735.233,1.0,280.0,8.0,1.13396,0.942865
Asian,15,Right,21,Female,Yes,Mandarin,B,282,0,0,8,180.0,1.0,1.0,673.148,1.0,281.0,8.0,1.11308,0.87598
Asian,15,Right,21,Female,Yes,Mandarin,B,283,0,4,4,0.0,0.0,1.0,852.078,1.0,282.0,8.0,1.17559,0.806566
Asian,15,Right,21,Female,Yes,Mandarin,B,284,1,16,4,0.0,0.0,1.0,681.883,1.0,283.0,8.0,1.02971,0.981461
Asian,15,Right,21,Female,Yes,Mandarin,B,285,0,0,16,0.0,0.0,1.0,691.817,1.0,284.0,8.0,1.00932,0.81446
Asian,15,Right,21,Female,Yes,Mandarin,B,286,0,0,0,180.0,1.0,1.0,650.437,1.0,285.0,8.0,1.10198,0.828016
Asian,15,Right,21,Female,Yes,Mandarin,B,287,0,16,0,180.0,1.0,1.0,934.37,1.0,286.0,8.0,1.07423,0.83424
Asian,15,Right,21,Female,Yes,Mandarin,B,288,0,4,16,180.0,1.0,1.0,519.981,1.0,287.0,8.0,1.16778,0.956284
Asian,15,Right,21,Female,Yes,Mandarin,B,289,0,0,0,0.0,0.0,1.0,1207.87,1.0,288.0,9.0,1.14715,0.836044
Asian,15,Right,21,Female,Yes,Mandarin,B,290,0,4,4,180.0,1.0,1.0,1088.79,1.0,289.0,9.0,1.10228,0.839215
Asian,15,Right,21,Female,Yes,Mandarin,B,291,0,8,0,0.0,0.0,1.0,979.778,1.0,290.0,9.0,1.14284,0.863614
Asian,15,Right,21,Female,Yes,Mandarin,B,292,1,8,16,180.0,1.0,1.0,533.415,1.0,291.0,9.0,1.19314,0.833179
Asian,15,Right,21,Female,Yes,Mandarin,B,293,0,0,16,180.0,1.0,1.0,763.073,1.0,292.0,9.0,1.03202,0.885574
Asian,15,Right,21,Female,Yes,Mandarin,B,294,0,4,16,180.0,1.0,1.0,736.134,1.0,293.0,9.0,1.00733,0.982988
Asian,15,Right,21,Female,Yes,Mandarin,B,295,1,16,8,0.0,0.0,1.0,737.873,1.0,294.0,9.0,1.0859,0.916553
Asian,15,Right,21,Female,Yes,Mandarin,B,296,1,16,4,0.0,0.0,1.0,618.349,1.0,295.0,9.0,1.19054,0.832772
Asian,15,Right,21,Female,Yes,Mandarin,B,297,0,8,4,180.0,1.0,1.0,859.508,1.0,296.0,9.0,1.15431,0.933874
Asian,15,Right,21,Female,Yes,Mandarin,B,298,1,8,4,0.0,0.0,1.0,734.45,1.0,297.0,9.0,1.15266,0.864307
Asian,15,Right,21,Female,Yes,Mandarin,B,299,0,0,8,180.0,1.0,1.0,665.168,1.0,298.0,9.0,1.05474,0.937306
Asian,15,Right,21,Female,Yes,Mandarin,B,300,0,16,0,0.0,0.0,1.0,848.153,1.0,299.0,9.0,1.06706,0.971263
Asian,15,Right,21,Female,Yes,Mandarin,B,301,1,4,16,180.0,1.0,1.0,688.54,1.0,300.0,9.0,1.1908,0.981288
Asian,15,Right,21,Female,Yes,Mandarin,B,302,1,4,0,0.0,0.0,1.0,723.614,1.0,301.0,9.0,1.02974,0.915572
Asian,15,Right,21,Female,Yes,Mandarin,B,303,1,0,4,180.0,1.0,1.0,671.037,1.0,302.0,9.0,1.07602,0.960576
Asian,15,Right,21,Female,Yes,Mandarin,B,304,0,16,4,180.0,1.0,1.0,748.099,1.0,303.0,9.0,1.13864,0.873745
Asian,15,Right,21,Female,Yes,Mandarin,B,305,1,4,4,0.0,0.0,1.0,646.433,1.0,304.0,9.0,1.16873,0.931361
Asian,15,Right,21,Female,Yes,Mandarin,B,306,0,16,8,180.0,1.0,1.0,730.343,1.0,305.0,9.0,1.17156,0.854587
Asian,15,Right,21,Female,Yes,Mandarin,B,307,0,16,16,180.0,1.0,1.0,858.2,1.0,306.0,9.0,1.05742,0.959063
Asian,15,Right,21,Female,Yes,Mandarin,B,308,1,16,16,0.0,0.0,1.0,1193.65,1.0,307.0,9.0,1.18582,0.929995
Asian,15,Right,21,Female,Yes,Mandarin,B,309,0,4,8,180.0,1.0,1.0,638.066,1.0,308.0,9.0,1.04121,0.837484
Asian,15,Right,21,Female,Yes,Mandarin,B,310,1,16,0,0.0,0.0,1.0,769.549,1.0,309.0,9.0,1.08117,0.983483
Asian,15,Right,21,Female,Yes,Mandarin,B,311,1,0,0,0.0,0.0,1.0,702.61,1.0,310.0,9.0,1.08435,0.947802
Asian,15,Right,21,Female,Yes,Mandarin,B,312,0,8,8,180.0,1.0,1.0,909.975,1.0,311.0,9.0,1.1011,0.967723
Asian,15,Right,21,Female,Yes,Mandarin,B,313,1,0,16,0.0,0.0,1.0,636.178,1.0,312.0,9.0,1.18254,0.84064
Asian,15,Right,21,Female,Yes,Mandarin,B,314,1,0,8,180.0,1.0,1.0,661.546,1.0,313.0,9.0,1.17093,0.941498
Asian,15,Right,21,Female,Yes,Mandarin,B,315,0,4,0,180.0,1.0,1.0,853.311,1.0,314.0,9.0,1.1159,0.851371
Asian,15,Right,21,Female,Yes,Mandarin,B,316,1,8,8,0.0,0.0,1.0,742.476,1.0,315.0,9.0,1.18197,0.933254
Asian,15,Right,21,Female,Yes,Mandarin,B,317,0,0,4,180.0,1.0,1.0,715.305,1.0,316.0,9.0,1.15838,0.864664
Asian,15,Right,21,Female,Yes,Mandarin,B,318,0,8,16,0.0,0.0,1.0,639.246,1.0,317.0,9.0,1.16812,0.997448
Asian,15,Right,21,Female,Yes,Mandarin,B,319,1,4,8,0.0,0.0,1.0,598.643,1.0,318.0,9.0,1.08395,0.953277
Asian,15,Right,21,Female,Yes,Mandarin,B,320,1,8,0,0.0,0.0,1.0,598.726,1.0,319.0,9.0,1.04082,0.900063
Asian,15,Right,21,Female,Yes,Mandarin,B,321,0,8,8,0.0,0.0,1.0,647.194,1.0,320.0,10.0,1.17571,0.816803
Asian,15,Right,21,Female,Yes,Mandarin,B,322,0,8,4,0.0,0.0,1.0,520.422,1.0,321.0,10.0,1.07614,0.918691
Asian,15,Right,21,Female,Yes,Mandarin,B,323,0,0,0,180.0,1.0,1.0,678.018,1.0,322.0,10.0,1.03183,0.881507
Asian,15,Right,21,Female,Yes,Mandarin,B,324,0,4,4,180.0,1.0,1.0,628.548,1.0,323.0,10.0,1.03117,0.96301
Asian,15,Right,21,Female,Yes,Mandarin,B,325,1,0,8,180.0,1.0,1.0,907.553,1.0,324.0,10.0,1.1772,0.937515
Asian,15,Right,21,Female,Yes,Mandarin,B,326,1,4,0,180.0,1.0,1.0,735.46,1.0,325.0,10.0,1.03626,0.894111
Asian,15,Right,21,Female,Yes,Mandarin,B,327,0,16,16,0.0,0.0,1.0,796.299,1.0,326.0,10.0,1.19082,0.897084
Asian,15,Right,21,Female,Yes,Mandarin,B,328,1,8,16,0.0,0.0,1.0,588.404,1.0,327.0,10.0,1.0592,0.83867
Asian,15,Right,21,Female,Yes,Mandarin,B,329,0,4,8,180.0,1.0,1.0,869.712,1.0,328.0,10.0,1.01851,0.950457
Asian,15,Right,21,Female,Yes,Mandarin,B,330,1,16,8,0.0,0.0,1.0,1782.0,1.0,329.0,10.0,1.00104,0.897355
Asian,15,Right,21,Female,Yes,Mandarin,B,331,0,0,4,0.0,0.0,1.0,655.614,1.0,330.0,10.0,1.16459,0.94184
Asian,15,Right,21,Female,Yes,Mandarin,B,332,0,8,0,180.0,1.0,1.0,690.13,1.0,331.0,10.0,1.18857,0.899688
Asian,15,Right,21,Female,Yes,Mandarin,B,333,1,16,0,180.0,1.0,1.0,1061.84,1.0,332.0,10.0,1.06104,0.800299
Asian,15,Right,21,Female,Yes,Mandarin,B,334,1,0,16,180.0,1.0,1.0,994.64,1.0,333.0,10.0,1.09944,0.804902
Asian,15,Right,21,Female,Yes,Mandarin,B,335,1,0,4,0.0,0.0,1.0,811.042,1.0,334.0,10.0,1.03286,0.830188
Asian,15,Right,21,Female,Yes,Mandarin,B,336,1,4,8,0.0,0.0,1.0,642.073,1.0,335.0,10.0,1.09939,0.896182
Asian,15,Right,21,Female,Yes,Mandarin,B,337,0,16,0,0.0,0.0,1.0,874.801,1.0,336.0,10.0,1.0158,0.89454
Asian,15,Right,21,Female,Yes,Mandarin,B,338,1,4,4,0.0,0.0,1.0,913.522,1.0,337.0,10.0,1.07467,0.99191
Asian,15,Right,21,Female,Yes,Mandarin,B,339,0,4,0,0.0,0.0,1.0,824.594,1.0,338.0,10.0,1.0225,0.970784
Asian,15,Right,21,Female,Yes,Mandarin,B,340,1,16,16,0.0,0.0,1.0,765.876,1.0,339.0,10.0,1.09538,0.990682
Asian,15,Right,21,Female,Yes,Mandarin,B,341,1,16,4,180.0,1.0,1.0,612.236,1.0,340.0,10.0,1.0089,0.880271
Asian,15,Right,21,Female,Yes,Mandarin,B,342,1,0,0,180.0,1.0,1.0,664.71,1.0,341.0,10.0,1.11883,0.804687
Asian,15,Right,21,Female,Yes,Mandarin,B,343,0,16,8,0.0,0.0,1.0,738.116,1.0,342.0,10.0,1.0005,0.905144
Asian,15,Right,21,Female,Yes,Mandarin,B,344,1,4,16,180.0,1.0,1.0,625.662,1.0,343.0,10.0,1.08838,0.969063
Asian,15,Right,21,Female,Yes,Mandarin,B,345,0,0,8,180.0,1.0,1.0,619.915,1.0,344.0,10.0,1.06234,0.932525
Asian,15,Right,21,Female,Yes,Mandarin,B,346,0,4,16,180.0,1.0,1.0,579.17,1.0,345.0,10.0,1.04724,0.914847
Asian,15,Right,21,Female,Yes,Mandarin,B,347,0,16,4,0.0,0.0,1.0,614.159,1.0,346.0,10.0,1.00188,0.946209
Asian,15,Right,21,Female,Yes,Mandarin,B,348,1,8,0,0.0,0.0,1.0,978.826,1.0,347.0,10.0,1.0506,0.803697
Asian,15,Right,21,Female,Yes,Mandarin,B,349,0,0,16,180.0,1.0,1.0,657.413,1.0,348.0,10.0,1.11137,0.887512
Asian,15,Right,21,Female,Yes,Mandarin,B,350,0,8,16,0.0,0.0,1.0,1773.29,1.0,349.0,10.0,1.07261,0.945282
Asian,15,Right,21,Female,Yes,Mandarin,B,351,1,8,4,180.0,1.0,1.0,619.323,1.0,350.0,10.0,1.03219,0.997203
Asian,15,Right,21,Female,Yes,Mandarin,B,352,1,8,8,180.0,1.0,1.0,614.698,1.0,351.0,10.0,1.13689,0.8629
Asian,15,Right,21,Female,Yes,Mandarin,B,353,1,16,16,0.0,0.0,1.0,670.411,1.0,352.0,11.0,1.01031,0.906696
Asian,15,Right,21,Female,Yes,Mandarin,B,354,1,4,4,0.0,0.0,1.0,615.324,1.0,353.0,11.0,1.0722,0.855413
Asian,15,Right,21,Female,Yes,Mandarin,B,355,1,0,0,180.0,1.0,1.0,566.125,1.0,354.0,11.0,1.18391,0.854261
Asian,15,Right,21,Female,Yes,Mandarin,B,356,1,8,16,180.0,1.0,1.0,732.118,1.0,355.0,11.0,1.09974,0.970372
Asian,15,Right,21,Female,Yes,Mandarin,B,357,0,0,16,180.0,1.0,1.0,863.693,1.0,356.0,11.0,1.01471,0.978607
Asian,15,Right,21,Female,Yes,Mandarin,B,358,0,0,0,0.0,0.0,1.0,683.808,1.0,357.0,11.0,1.04537,0.867954
Asian,15,Right,21,Female,Yes,Mandarin,B,359,0,16,4,180.0,1.0,1.0,715.861,1.0,358.0,11.0,1.05985,0.898819
Asian,15,Right,21,Female,Yes,Mandarin,B,360,1,16,8,0.0,0.0,1.0,783.418,1.0,359.0,11.0,1.16195,0.971685
Asian,15,Right,21,Female,Yes,Mandarin,B,361,0,0,8,180.0,1.0,1.0,535.934,1.0,360.0,11.0,1.15235,0.931429
Asian,15,Right,21,Female,Yes,Mandarin,B,362,0,8,16,180.0,1.0,1.0,1293.14,1.0,361.0,11.0,1.04079,0.949146
Asian,15,Right,21,Female,Yes,Mandarin,B,363,1,16,0,0.0,0.0,1.0,1010.85,1.0,362.0,11.0,1.16586,0.931324
Asian,15,Right,21,Female,Yes,Mandarin,B,364,0,4,0,180.0,1.0,1.0,804.85,1.0,363.0,11.0,1.19655,0.81019
Asian,15,Right,21,Female,Yes,Mandarin,B,365,0,0,4,180.0,1.0,1.0,628.921,1.0,364.0,11.0,1.05507,0.852435
Asian,15,Right,21,Female,Yes,Mandarin,B,366,1,0,4,0.0,0.0,1.0,641.427,1.0,365.0,11.0,1.09566,0.943963
Asian,15,Right,21,Female,Yes,Mandarin,B,367,0,4,4,180.0,1.0,1.0,1158.99,1.0,366.0,11.0,1.10984,0.880597
Asian,15,Right,21,Female,Yes,Mandarin,B,368,1,8,0,0.0,0.0,1.0,708.654,1.0,367.0,11.0,1.06338,0.856758
Asian,15,Right,21,Female,Yes,Mandarin,B,369,1,4,8,0.0,0.0,1.0,1452.57,1.0,368.0,11.0,1.01146,0.909235
Asian,15,Right,21,Female,Yes,Mandarin,B,370,0,8,0,0.0,0.0,1.0,668.238,1.0,369.0,11.0,1.11086,0.810576
Asian,15,Right,21,Female,Yes,Mandarin,B,371,1,8,4,0.0,0.0,1.0,824.007,1.0,370.0,11.0,1.11771,0.941579
Asian,15,Right,21,Female,Yes,Mandarin,B,372,0,16,8,0.0,0.0,1.0,628.031,1.0,371.0,11.0,1.10763,0.982056
Asian,15,Right,21,Female,Yes,Mandarin,B,373,1,0,16,0.0,0.0,1.0,609.93,1.0,372.0,11.0,1.08836,0.840335
Asian,15,Right,21,Female,Yes,Mandarin,B,374,1,4,0,180.0,1.0,1.0,863.467,1.0,373.0,11.0,1.13834,0.922628
Asian,15,Right,21,Female,Yes,Mandarin,B,375,1,0,8,0.0,0.0,1.0,1219.04,1.0,374.0,11.0,1.13377,0.928893
Asian,15,Right,21,Female,Yes,Mandarin,B,376,1,8,8,180.0,1.0,1.0,608.494,1.0,375.0,11.0,1.03689,0.962602
Asian,15,Right,21,Female,Yes,Mandarin,B,377,1,4,16,180.0,1.0,1.0,752.369,1.0,376.0,11.0,1.05477,0.924053
Asian,15,Right,21,Female,Yes,Mandarin,B,378,0,4,16,180.0,1.0,1.0,580.215,1.0,377.0,11.0,1.0622,0.860445
Asian,15,Right,21,Female,Yes,Mandarin,B,379,0,8,4,180.0,1.0,1.0,812.378,1.0,378.0,11.0,1.13078,0.94792
Asian,15,Right,21,Female,Yes,Mandarin,B,380,0,4,8,180.0,1.0,1.0,675.263,1.0,379.0,11.0,1.15744,0.984231
Asian,15,Right,21,Female,Yes,Mandarin,B,381,1,16,4,0.0,0.0,1.0,685.154,1.0,380.0,11.0,1.09946,0.844596
Asian,15,Right,21,Female,Yes,Mandarin,B,382,0,16,0,0.0,0.0,1.0,862.75,1.0,381.0,11.0,1.02783,0.873948
Asian,15,Right,21,Female,Yes,Mandarin,B,383,0,16,16,0.0,0.0,1.0,812.124,1.0,382.0,11.0,1.12911,0.952432
Asian,15,Right,21,Female,Yes,Mandarin,B,384,0,8,8,180.0,1.0,1.0,705.519,1.0,383.0,11.0,1.01053,0.857063
Asian,15,Right,21,Female,Yes,Mandarin,B,385,1,16,16,0.0,0.0,1.0,2004.96,1.0,384.0,12.0,1.19749,0.966467
Asian,15,Right,21,Female,Yes,Mandarin,B,386,0,16,0,180.0,1.0,1.0,987.388,1.0,385.0,12.0,1.08938,0.910703
Asian,15,Right,21,Female,Yes,Mandarin,B,387,0,8,4,0.0,0.0,1.0,593.045,1.0,386.0,12.0,1.08473,0.995335
Asian,15,Right,21,Female,Yes,Mandarin,B,388,0,0,8,0.0,0.0,1.0,747.93,1.0,387.0,12.0,1.10897,0.955314
Asian,15,Right,21,Female,Yes,Mandarin,B,389,0,8,8,180.0,1.0,1.0,1063.29,1.0,388.0,12.0,1.18212,0.857281
Asian,15,Right,21,Female,Yes,Mandarin,B,390,1,0,4,180.0,1.0,1.0,569.589,1.0,389.0,12.0,1.13787,0.965186
Asian,15,Right,21,Female,Yes,Mandarin,B,391,0,0,16,0.0,0.0,1.0,635.433,1.0,390.0,12.0,1.15558,0.878408
Asian,15,Right,21,Female,Yes,Mandarin,B,392,0,4,16,180.0,1.0,1.0,617.982,1.0,391.0,12.0,1.07265,0.804188
Asian,15,Right,21,Female,Yes,Mandarin,B,393,0,0,0,0.0,0.0,1.0,654.174,1.0,392.0,12.0,1.11497,0.8168
Asian,15,Right,21,Female,Yes,Mandarin,B,394,0,4,4,0.0,0.0,1.0,621.493,1.0,393.0,12.0,1.10008,0.844851
Asian,15,Right,21,Female,Yes,Mandarin,B,395,0,16,8,180.0,1.0,1.0,574.448,1.0,394.0,12.0,1.06846,0.94758
Asian,15,Right,21,Female,Yes,Mandarin,B,396,0,0,4,180.0,1.0,1.0,616.544,1.0,395.0,12.0,1.0711,0.951255
Asian,15,Right,21,Female,Yes,Mandarin,B,397,0,4,0,180.0,1.0,1.0,633.952,1.0,396.0,12.0,1.14139,0.830884
Asian,15,Right,21,Female,Yes,Mandarin,B,398,1,8,8,180.0,1.0,1.0,700.484,1.0,397.0,12.0,1.02697,0.883686
Asian,15,Right,21,Female,Yes,Mandarin,B,399,1,8,16,0.0,0.0,1.0,709.304,1.0,398.0,12.0,1.18785,0.995006
Asian,15,Right,21,Female,Yes,Mandarin,B,400,0,16,16,180.0,1.0,1.0,687.585,1.0,399.0,12.0,1.12258,0.881468
Asian,15,Right,21,Female,Yes,Mandarin,B,401,1,0,8,180.0,1.0,1.0,684.732,1.0,400.0,12.0,1.15051,0.839684
Asian,15,Right,21,Female,Yes,Mandarin,B,402,1,0,0,0.0,0.0,1.0,792.099,1.0,401.0,12.0,1.14224,0.986543
Asian,15,Right,21,Female,Yes,Mandarin,B,403,1,4,16,0.0,0.0,1.0,698.117,1.0,402.0,12.0,1.06266,0.891836
Asian,15,Right,21,Female,Yes,Mandarin,B,404,1,0,16,180.0,1.0,1.0,588.726,1.0,403.0,12.0,1.09766,0.855272
Asian,15,Right,21,Female,Yes,Mandarin,B,405,1,8,0,0.0,0.0,1.0,548.661,1.0,404.0,12.0,1.04781,0.841129
Asian,15,Right,21,Female,Yes,Mandarin,B,406,1,16,8,180.0,1.0,1.0,1230.41,1.0,405.0,12.0,1.17206,0.816569
Asian,15,Right,21,Female,Yes,Mandarin,B,407,1,4,4,0.0,0.0,1.0,764.189,1.0,406.0,12.0,1.11015,0.987159
Asian,15,Right,21,Female,Yes,Mandarin,B,408,0,8,0,180.0,1.0,1.0,807.823,1.0,407.0,12.0,1.0981,0.892431
Asian,15,Right,21,Female,Yes,Mandarin,B,409,1,4,8,0.0,0.0,1.0,755.066,1.0,408.0,12.0,1.07825,0.946794
Asian,15,Right,21,Female,Yes,Mandarin,B,410,0,16,4,180.0,1.0,1.0,1843.51,1.0,409.0,12.0,1.04402,0.863316
Asian,15,Right,21,Female,Yes,Mandarin,B,411,1,4,0,180.0,1.0,1.0,896.673,1.0,410.0,12.0,1.12643,0.828592
Asian,15,Right,21,Female,Yes,Mandarin,B,412,1,16,4,0.0,0.0,1.0,1124.18,1.0,411.0,12.0,1.05179,0.937155
Asian,15,Right,21,Female,Yes,Mandarin,B,413,1,8,4,180.0,1.0,1.0,689.042,1.0,412.0,12.0,1.02069,0.861664
Asian,15,Right,21,Female,Yes,Mandarin,B,414,0,4,8,0.0,0.0,1.0,629.907,1.0,413.0,12.0,1.14806,0.884709
Asian,15,Right,21,Female,Yes,Mandarin,B,415,0,8,16,0.0,0.0,1.0,658.493,1.0,414.0,12.0,1.16996,0.824119
Asian,15,Right,21,Female,Yes,Mandarin,B,416,1,16,0,0.0,0.0,1.0,1570.89,1.0,415.0,12.0,1.16648,0.982411
Asian,15,Right,21,Female,Yes,Mandarin,B,417,0,4,0,0.0,0.0,1.0,563.936,1.0,416.0,13.0,1.17361,0.91016
Asian,15,Right,21,Female,Yes,Mandarin,B,418,1,4,16,180.0,1.0,1.0,1051.78,1.0,417.0,13.0,1.17727,0.832484
Asian,15,Right,21,Female,Yes,Mandarin,B,419,0,4,8,0.0,0.0,1.0,603.367,1.0,418.0,13.0,1.1828,0.942112
Asian,15,Right,21,Female,Yes,Mandarin,B,420,0,8,4,180.0,1.0,1.0,750.38,1.0,419.0,13.0,1.06985,0.810059
Asian,15,Right,21,Female,Yes,Mandarin,B,421,0,0,0,0.0,0.0,1.0,642.458,1.0,420.0,13.0,1.03877,0.970424
Asian,15,Right,21,Female,Yes,Mandarin,B,422,1,8,8,0.0,0.0,1.0,660.839,1.0,421.0,13.0,1.05705,0.874842
Asian,15,Right,21,Female,Yes,Mandarin,B,423,0,8,8,180.0,1.0,1.0,651.988,1.0,422.0,13.0,1.10737,0.833627
Asian,15,Right,21,Female,Yes,Mandarin,B,424,1,0,16,0.0,0.0,1.0,1259.94,1.0,423.0,13.0,1.02773,0.977869
Asian,15,Right,21,Female,Yes,Mandarin,B,425,1,8,4,180.0,1.0,1.0,761.446,1.0,424.0,13.0,1.13137,0.88034
Asian,15,Right,21,Female,Yes,Mandarin,B,426,0,16,4,0.0,0.0,1.0,672.705,1.0,425.0,13.0,1.08026,0.943932
Asian,15,Right,21,Female,Yes,Mandarin,B,427,0,0,8,0.0,0.0,1.0,592.699,1.0,426.0,13.0,1.03552,0.892587
Asian,15,Right,21,Female,Yes,Mandarin,B,428,0,4,4,0.0,0.0,1.0,681.105,1.0,427.0,13.0,1.11482,0.924761
Asian,15,Right,21,Female,Yes,Mandarin,B,429,0,4,16,0.0,0.0,1.0,673.047,1.0,428.0,13.0,1.14422,0.872016
Asian,15,Right,21,Female,Yes,Mandarin,B,430,1,8,16,0.0,0.0,1.0,899.253,1.0,429.0,13.0,1.14539,0.86127
Asian,15,Right,21,Female,Yes,Mandarin,B,431,1,0,8,0.0,0.0,1.0,790.784,1.0,430.0,13.0,1.12253,0.828833
Asian,15,Right,21,Female,Yes,Mandarin,B,432,1,4,4,180.0,1.0,1.0,579.6,1.0,431.0,13.0,1.16458,0.82243
Asian,15,Right,21,Female,Yes,Mandarin,B,433,0,16,8,180.0,1.0,1.0,557.949,1.0,432.0,13.0,1.09105,0.991649
Asian,15,Right,21,Female,Yes,Mandarin,B,434,0,0,4,180.0,1.0,1.0,634.419,1.0,433.0,13.0,1.05435,0.877615
Asian,15,Right,21,Female,Yes,Mandarin,B,435,0,8,16,180.0,1.0,1.0,800.469,1.0,434.0,13.0,1.11003,0.889512
Asian,15,Right,21,Female,Yes,Mandarin,B,436,1,16,8,180.0,1.0,1.0,806.422,1.0,435.0,13.0,1.14251,0.960974
Asian,15,Right,21,Female,Yes,Mandarin,B,437,0,16,16,0.0,0.0,1.0,840.298,1.0,436.0,13.0,1.15889,0.912606
Asian,15,Right,21,Female,Yes,Mandarin,B,438,0,16,0,180.0,1.0,1.0,797.392,1.0,437.0,13.0,1.06292,0.993955
Asian,15,Right,21,Female,Yes,Mandarin,B,439,1,16,16,0.0,0.0,1.0,1133.11,1.0,438.0,13.0,1.04175,0.945102
Asian,15,Right,21,Female,Yes,Mandarin,B,440,1,4,8,0.0,0.0,1.0,668.91,1.0,439.0,13.0,1.06391,0.901257
Asian,15,Right,21,Female,Yes,Mandarin,B,441,1,0,4,180.0,1.0,1.0,715.368,1.0,440.0,13.0,1.13559,0.925845
Asian,15,Right,21,Female,Yes,Mandarin,B,442,1,4,0,0.0,0.0,1.0,1052.08,1.0,441.0,13.0,1.09602,0.828785
Asian,15,Right,21,Female,Yes,Mandarin,B,443,1,16,4,180.0,1.0,1.0,918.949,1.0,442.0,13.0,1.19008,0.812239
Asian,15,Right,21,Female,Yes,Mandarin,B,444,1,0,0,180.0,1.0,1.0,537.844,1.0,443.0,13.0,1.06521,0.830352
Asian,15,Right,21,Female,Yes,Mandarin,B,445,1,16,0,180.0,1.0,1.0,763.14,1.0,444.0,13.0,1.14316,0.957721
Asian,15,Right,21,Female,Yes,Mandarin,B,446,1,8,0,180.0,1.0,1.0,639.183,1.0,445.0,13.0,1.11575,0.923622
Asian,15,Right,21,Female,Yes,Mandarin,B,447,0,0,16,0.0,0.0,1.0,754.038,1.0,446.0,13.0,1.18859,0.83454
Asian,15,Right,21,Female,Yes,Mandarin,B,448,0,8,0,180.0,1.0,1.0,722.31,1.0,447.0,13.0,1.13526,0.857859
Asian,15,Right,21,Female,Yes,Mandarin,B,449,1,16,0,0.0,0.0,1.0,763.112,1.0,448.0,14.0,1.02857,0.974964
Asian,15,Right,21,Female,Yes,Mandarin,B,450,0,4,0,180.0,1.0,1.0,589.755,1.0,449.0,14.0,1.18983,0.980566
Asian,15,Right,21,Female,Yes,Mandarin,B,451,0,8,0,0.0,0.0,1.0,1061.0,1.0,450.0,14.0,1.13463,0.818269
Asian,15,Right,21,Female,Yes,Mandarin,B,452,0,16,16,0.0,0.0,1.0,575.689,1.0,451.0,14.0,1.11961,0.858216
Asian,15,Right,21,Female,Yes,Mandarin,B,453,0,16,4,0.0,0.0,1.0,1254.13,1.0,452.0,14.0,1.10026,0.988963
Asian,15,Right,21,Female,Yes,Mandarin,B,454,1,8,0,180.0,1.0,1.0,1277.42,1.0,453.0,14.0,1.08555,0.858022
Asian,15,Right,21,Female,Yes,Mandarin,B,455,0,4,16,180.0,1.0,1.0,590.757,1.0,454.0,14.0,1.12413,0.825155
Asian,15,Right,21,Female,Yes,Mandarin,B,456,1,8,4,180.0,1.0,1.0,910.157,1.0,455.0,14.0,1.16749,0.949137
Asian,15,Right,21,Female,Yes,Mandarin,B,457,1,4,8,0.0,0.0,1.0,776.732,1.0,456.0,14.0,1.1588,0.935403
Asian,15,Right,21,Female,Yes,Mandarin,B,458,1,8,8,0.0,0.0,1.0,921.687,1.0,457.0,14.0,1.07154,0.948036
Asian,15,Right,21,Female,Yes,Mandarin,B,459,0,8,4,0.0,0.0,1.0,779.447,1.0,458.0,14.0,1.13066,0.828357
Asian,15,Right,21,Female,Yes,Mandarin,B,460,0,8,8,180.0,1.0,1.0,1137.04,1.0,459.0,14.0,1.15802,0.851495
Asian,15,Right,21,Female,Yes,Mandarin,B,461,0,0,8,0.0,0.0,1.0,616.123,1.0,460.0,14.0,1.14426,0.901309
Asian,15,Right,21,Female,Yes,Mandarin,B,462,1,8,16,180.0,1.0,1.0,675.382,1.0,461.0,14.0,1.18112,0.824255
Asian,15,Right,21,Female,Yes,Mandarin,B,463,1,0,0,0.0,0.0,1.0,616.124,1.0,462.0,14.0,1.03508,0.983473
Asian,15,Right,21,Female,Yes,Mandarin,B,464,0,0,4,0.0,0.0,1.0,759.971,1.0,463.0,14.0,1.0675,0.972574
Asian,15,Right,21,Female,Yes,Mandarin,B,465,0,4,8,0.0,0.0,1.0,764.19,1.0,464.0,14.0,1.01503,0.884875
Asian,15,Right,21,Female,Yes,Mandarin,B,466,0,0,16,180.0,1.0,1.0,851.397,1.0,465.0,14.0,1.082,0.86426
Asian,15,Right,21,Female,Yes,Mandarin,B,467,1,0,8,0.0,0.0,1.0,667.723,1.0,466.0,14.0,1.0203,0.918061
Asian,15,Right,21,Female,Yes,Mandarin,B,468,1,4,16,180.0,1.0,1.0,643.353,1.0,467.0,14.0,1.06336,0.81467
Asian,15,Right,21,Female,Yes,Mandarin,B,469,0,16,0,180.0,1.0,1.0,891.327,1.0,468.0,14.0,1.09047,0.988478
Asian,15,Right,21,Female,Yes,Mandarin,B,470,0,0,0,180.0,1.0,1.0,625.768,1.0,469.0,14.0,1.15278,0.840236
Asian,15,Right,21,Female,Yes,Mandarin,B,471,1,0,4,0.0,0.0,1.0,564.256,1.0,470.0,14.0,1.04933,0.931857
Asian,15,Right,21,Female,Yes,Mandarin,B,472,1,4,4,0.0,0.0,1.0,1240.13,1.0,471.0,14.0,1.01992,0.965191
Asian,15,Right,21,Female,Yes,Mandarin,B,473,0,16,8,180.0,1.0,1.0,584.246,1.0,472.0,14.0,1.05417,0.829224
Asian,15,Right,21,Female,Yes,Mandarin,B,474,1,16,16,0.0,0.0,1.0,565.401,1.0,473.0,14.0,1.09918,0.845375
Asian,15,Right,21,Female,Yes,Mandarin,B,475,0,8,16,180.0,1.0,1.0,1306.16,1.0,474.0,14.0,1.133,0.993756
Asian,15,Right,21,Female,Yes,Mandarin,B,476,1,16,4,0.0,0.0,1.0,717.995,1.0,475.0,14.0,1.01941,0.921256
Asian,15,Right,21,Female,Yes,Mandarin,B,477,1,0,16,180.0,1.0,1.0,822.114,1.0,476.0,14.0,1.17196,0.806534
Asian,15,Right,21,Female,Yes,Mandarin,B,478,1,4,0,180.0,1.0,1.0,840.443,1.0,477.0,14.0,1.03452,0.817775
Asian,15,Right,21,Female,Yes,Mandarin,B,479,0,4,4,180.0,1.0,1.0,710.256,1.0,478.0,14.0,1.10821,0.95669
Asian,15,Right,21,Female,Yes,Mandarin,B,480,1,16,8,180.0,1.0,1.0,792.143,1.0,479.0,14.0,1.14435,0.852373
Asian,15,Right,21,Female,Yes,Mandarin,B,481,1,8,0,0.0,0.0,1.0,645.849,1.0,480.0,15.0,1.0789,0.855924
Asian,15,Right,21,Female,Yes,Mandarin,B,482,0,4,0,0.0,0.0,1.0,731.37,1.0,481.0,15.0,1.0738,0.94204
Asian,15,Right,21,Female,Yes,Mandarin,B,483,0,0,4,0.0,0.0,1.0,659.492,1.0,482.0,15.0,1.03208,0.93623
Asian,15,Right,21,Female,Yes,Mandarin,B,484,1,16,8,0.0,0.0,1.0,701.137,1.0,483.0,15.0,1.04729,0.965819
Asian,15,Right,21,Female,Yes,Mandarin,B,485,0,4,8,180.0,1.0,1.0,1375.67,1.0,484.0,15.0,1.04596,0.909553
Asian,15,Right,21,Female,Yes,Mandarin,B,486,1,8,8,180.0,1.0,1.0,606.149,1.0,485.0,15.0,1.12777,0.89325
Asian,15,Right,21,Female,Yes,Mandarin,B,487,0,16,8,180.0,1.0,1.0,851.305,1.0,486.0,15.0,1.01209,0.904735
Asian,15,Right,21,Female,Yes,Mandarin,B,488,0,8,0,180.0,1.0,1.0,794.813,1.0,487.0,15.0,1.15256,0.950555
Asian,15,Right,21,Female,Yes,Mandarin,B,489,1,8,4,0.0,0.0,1.0,639.782,1.0,488.0,15.0,1.0442,0.990422
Asian,15,Right,21,Female,Yes,Mandarin,B,490,0,16,4,0.0,0.0,1.0,617.152,1.0,489.0,15.0,1.02915,0.97251
Asian,15,Right,21,Female,Yes,Mandarin,B,491,1,0,16,180.0,1.0,1.0,717.28,1.0,490.0,15.0,1.03475,0.951683
Asian,15,Right,21,Female,Yes,Mandarin,B,492,1,16,4,180.0,1.0,1.0,626.142,1.0,491.0,15.0,1.00272,0.80349
Asian,15,Right,21,Female,Yes,Mandarin,B,493,1,16,0,180.0,1.0,1.0,876.076,1.0,492.0,15.0,1.17186,0.903145
Asian,15,Right,21,Female,Yes,Mandarin,B,494,1,8,16,180.0,1.0,1.0,767.63,1.0,493.0,15.0,1.07257,0.863303
Asian,15,Right,21,Female,Yes,Mandarin,B,495,0,16,0,180.0,1.0,1.0,1093.33,1.0,494.0,15.0,1.07667,0.877175
Asian,15,Right,21,Female,Yes,Mandarin,B,496,0,8,8,180.0,1.0,1.0,1022.64,1.0,495.0,15.0,1.04613,0.828924
Asian,15,Right,21,Female,Yes,Mandarin,B,497,0,4,16,180.0,1.0,1.0,1356.15,1.0,496.0,15.0,1.1566,0.975293
Asian,15,Right,21,Female,Yes,Mandarin,B,498,1,4,8,0.0,0.0,1.0,933.124,1.0,497.0,15.0,1.08866,0.876049
Asian,15,Right,21,Female,Yes,Mandarin,B,499,1,4,0,180.0,1.0,1.0,1013.68,1.0,498.0,15.0,1.07232,0.998442
Asian,15,Right,21,Female,Yes,Mandarin,B,500,0,16,16,180.0,1.0,1.0,1163.29,1.0,499.0,15.0,1.12088,0.920152
Asian,15,Right,21,Female,Yes,Mandarin,B,501,0,0,8,180.0,1.0,1.0,476.416,1.0,500.0,15.0,1.09888,0.850923
Asian,15,Right,21,Female,Yes,Mandarin,B,502,1,16,16,0.0,0.0,1.0,1021.06,1.0,501.0,15.0,1.14915,0.840019
Asian,15,Right,21,Female,Yes,Mandarin,B,503,0,0,0,0.0,0.0,1.0,666.029,1.0,502.0,15.0,1.13088,0.829653
Asian,15,Right,21,Female,Yes,Mandarin,B,504,1,4,16,0.0,0.0,1.0,922.636,1.0,503.0,15.0,1.1497,0.855673
Asian,15,Right,21,Female,Yes,Mandarin,B,505,1,4,4,0.0,0.0,1.0,846.037,1.0,504.0,15.0,1.12829,0.892034
Asian,15,Right,21,Female,Yes,Mandarin,B,506,0,8,16,180.0,1.0,1.0,1662.39,1.0,505.0,15.0,1.1427,0.958086
Asian,15,Right,21,Female,Yes,Mandarin,B,507,1,0,4,0.0,0.0,1.0,732.735,1.0,506.0,15.0,1.00314,0.911378
Asian,15,Right,21,Female,Yes,Mandarin,B,508,0,0,16,0.0,0.0,1.0,583.947,1.0,507.0,15.0,1.06844,0.966687
Asian,15,Right,21,Female,Yes,Mandarin,B,509,1,0,8,180.0,1.0,1.0,885.266,1.0,508.0,15.0,1.14842,0.961657
Asian,15,Right,21,Female,Yes,Mandarin,B,510,0,8,4,0.0,0.0,1.0,1388.25,1.0,509.0,15.0,1.03696,0.810449
Asian,15,Right,21,Female,Yes,Mandarin,B,511,0,4,4,0.0,0.0,1.0,645.606,1.0,510.0,15.0,1.06672,0.927237
Asian,15,Right,21,Female,Yes,Mandarin,B,512,1,0,0,0.0,0.0,1.0,510.992,1.0,511.0,15.0,1.06868,0.846648
Asian,15,Right,21,Female,Yes,Mandarin,B,513,1,8,0,0.0,0.0,1.0,646.757,1.0,512.0,16.0,1.02517,0.862431
Asian,15,Right,21,Female,Yes,Mandarin,B,514,0,4,0,180.0,1.0,1.0,899.737,1.0,513.0,16.0,1.11632,0.80751
Asian,15,Right,21,Female,Yes,Mandarin,B,515,0,4,16,180.0,1.0,1.0,595.416,1.0,514.0,16.0,1.13555,0.800463
Asian,15,Right,21,Female,Yes,Mandarin,B,516,1,0,4,180.0,1.0,1.0,654.944,1.0,515.0,16.0,1.06832,0.835189
Asian,15,Right,21,Female,Yes,Mandarin,B,517,1,0,8,0.0,0.0,1.0,652.307,1.0,516.0,16.0,1.19779,0.805653
Asian,15,Right,21,Female,Yes,Mandarin,B,518,0,8,8,0.0,0.0,1.0,580.845,1.0,517.0,16.0,1.08205,0.970988
Asian,15,Right,21,Female,Yes,Mandarin,B,519,0,16,16,180.0,1.0,1.0,764.813,1.0,518.0,16.0,1.0535,0.954889
Asian,15,Right,21,Female,Yes,Mandarin,B,520,1,4,0,180.0,1.0,1.0,843.739,1.0,519.0,16.0,1.08252,0.924267
Asian,15,Right,21,Female,Yes,Mandarin,B,521,1,0,0,180.0,1.0,1.0,596.989,1.0,520.0,16.0,1.07282,0.928884
Asian,15,Right,21,Female,Yes,Mandarin,B,522,1,8,8,0.0,0.0,1.0,994.093,1.0,521.0,16.0,1.1036,0.927271
Asian,15,Right,21,Female,Yes,Mandarin,B,523,0,16,8,180.0,1.0,1.0,1351.69,1.0,522.0,16.0,1.09219,0.818757
Asian,15,Right,21,Female,Yes,Mandarin,B,524,0,8,0,0.0,0.0,1.0,1121.92,1.0,523.0,16.0,1.04603,0.857999
Asian,15,Right,21,Female,Yes,Mandarin,B,525,1,4,8,180.0,1.0,1.0,829.507,1.0,524.0,16.0,1.1067,0.849965
Asian,15,Right,21,Female,Yes,Mandarin,B,526,1,8,16,0.0,0.0,1.0,924.278,1.0,525.0,16.0,1.19275,0.975439
Asian,15,Right,21,Female,Yes,Mandarin,B,527,1,16,16,0.0,0.0,1.0,583.71,1.0,526.0,16.0,1.07551,0.930727
Asian,15,Right,21,Female,Yes,Mandarin,B,528,0,4,8,0.0,0.0,1.0,740.473,1.0,527.0,16.0,1.05526,0.863764
Asian,15,Right,21,Female,Yes,Mandarin,B,529,0,0,16,180.0,1.0,1.0,534.985,1.0,528.0,16.0,1.11104,0.870142
Asian,15,Right,21,Female,Yes,Mandarin,B,530,0,0,4,0.0,0.0,1.0,631.669,1.0,529.0,16.0,1.10049,0.832495
Asian,15,Right,21,Female,Yes,Mandarin,B,531,0,8,4,180.0,1.0,1.0,792.617,1.0,530.0,16.0,1.08716,0.912009
Asian,15,Right,21,Female,Yes,Mandarin,B,532,0,16,4,0.0,0.0,1.0,774.63,1.0,531.0,16.0,1.10068,0.99414
Asian,15,Right,21,Female,Yes,Mandarin,B,533,0,8,16,0.0,0.0,1.0,1765.94,1.0,532.0,16.0,1.09027,0.91012
Asian,15,Right,21,Female,Yes,Mandarin,B,534,0,0,0,180.0,1.0,1.0,727.324,1.0,533.0,16.0,1.09034,0.865517
Asian,15,Right,21,Female,Yes,Mandarin,B,535,1,16,0,0.0,0.0,1.0,742.738,1.0,534.0,16.0,1.12058,0.890299
Asian,15,Right,21,Female,Yes,Mandarin,B,536,1,4,16,180.0,1.0,1.0,607.666,1.0,535.0,16.0,1.19913,0.802457
Asian,15,Right,21,Female,Yes,Mandarin,B,537,1,16,8,180.0,1.0,1.0,586.036,1.0,536.0,16.0,1.08953,0.978576
Asian,15,Right,21,Female,Yes,Mandarin,B,538,1,4,4,0.0,0.0,1.0,647.383,1.0,537.0,16.0,1.1219,0.877365
Asian,15,Right,21,Female,Yes,Mandarin,B,539,1,16,4,0.0,0.0,1.0,1265.0,1.0,538.0,16.0,1.1839,0.93023
Asian,15,Right,21,Female,Yes,Mandarin,B,540,0,4,4,180.0,1.0,1.0,877.326,1.0,539.0,16.0,1.14645,0.860123
Asian,15,Right,21,Female,Yes,Mandarin,B,541,0,0,8,180.0,1.0,1.0,755.376,1.0,540.0,16.0,1.10668,0.881429
Asian,15,Right,21,Female,Yes,Mandarin,B,542,0,16,0,0.0,0.0,1.0,813.925,1.0,541.0,16.0,1.05418,0.949719
Asian,15,Right,21,Female,Yes,Mandarin,B,543,1,0,16,0.0,0.0,1.0,579.856,1.0,542.0,16.0,1.06401,0.818625
Asian,15,Right,21,Female,Yes,Mandarin,B,544,1,8,4,180.0,1.0,1.0,800.179,1.0,543.0,16.0,1.01858,0.967242
Asian,15,Right,21,Female,Yes,Mandarin,B,545,1,8,4,180.0,1.0,1.0,852.24,1.0,544.0,17.0,1.07111,0.826836
Asian,15,Right,21,Female,Yes,Mandarin,B,546,0,16,16,0.0,0.0,1.0,632.646,1.0,545.0,17.0,1.11439,0.975262
Asian,15,Right,21,Female,Yes,Mandarin,B,547,0,8,4,180.0,1.0,1.0,794.143,1.0,546.0,17.0,1.14789,0.857145
Asian,15,Right,21,Female,Yes,Mandarin,B,548,1,0,4,0.0,0.0,1.0,663.422,1.0,547.0,17.0,1.02831,0.868835
Asian,15,Right,21,Female,Yes,Mandarin,B,549,1,8,8,180.0,1.0,1.0,782.482,1.0,548.0,17.0,1.12128,0.950309
Asian,15,Right,21,Female,Yes,Mandarin,B,550,0,0,8,180.0,1.0,1.0,810.836,1.0,549.0,17.0,1.01968,0.909847
Asian,15,Right,21,Female,Yes,Mandarin,B,551,1,4,4,180.0,1.0,1.0,644.065,1.0,550.0,17.0,1.04954,0.974614
Asian,15,Right,21,Female,Yes,Mandarin,B,552,1,8,0,180.0,1.0,1.0,835.318,1.0,551.0,17.0,1.18096,0.812296
Asian,15,Right,21,Female,Yes,Mandarin,B,553,1,0,8,0.0,0.0,1.0,603.26,1.0,552.0,17.0,1.08722,0.975155
Asian,15,Right,21,Female,Yes,Mandarin,B,554,0,0,0,180.0,1.0,1.0,624.553,1.0,553.0,17.0,1.12484,0.973877
Asian,15,Right,21,Female,Yes,Mandarin,B,555,1,16,0,0.0,0.0,1.0,760.966,1.0,554.0,17.0,1.1654,0.961147
Asian,15,Right,21,Female,Yes,Mandarin,B,556,0,16,4,0.0,0.0,1.0,1028.67,1.0,555.0,17.0,1.13489,0.980812
Asian,15,Right,21,Female,Yes,Mandarin,B,557,1,4,8,180.0,1.0,1.0,846.065,1.0,556.0,17.0,1.10099,0.80159
Asian,15,Right,21,Female,Yes,Mandarin,B,558,1,8,16,180.0,1.0,1.0,595.335,1.0,557.0,17.0,1.00741,0.997186
Asian,15,Right,21,Female,Yes,Mandarin,B,559,0,8,8,0.0,0.0,1.0,914.953,1.0,558.0,17.0,1.03342,0.817835
Asian,15,Right,21,Female,Yes,Mandarin,B,560,1,16,16,180.0,1.0,1.0,831.272,1.0,559.0,17.0,1.15551,0.987149
Asian,15,Right,21,Female,Yes,Mandarin,B,561,1,0,16,0.0,0.0,1.0,647.068,1.0,560.0,17.0,1.06408,0.841051
Asian,15,Right,21,Female,Yes,Mandarin,B,562,1,16,4,0.0,0.0,1.0,928.488,1.0,561.0,17.0,1.08564,0.977969
Asian,15,Right,21,Female,Yes,Mandarin,B,563,0,4,4,180.0,1.0,1.0,1206.29,1.0,562.0,17.0,1.16278,0.961808
Asian,15,Right,21,Female,Yes,Mandarin,B,564,0,16,0,180.0,1.0,1.0,913.885,1.0,563.0,17.0,1.16431,0.809339
Asian,15,Right,21,Female,Yes,Mandarin,B,565,1,4,0,0.0,0.0,1.0,700.066,1.0,564.0,17.0,1.11424,0.98075
Asian,15,Right,21,Female,Yes,Mandarin,B,566,0,4,16,0.0,0.0,1.0,665.204,1.0,565.0,17.0,1.07897,0.976629
Asian,15,Right,21,Female,Yes,Mandarin,B,567,0,4,8,0.0,0.0,1.0,792.882,1.0,566.0,17.0,1.17742,0.9345
Asian,15,Right,21,Female,Yes,Mandarin,B,568,0,8,0,0.0,0.0,1.0,727.2,1.0,567.0,17.0,1.05429,0.987192
Asian,15,Right,21,Female,Yes,Mandarin,B,569,0,0,16,180.0,1.0,1.0,679.365,1.0,568.0,17.0,1.17861,0.957578
Asian,15,Right,21,Female,Yes,Mandarin,B,570,1,0,0,0.0,0.0,1.0,654.042,1.0,569.0,17.0,1.11459,0.868829
Asian,15,Right,21,Female,Yes,Mandarin,B,571,0,4,0,180.0,1.0,1.0,788.569,1.0,570.0,17.0,1.00977,0.854021
Asian,15,Right,21,Female,Yes,Mandarin,B,572,0,0,4,180.0,1.0,1.0,621.209,1.0,571.0,17.0,1.01293,0.971353
Asian,15,Right,21,Female,Yes,Mandarin,B,573,1,16,8,180.0,1.0,1.0,739.038,1.0,572.0,17.0,1.08232,0.872457
Asian,15,Right,21,Female,Yes,Mandarin,B,574,0,16,8,0.0,0.0,1.0,797.161,1.0,573.0,17.0,1.14547,0.940823
Asian,15,Right,21,Female,Yes,Mandarin,B,575,1,4,16,0.0,0.0,1.0,667.699,1.0,574.0,17.0,1.19531,0.905199
Asian,15,Right,21,Female,Yes,Mandarin,B,576,0,8,16,0.0,0.0,1.0,655.289,1.0,575.0,17.0,1.10558,0.839428
Asian,15,Right,21,Female,Yes,Mandarin,B,577,0,16,4,180.0,9999.0,0.0,9999.0,1.0,576.0,18.0,1.06483,0.98285
Asian,15,Right,21,Female,Yes,Mandarin,B,578,0,0,8,0.0,0.0,1.0,781.834,1.0,577.0,18.0,1.01233,0.837705
Asian,15,Right,21,Female,Yes,Mandarin,B,579,0,16,8,0.0,0.0,1.0,661.594,1.0,578.0,18.0,1.08803,0.969183
Asian,15,Right,21,Female,Yes,Mandarin,B,580,1,4,4,0.0,0.0,1.0,674.665,1.0,579.0,18.0,1.18227,0.84398
Asian,15,Right,21,Female,Yes,Mandarin,B,581,0,16,16,0.0,0.0,1.0,593.84,1.0,580.0,18.0,1.14482,0.873366
Asian,15,Right,21,Female,Yes,Mandarin,B,582,1,16,16,0.0,0.0,1.0,727.975,1.0,581.0,18.0,1.15956,0.946691
Asian,15,Right,21,Female,Yes,Mandarin,B,583,0,8,4,180.0,1.0,1.0,802.265,1.0,582.0,18.0,1.00718,0.91406
Asian,15,Right,21,Female,Yes,Mandarin,B,584,0,8,0,180.0,0.0,0.0,858.301,1.0,583.0,18.0,1.08988,0.883458
Asian,15,Right,21,Female,Yes,Mandarin,B,585,1,0,8,180.0,1.0,1.0,737.255,1.0,584.0,18.0,1.18423,0.945891
Asian,15,Right,21,Female,Yes,Mandarin,B,586,0,4,8,180.0,1.0,1.0,626.903,1.0,585.0,18.0,1.17652,0.963599
Asian,15,Right,21,Female,Yes,Mandarin,B,587,1,0,0,0.0,0.0,1.0,597.803,1.0,586.0,18.0,1.11937,0.928981
Asian,15,Right,21,Female,Yes,Mandarin,B,588,0,4,4,180.0,1.0,1.0,732.191,1.0,587.0,18.0,1.01696,0.838587
Asian,15,Right,21,Female,Yes,Mandarin,B,589,1,8,0,180.0,1.0,1.0,663.464,1.0,588.0,18.0,1.15692,0.907007
Asian,15,Right,21,Female,Yes,Mandarin,B,590,1,0,4,0.0,0.0,1.0,611.315,1.0,589.0,18.0,1.12238,0.922107
Asian,15,Right,21,Female,Yes,Mandarin,B,591,0,0,4,180.0,1.0,1.0,662.571,1.0,590.0,18.0,1.09119,0.919272
Asian,15,Right,21,Female,Yes,Mandarin,B,592,1,8,4,0.0,0.0,1.0,751.637,1.0,591.0,18.0,1.19654,0.843516
Asian,15,Right,21,Female,Yes,Mandarin,B,593,0,0,0,180.0,1.0,1.0,637.679,1.0,592.0,18.0,1.13056,0.898678
Asian,15,Right,21,Female,Yes,Mandarin,B,594,1,8,8,180.0,1.0,1.0,631.392,1.0,593.0,18.0,1.00324,0.896008
Asian,15,Right,21,Female,Yes,Mandarin,B,595,0,4,16,0.0,0.0,1.0,754.652,1.0,594.0,18.0,1.02843,0.953397
Asian,15,Right,21,Female,Yes,Mandarin,B,596,0,8,8,180.0,1.0,1.0,635.676,1.0,595.0,18.0,1.16294,0.806228
Asian,15,Right,21,Female,Yes,Mandarin,B,597,1,0,16,0.0,0.0,1.0,655.31,1.0,596.0,18.0,1.18531,0.813365
Asian,15,Right,21,Female,Yes,Mandarin,B,598,1,8,16,180.0,1.0,1.0,735.175,1.0,597.0,18.0,1.16047,0.882207
Asian,15,Right,21,Female,Yes,Mandarin,B,599,1,16,8,0.0,0.0,1.0,1148.64,1.0,598.0,18.0,1.11245,0.802397
Asian,15,Right,21,Female,Yes,Mandarin,B,600,0,4,0,180.0,1.0,1.0,610.088,1.0,599.0,18.0,1.08364,0.813959
Asian,15,Right,21,Female,Yes,Mandarin,B,601,0,0,16,0.0,0.0,1.0,663.551,1.0,600.0,18.0,1.10763,0.958334
Asian,15,Right,21,Female,Yes,Mandarin,B,602,1,4,16,180.0,1.0,1.0,615.924,1.0,601.0,18.0,1.11215,0.972479
Asian,15,Right,21,Female,Yes,Mandarin,B,603,0,16,0,0.0,0.0,1.0,852.774,1.0,602.0,18.0,1.08079,0.851358
Asian,15,Right,21,Female,Yes,Mandarin,B,604,1,16,0,0.0,0.0,1.0,1054.43,1.0,603.0,18.0,1.09611,0.992909
Asian,15,Right,21,Female,Yes,Mandarin,B,605,1,4,8,0.0,0.0,1.0,856.753,1.0,604.0,18.0,1.13842,0.811876
Asian,15,Right,21,Female,Yes,Mandarin,B,606,1,16,4,180.0,1.0,1.0,683.313,1.0,605.0,18.0,1.08802,0.801881
Asian,15,Right,21,Female,Yes,Mandarin,B,607,1,4,0,180.0,1.0,1.0,932.302,1.0,606.0,18.0,1.11826,0.871657
Asian,15,Right,21,Female,Yes,Mandarin,B,608,0,8,16,0.0,0.0,1.0,610.174,1.0,607.0,18.0,1.00242,0.859912
Asian,15,Right,21,Female,Yes,Mandarin,B,609,0,4,4,180.0,1.0,1.0,953.7,1.0,608.0,19.0,1.04415,0.996376
Asian,15,Right,21,Female,Yes,Mandarin,B,610,1,4,8,180.0,1.0,1.0,1145.11,1.0,609.0,19.0,1.13647,0.909935
Asian,15,Right,21,Female,Yes,Mandarin,B,611,0,16,8,0.0,0.0,1.0,864.989,1.0,610.0,19.0,1.02512,0.880748
Asian,15,Right,21,Female,Yes,Mandarin,B,612,0,4,16,0.0,0.0,1.0,946.308,1.0,611.0,19.0,1.06645,0.898957
Asian,15,Right,21,Female,Yes,Mandarin,B,613,0,0,4,180.0,1.0,1.0,1156.46,1.0,612.0,19.0,1.01359,0.894502
Asian,15,Right,21,Female,Yes,Mandarin,B,614,1,8,8,180.0,1.0,1.0,875.122,1.0,613.0,19.0,1.00455,0.954935
Asian,15,Right,21,Female,Yes,Mandarin,B,615,0,8,4,180.0,1.0,1.0,1008.54,1.0,614.0,19.0,1.09676,0.830627
Asian,15,Right,21,Female,Yes,Mandarin,B,616,1,16,8,180.0,1.0,1.0,943.431,1.0,615.0,19.0,1.04056,0.810193
Asian,15,Right,21,Female,Yes,Mandarin,B,617,1,16,4,180.0,1.0,1.0,677.93,1.0,616.0,19.0,1.17919,0.859639
Asian,15,Right,21,Female,Yes,Mandarin,B,618,0,0,0,0.0,0.0,1.0,686.429,1.0,617.0,19.0,1.1809,0.858503
Asian,15,Right,21,Female,Yes,Mandarin,B,619,1,0,8,0.0,0.0,1.0,678.793,1.0,618.0,19.0,1.04563,0.998692
Asian,15,Right,21,Female,Yes,Mandarin,B,620,0,16,0,180.0,1.0,1.0,581.684,1.0,619.0,19.0,1.06637,0.862121
Asian,15,Right,21,Female,Yes,Mandarin,B,621,1,8,16,0.0,0.0,1.0,679.253,1.0,620.0,19.0,1.13165,0.915895
Asian,15,Right,21,Female,Yes,Mandarin,B,622,0,16,4,180.0,1.0,1.0,629.915,1.0,621.0,19.0,1.03158,0.89627
Asian,15,Right,21,Female,Yes,Mandarin,B,623,1,8,4,180.0,1.0,1.0,644.011,1.0,622.0,19.0,1.10845,0.986132
Asian,15,Right,21,Female,Yes,Mandarin,B,624,0,0,8,0.0,0.0,1.0,667.955,1.0,623.0,19.0,1.06156,0.942167
Asian,15,Right,21,Female,Yes,Mandarin,B,625,1,0,0,0.0,0.0,1.0,572.757,1.0,624.0,19.0,1.1847,0.847564
Asian,15,Right,21,Female,Yes,Mandarin,B,626,0,8,16,0.0,0.0,1.0,654.765,1.0,625.0,19.0,1.05694,0.878615
Asian,15,Right,21,Female,Yes,Mandarin,B,627,0,4,8,0.0,0.0,1.0,621.764,1.0,626.0,19.0,1.06861,0.988949
Asian,15,Right,21,Female,Yes,Mandarin,B,628,1,16,16,180.0,1.0,1.0,1158.94,1.0,627.0,19.0,1.1915,0.898862
Asian,15,Right,21,Female,Yes,Mandarin,B,629,0,8,8,180.0,1.0,1.0,716.371,1.0,628.0,19.0,1.19962,0.805822
Asian,15,Right,21,Female,Yes,Mandarin,B,630,0,16,16,180.0,1.0,1.0,808.025,1.0,629.0,19.0,1.06063,0.833285
Asian,15,Right,21,Female,Yes,Mandarin,B,631,1,4,16,180.0,1.0,1.0,579.788,1.0,630.0,19.0,1.18821,0.890844
Asian,15,Right,21,Female,Yes,Mandarin,B,632,0,4,0,0.0,0.0,1.0,729.988,1.0,631.0,19.0,1.00888,0.836337
Asian,15,Right,21,Female,Yes,Mandarin,B,633,0,8,0,0.0,0.0,1.0,900.514,1.0,632.0,19.0,1.09588,0.97694
Asian,15,Right,21,Female,Yes,Mandarin,B,634,1,8,0,0.0,0.0,1.0,670.55,1.0,633.0,19.0,1.14023,0.842765
Asian,15,Right,21,Female,Yes,Mandarin,B,635,1,4,0,180.0,1.0,1.0,625.77,1.0,634.0,19.0,1.09005,0.838238
Asian,15,Right,21,Female,Yes,Mandarin,B,636,1,0,4,180.0,1.0,1.0,645.928,1.0,635.0,19.0,1.03125,0.833807
Asian,15,Right,21,Female,Yes,Mandarin,B,637,1,0,16,0.0,0.0,1.0,665.579,1.0,636.0,19.0,1.17994,0.844819
Asian,15,Right,21,Female,Yes,Mandarin,B,638,1,4,4,0.0,0.0,1.0,937.542,1.0,637.0,19.0,1.04104,0.847126
Asian,15,Right,21,Female,Yes,Mandarin,B,639,0,0,16,0.0,0.0,1.0,610.85,1.0,638.0,19.0,1.19443,0.988742
Asian,15,Right,21,Female,Yes,Mandarin,B,640,1,16,0,0.0,0.0,1.0,822.324,1.0,639.0,19.0,1.12322,0.896558
Asian,15,Right,21,Female,Yes,Mandarin,B,641,0,16,0,0.0,0.0,1.0,792.762,1.0,640.0,20.0,1.13985,0.955344
Asian,15,Right,21,Female,Yes,Mandarin,B,642,0,0,0,180.0,1.0,1.0,620.321,1.0,641.0,20.0,1.09091,0.85522
Asian,15,Right,21,Female,Yes,Mandarin,B,643,0,4,8,180.0,1.0,1.0,764.986,1.0,642.0,20.0,1.08751,0.873401
Asian,15,Right,21,Female,Yes,Mandarin,B,644,1,16,0,0.0,0.0,1.0,771.717,1.0,643.0,20.0,1.11396,0.972178
Asian,15,Right,21,Female,Yes,Mandarin,B,645,1,0,16,180.0,1.0,1.0,653.158,1.0,644.0,20.0,1.16581,0.982732
Asian,15,Right,21,Female,Yes,Mandarin,B,646,1,4,8,180.0,1.0,1.0,707.774,1.0,645.0,20.0,1.07647,0.802972
Asian,15,Right,21,Female,Yes,Mandarin,B,647,1,0,0,0.0,0.0,1.0,644.445,1.0,646.0,20.0,1.03738,0.940467
Asian,15,Right,21,Female,Yes,Mandarin,B,648,1,0,4,180.0,1.0,1.0,621.884,1.0,647.0,20.0,1.1476,0.980343
Asian,15,Right,21,Female,Yes,Mandarin,B,649,0,4,4,0.0,0.0,1.0,742.067,1.0,648.0,20.0,1.01188,0.927177
Asian,15,Right,21,Female,Yes,Mandarin,B,650,1,8,0,180.0,1.0,1.0,536.636,1.0,649.0,20.0,1.07075,0.961112
Asian,15,Right,21,Female,Yes,Mandarin,B,651,1,4,0,0.0,0.0,1.0,552.14,1.0,650.0,20.0,1.04351,0.90672
Asian,15,Right,21,Female,Yes,Mandarin,B,652,1,4,4,0.0,0.0,1.0,655.609,1.0,651.0,20.0,1.02331,0.965669
Asian,15,Right,21,Female,Yes,Mandarin,B,653,0,0,4,0.0,0.0,1.0,728.97,1.0,652.0,20.0,1.02902,0.840724
Asian,15,Right,21,Female,Yes,Mandarin,B,654,0,16,16,180.0,1.0,1.0,624.919,1.0,653.0,20.0,1.02305,0.862762
Asian,15,Right,21,Female,Yes,Mandarin,B,655,1,16,4,180.0,1.0,1.0,590.631,1.0,654.0,20.0,1.15879,0.851661
Asian,15,Right,21,Female,Yes,Mandarin,B,656,0,4,16,0.0,0.0,1.0,547.715,1.0,655.0,20.0,1.17185,0.824575
Asian,15,Right,21,Female,Yes,Mandarin,B,657,1,8,4,0.0,0.0,1.0,720.099,1.0,656.0,20.0,1.1372,0.897415
Asian,15,Right,21,Female,Yes,Mandarin,B,658,0,16,8,0.0,0.0,1.0,562.473,1.0,657.0,20.0,1.17849,0.992452
Asian,15,Right,21,Female,Yes,Mandarin,B,659,0,8,8,0.0,0.0,1.0,772.742,1.0,658.0,20.0,1.18629,0.900159
Asian,15,Right,21,Female,Yes,Mandarin,B,660,0,0,8,180.0,1.0,1.0,731.826,1.0,659.0,20.0,1.16458,0.843607
Asian,15,Right,21,Female,Yes,Mandarin,B,661,1,16,8,180.0,1.0,1.0,1086.64,1.0,660.0,20.0,1.18543,0.82023
Asian,15,Right,21,Female,Yes,Mandarin,B,662,0,4,0,180.0,1.0,1.0,724.157,1.0,661.0,20.0,1.19598,0.949602
Asian,15,Right,21,Female,Yes,Mandarin,B,663,0,8,4,0.0,0.0,1.0,624.128,1.0,662.0,20.0,1.14531,0.815992
Asian,15,Right,21,Female,Yes,Mandarin,B,664,1,16,16,0.0,0.0,1.0,1175.58,1.0,663.0,20.0,1.15577,0.875012
Asian,15,Right,21,Female,Yes,Mandarin,B,665,1,4,16,0.0,0.0,1.0,935.374,1.0,664.0,20.0,1.10499,0.871468
Asian,15,Right,21,Female,Yes,Mandarin,B,666,0,8,0,180.0,1.0,1.0,634.517,1.0,665.0,20.0,1.09447,0.902586
Asian,15,Right,21,Female,Yes,Mandarin,B,667,1,0,8,0.0,0.0,1.0,650.638,1.0,666.0,20.0,1.0475,0.809896
Asian,15,Right,21,Female,Yes,Mandarin,B,668,1,8,16,180.0,1.0,1.0,956.243,1.0,667.0,20.0,1.09441,0.848241
Asian,15,Right,21,Female,Yes,Mandarin,B,669,0,8,16,180.0,1.0,1.0,648.704,1.0,668.0,20.0,1.03494,0.885913
Asian,15,Right,21,Female,Yes,Mandarin,B,670,1,8,8,180.0,1.0,1.0,589.222,1.0,669.0,20.0,1.12558,0.879853
Asian,15,Right,21,Female,Yes,Mandarin,B,671,0,0,16,180.0,1.0,1.0,754.848,1.0,670.0,20.0,1.15344,0.804513
Asian,15,Right,21,Female,Yes,Mandarin,B,672,0,16,4,0.0,0.0,1.0,944.455,1.0,671.0,20.0,1.08997,0.837317
Asian,15,Right,21,Female,Yes,Mandarin,B,673,0,16,4,180.0,1.0,1.0,1851.86,1.0,672.0,21.0,1.13043,0.911125
Asian,15,Right,21,Female,Yes,Mandarin,B,674,1,4,0,180.0,1.0,1.0,718.597,1.0,673.0,21.0,1.07753,0.89041
Asian,15,Right,21,Female,Yes,Mandarin,B,675,1,8,4,0.0,0.0,1.0,690.066,1.0,674.0,21.0,1.07343,0.865067
Asian,15,Right,21,Female,Yes,Mandarin,B,676,0,8,8,0.0,0.0,1.0,601.0,1.0,675.0,21.0,1.05675,0.972145
Asian,15,Right,21,Female,Yes,Mandarin,B,677,1,16,16,180.0,1.0,1.0,651.542,1.0,676.0,21.0,1.0368,0.890197
Asian,15,Right,21,Female,Yes,Mandarin,B,678,1,16,4,0.0,0.0,1.0,718.454,1.0,677.0,21.0,1.09768,0.829965
Asian,15,Right,21,Female,Yes,Mandarin,B,679,1,0,8,0.0,0.0,1.0,556.885,1.0,678.0,21.0,1.08692,0.888174
Asian,15,Right,21,Female,Yes,Mandarin,B,680,1,4,16,0.0,0.0,1.0,662.403,1.0,679.0,21.0,1.0376,0.855537
Asian,15,Right,21,Female,Yes,Mandarin,B,681,0,8,0,0.0,0.0,1.0,703.418,1.0,680.0,21.0,1.00123,0.888218
Asian,15,Right,21,Female,Yes,Mandarin,B,682,0,0,0,180.0,1.0,1.0,676.96,1.0,681.0,21.0,1.07332,0.906655
Asian,15,Right,21,Female,Yes,Mandarin,B,683,1,4,4,0.0,0.0,1.0,581.909,1.0,682.0,21.0,1.11676,0.98955
Asian,15,Right,21,Female,Yes,Mandarin,B,684,0,16,8,0.0,0.0,1.0,671.487,1.0,683.0,21.0,1.17466,0.998745
Asian,15,Right,21,Female,Yes,Mandarin,B,685,0,16,16,180.0,0.0,0.0,678.115,1.0,684.0,21.0,1.17488,0.864678
Asian,15,Right,21,Female,Yes,Mandarin,B,686,0,0,8,180.0,1.0,1.0,653.289,1.0,685.0,21.0,1.17603,0.903472
Asian,15,Right,21,Female,Yes,Mandarin,B,687,0,0,4,0.0,0.0,1.0,662.81,1.0,686.0,21.0,1.09432,0.838768
Asian,15,Right,21,Female,Yes,Mandarin,B,688,1,8,16,0.0,0.0,1.0,933.585,1.0,687.0,21.0,1.11915,0.84798
Asian,15,Right,21,Female,Yes,Mandarin,B,689,0,8,16,0.0,0.0,1.0,698.442,1.0,688.0,21.0,1.13848,0.819795
Asian,15,Right,21,Female,Yes,Mandarin,B,690,1,16,0,180.0,1.0,1.0,948.764,1.0,689.0,21.0,1.07314,0.819811
Asian,15,Right,21,Female,Yes,Mandarin,B,691,0,4,0,180.0,1.0,1.0,616.229,1.0,690.0,21.0,1.0737,0.846584
Asian,15,Right,21,Female,Yes,Mandarin,B,692,0,4,4,0.0,0.0,1.0,686.9,1.0,691.0,21.0,1.06902,0.831543
Asian,15,Right,21,Female,Yes,Mandarin,B,693,1,0,16,0.0,0.0,1.0,710.51,1.0,692.0,21.0,1.05949,0.815961
Asian,15,Right,21,Female,Yes,Mandarin,B,694,1,8,0,0.0,0.0,1.0,631.011,1.0,693.0,21.0,1.19313,0.889053
Asian,15,Right,21,Female,Yes,Mandarin,B,695,1,8,8,180.0,1.0,1.0,581.532,1.0,694.0,21.0,1.16415,0.847428
Asian,15,Right,21,Female,Yes,Mandarin,B,696,0,4,8,180.0,1.0,1.0,685.163,1.0,695.0,21.0,1.02702,0.975548
Asian,15,Right,21,Female,Yes,Mandarin,B,697,0,0,16,0.0,0.0,1.0,647.297,1.0,696.0,21.0,1.01757,0.833661
Asian,15,Right,21,Female,Yes,Mandarin,B,698,1,4,8,180.0,1.0,1.0,698.118,1.0,697.0,21.0,1.04136,0.866252
Asian,15,Right,21,Female,Yes,Mandarin,B,699,1,16,8,180.0,1.0,1.0,726.882,1.0,698.0,21.0,1.19929,0.918318
Asian,15,Right,21,Female,Yes,Mandarin,B,700,1,0,4,180.0,1.0,1.0,711.156,1.0,699.0,21.0,1.00174,0.867349
Asian,15,Right,21,Female,Yes,Mandarin,B,701,0,16,0,180.0,1.0,1.0,749.862,1.0,700.0,21.0,1.1462,0.85898
Asian,15,Right,21,Female,Yes,Mandarin,B,702,0,4,16,180.0,1.0,1.0,669.648,1.0,701.0,21.0,1.1822,0.878204
Asian,15,Right,21,Female,Yes,Mandarin,B,703,0,8,4,0.0,0.0,1.0,674.946,1.0,702.0,21.0,1.02318,0.802687
Asian,15,Right,21,Female,Yes,Mandarin,B,704,1,0,0,180.0,1.0,1.0,806.514,1.0,703.0,21.0,1.18199,0.87629
Asian,15,Right,21,Female,Yes,Mandarin,B,705,0,8,4,0.0,0.0,1.0,696.121,1.0,704.0,22.0,1.09848,0.991946
Asian,15,Right,21,Female,Yes,Mandarin,B,706,0,4,8,180.0,1.0,1.0,892.615,1.0,705.0,22.0,1.19246,0.817976
Asian,15,Right,21,Female,Yes,Mandarin,B,707,0,16,8,180.0,1.0,1.0,781.501,1.0,706.0,22.0,1.16944,0.828796
Asian,15,Right,21,Female,Yes,Mandarin,B,708,1,4,4,0.0,0.0,1.0,613.406,1.0,707.0,22.0,1.06494,0.981212
Asian,15,Right,21,Female,Yes,Mandarin,B,709,1,4,0,0.0,0.0,1.0,660.256,1.0,708.0,22.0,1.02545,0.901607
Asian,15,Right,21,Female,Yes,Mandarin,B,710,1,16,8,180.0,1.0,1.0,731.952,1.0,709.0,22.0,1.17217,0.96763
Asian,15,Right,21,Female,Yes,Mandarin,B,711,0,0,4,180.0,1.0,1.0,568.584,1.0,710.0,22.0,1.11852,0.872631
Asian,15,Right,21,Female,Yes,Mandarin,B,712,0,8,8,180.0,1.0,1.0,587.153,1.0,711.0,22.0,1.17019,0.878372
Asian,15,Right,21,Female,Yes,Mandarin,B,713,1,8,4,180.0,1.0,1.0,585.833,1.0,712.0,22.0,1.04091,0.812736
Asian,15,Right,21,Female,Yes,Mandarin,B,714,1,8,8,0.0,0.0,1.0,966.831,1.0,713.0,22.0,1.05106,0.959583
Asian,15,Right,21,Female,Yes,Mandarin,B,715,1,0,0,180.0,1.0,1.0,589.075,1.0,714.0,22.0,1.15212,0.839267
Asian,15,Right,21,Female,Yes,Mandarin,B,716,0,8,16,0.0,0.0,1.0,1149.45,1.0,715.0,22.0,1.02137,0.994583
Asian,15,Right,21,Female,Yes,Mandarin,B,717,0,4,0,180.0,1.0,1.0,770.558,1.0,716.0,22.0,1.1425,0.994573
Asian,15,Right,21,Female,Yes,Mandarin,B,718,0,16,16,0.0,0.0,1.0,665.642,1.0,717.0,22.0,1.02389,0.965204
Asian,15,Right,21,Female,Yes,Mandarin,B,719,0,16,0,180.0,1.0,1.0,977.978,1.0,718.0,22.0,1.10404,0.958223
Asian,15,Right,21,Female,Yes,Mandarin,B,720,1,0,16,0.0,0.0,1.0,587.007,1.0,719.0,22.0,1.03909,0.811159
Asian,15,Right,21,Female,Yes,Mandarin,B,721,0,0,8,0.0,0.0,1.0,680.978,1.0,720.0,22.0,1.10962,0.863859
Asian,15,Right,21,Female,Yes,Mandarin,B,722,0,8,0,180.0,1.0,1.0,661.066,1.0,721.0,22.0,1.11888,0.905039
Asian,15,Right,21,Female,Yes,Mandarin,B,723,0,0,16,0.0,0.0,1.0,661.359,1.0,722.0,22.0,1.16825,0.865183
Asian,15,Right,21,Female,Yes,Mandarin,B,724,1,0,8,0.0,0.0,1.0,817.108,1.0,723.0,22.0,1.09985,0.997432
Asian,15,Right,21,Female,Yes,Mandarin,B,725,1,16,0,180.0,1.0,1.0,875.352,1.0,724.0,22.0,1.05891,0.938259
Asian,15,Right,21,Female,Yes,Mandarin,B,726,1,8,0,0.0,0.0,1.0,567.303,1.0,725.0,22.0,1.08613,0.948662
Asian,15,Right,21,Female,Yes,Mandarin,B,727,1,0,4,180.0,1.0,1.0,690.809,1.0,726.0,22.0,1.00106,0.80954
Asian,15,Right,21,Female,Yes,Mandarin,B,728,1,16,4,0.0,0.0,1.0,1257.59,1.0,727.0,22.0,1.0309,0.91895
Asian,15,Right,21,Female,Yes,Mandarin,B,729,1,8,16,180.0,1.0,1.0,665.725,1.0,728.0,22.0,1.08864,0.987071
Asian,15,Right,21,Female,Yes,Mandarin,B,730,1,16,16,180.0,1.0,1.0,543.869,1.0,729.0,22.0,1.09246,0.927863
Asian,15,Right,21,Female,Yes,Mandarin,B,731,0,4,4,180.0,1.0,1.0,878.34,1.0,730.0,22.0,1.0886,0.879047
Asian,15,Right,21,Female,Yes,Mandarin,B,732,0,4,16,0.0,0.0,1.0,820.226,1.0,731.0,22.0,1.16066,0.807634
Asian,15,Right,21,Female,Yes,Mandarin,B,733,0,16,4,0.0,0.0,1.0,630.568,1.0,732.0,22.0,1.07284,0.972068
Asian,15,Right,21,Female,Yes,Mandarin,B,734,0,0,0,0.0,0.0,1.0,708.556,1.0,733.0,22.0,1.07851,0.946394
Asian,15,Right,21,Female,Yes,Mandarin,B,735,1,4,16,180.0,1.0,1.0,606.916,1.0,734.0,22.0,1.01446,0.811431
Asian,15,Right,21,Female,Yes,Mandarin,B,736,1,4,8,0.0,0.0,1.0,826.458,1.0,735.0,22.0,1.09717,0.945496
Asian,15,Right,21,Female,Yes,Mandarin,B,737,1,0,4,180.0,1.0,1.0,690.33,1.0,736.0,23.0,1.11861,0.85799
Asian,15,Right,21,Female,Yes,Mandarin,B,738,1,4,4,0.0,0.0,1.0,929.621,1.0,737.0,23.0,1.07634,0.997185
Asian,15,Right,21,Female,Yes,Mandarin,B,739,1,16,0,0.0,0.0,1.0,654.963,1.0,738.0,23.0,1.09976,0.848488
Asian,15,Right,21,Female,Yes,Mandarin,B,740,0,16,4,180.0,1.0,1.0,616.444,1.0,739.0,23.0,1.14842,0.850082
Asian,15,Right,21,Female,Yes,Mandarin,B,741,0,0,0,180.0,1.0,1.0,775.119,1.0,740.0,23.0,1.17018,0.876369
Asian,15,Right,21,Female,Yes,Mandarin,B,742,0,0,16,0.0,0.0,1.0,612.686,1.0,741.0,23.0,1.06378,0.910616
Asian,15,Right,21,Female,Yes,Mandarin,B,743,1,8,16,0.0,0.0,1.0,1026.08,1.0,742.0,23.0,1.10446,0.816708
Asian,15,Right,21,Female,Yes,Mandarin,B,744,1,8,0,180.0,1.0,1.0,908.902,1.0,743.0,23.0,1.15924,0.858125
Asian,15,Right,21,Female,Yes,Mandarin,B,745,0,0,4,180.0,1.0,1.0,774.593,1.0,744.0,23.0,1.09613,0.86493
Asian,15,Right,21,Female,Yes,Mandarin,B,746,0,16,0,0.0,0.0,1.0,697.161,1.0,745.0,23.0,1.05824,0.937115
Asian,15,Right,21,Female,Yes,Mandarin,B,747,0,8,16,0.0,0.0,1.0,721.443,1.0,746.0,23.0,1.07721,0.935696
Asian,15,Right,21,Female,Yes,Mandarin,B,748,1,0,16,0.0,0.0,1.0,792.137,1.0,747.0,23.0,1.1389,0.970298
Asian,15,Right,21,Female,Yes,Mandarin,B,749,0,16,8,180.0,1.0,1.0,803.645,1.0,748.0,23.0,1.14538,0.926752
Asian,15,Right,21,Female,Yes,Mandarin,B,750,1,8,4,180.0,1.0,1.0,598.778,1.0,749.0,23.0,1.17639,0.947121
Asian,15,Right,21,Female,Yes,Mandarin,B,751,1,4,8,0.0,0.0,1.0,700.11,1.0,750.0,23.0,1.00524,0.821343
Asian,15,Right,21,Female,Yes,Mandarin,B,752,1,16,8,0.0,0.0,1.0,647.339,1.0,751.0,23.0,1.06692,0.930577
Asian,15,Right,21,Female,Yes,Mandarin,B,753,0,4,4,0.0,0.0,1.0,714.392,1.0,752.0,23.0,1.18528,0.923011
Asian,15,Right,21,Female,Yes,Mandarin,B,754,1,16,16,0.0,0.0,1.0,795.868,1.0,753.0,23.0,1.01982,0.948868
Asian,15,Right,21,Female,Yes,Mandarin,B,755,1,0,8,180.0,1.0,1.0,717.312,1.0,754.0,23.0,1.07394,0.909454
Asian,15,Right,21,Female,Yes,Mandarin,B,756,1,4,16,180.0,0.0,0.0,512.708,1.0,755.0,23.0,1.15039,0.952033
Asian,15,Right,21,Female,Yes,Mandarin,B,757,0,4,16,0.0,0.0,1.0,802.894,1.0,756.0,23.0,1.02642,0.983332
Asian,15,Right,21,Female,Yes,Mandarin,B,758,0,4,0,180.0,1.0,1.0,732.176,1.0,757.0,23.0,1.11676,0.975511
Asian,15,Right,21,Female,Yes,Mandarin,B,759,1,16,4,180.0,1.0,1.0,631.8,1.0,758.0,23.0,1.16975,0.912379
Asian,15,Right,21,Female,Yes,Mandarin,B,760,1,4,0,180.0,1.0,1.0,723.539,1.0,759.0,23.0,1.14151,0.878631
Asian,15,Right,21,Female,Yes,Mandarin,B,761,0,8,4,180.0,1.0,1.0,630.766,1.0,760.0,23.0,1.10322,0.940856
Asian,15,Right,21,Female,Yes,Mandarin,B,762,1,0,0,0.0,1.0,0.0,611.745,1.0,761.0,23.0,1.1504,0.965735
Asian,15,Right,21,Female,Yes,Mandarin,B,763,0,0,8,0.0,0.0,1.0,511.858,1.0,762.0,23.0,1.13053,0.838123
Asian,15,Right,21,Female,Yes,Mandarin,B,764,0,8,0,0.0,0.0,1.0,693.999,1.0,763.0,23.0,1.1215,0.900067
Asian,15,Right,21,Female,Yes,Mandarin,B,765,0,16,16,180.0,1.0,1.0,925.514,1.0,764.0,23.0,1.16676,0.926222
Asian,15,Right,21,Female,Yes,Mandarin,B,766,0,4,8,0.0,0.0,1.0,691.466,1.0,765.0,23.0,1.15543,0.846294
Asian,15,Right,21,Female,Yes,Mandarin,B,767,1,8,8,180.0,1.0,1.0,887.625,1.0,766.0,23.0,1.09592,0.942542
Asian,15,Right,21,Female,Yes,Mandarin,B,768,0,8,8,180.0,1.0,1.0,617.47,1.0,767.0,23.0,1.11071,0.89936
