Ethnicity,Subject Number,Preferred Hand,Age,Gender,Color blind,First Language,Room,TrialNumber,background,turtles,tortoises,target_id,resp,hit,rt,ran,order,block,iti,fix_duration
Asian,16,Right,21,Female,Yes,Mandarin,D,1,1,4,16,0.0,0.0,1.0,1618.07,1.0,0.0,0.0,1.01013,0.872844
Asian,16,Right,21,Female,Yes,Mandarin,D,2,0,8,16,0.0,0.0,1.0,934.447,1.0,1.0,0.0,1.15813,0.872083
Asian,16,Right,21,Female,Yes,Mandarin,D,3,0,16,8,180.0,1.0,1.0,1121.86,1.0,2.0,0.0,1.18687,0.804475
Asian,16,Right,21,Female,Yes,Mandarin,D,4,1,4,0,0.0,0.0,1.0,1032.67,1.0,3.0,0.0,1.16278,0.820322
Asian,16,Right,21,Female,Yes,Mandarin,D,5,0,8,0,0.0,0.0,1.0,1163.05,1.0,4.0,0.0,1.13202,0.85813
Asian,16,Right,21,Female,Yes,Mandarin,D,6,1,16,16,180.0,1.0,1.0,2428.69,1.0,5.0,0.0,1.14298,0.944451
Asian,16,Right,21,Female,Yes,Mandarin,D,7,1,16,4,180.0,1.0,1.0,1308.15,1.0,6.0,0.0,1.13493,0.877887
Asian,16,Right,21,Female,Yes,Mandarin,D,8,1,16,8,0.0,0.0,1.0,1040.38,1.0,7.0,0.0,1.18232,0.931786
Asian,16,Right,21,Female,Yes,Mandarin,D,9,0,16,0,180.0,1.0,1.0,1370.81,1.0,8.0,0.0,1.17577,0.982434
Asian,16,Right,21,Female,Yes,Mandarin,D,10,0,4,8,0.0,0.0,1.0,1352.02,1.0,9.0,0.0,1.14465,0.940163
Asian,16,Right,21,Female,Yes,Mandarin,D,11,1,8,16,0.0,0.0,1.0,1357.3,1.0,10.0,0.0,1.03713,0.985956
Asian,16,Right,21,Female,Yes,Mandarin,D,12,0,0,16,180.0,1.0,1.0,915.369,1.0,11.0,0.0,1.15954,0.98893
Asian,16,Right,21,Female,Yes,Mandarin,D,13,0,16,4,180.0,1.0,1.0,930.764,1.0,12.0,0.0,1.00405,0.973941
Asian,16,Right,21,Female,Yes,Mandarin,D,14,1,16,0,0.0,0.0,1.0,1246.99,1.0,13.0,0.0,1.00275,0.850518
Asian,16,Right,21,Female,Yes,Mandarin,D,15,1,0,0,0.0,0.0,1.0,895.386,1.0,14.0,0.0,1.09816,0.999217
Asian,16,Right,21,Female,Yes,Mandarin,D,16,0,8,8,0.0,0.0,1.0,1303.31,1.0,15.0,0.0,1.19655,0.834212
Asian,16,Right,21,Female,Yes,Mandarin,D,17,1,0,8,0.0,0.0,1.0,944.932,1.0,16.0,0.0,1.04573,0.809009
Asian,16,Right,21,Female,Yes,Mandarin,D,18,0,0,0,0.0,0.0,1.0,912.339,1.0,17.0,0.0,1.06082,0.877741
Asian,16,Right,21,Female,Yes,Mandarin,D,19,0,4,16,180.0,1.0,1.0,913.14,1.0,18.0,0.0,1.0569,0.951402
Asian,16,Right,21,Female,Yes,Mandarin,D,20,1,0,16,180.0,1.0,1.0,698.521,1.0,19.0,0.0,1.13347,0.931094
Asian,16,Right,21,Female,Yes,Mandarin,D,21,1,8,8,0.0,0.0,1.0,1328.58,1.0,20.0,0.0,1.03545,0.902752
Asian,16,Right,21,Female,Yes,Mandarin,D,22,0,16,16,180.0,1.0,1.0,1168.97,1.0,21.0,0.0,1.14366,0.807251
Asian,16,Right,21,Female,Yes,Mandarin,D,23,0,4,0,180.0,1.0,1.0,1069.33,1.0,22.0,0.0,1.1276,0.83267
Asian,16,Right,21,Female,Yes,Mandarin,D,24,0,8,4,180.0,1.0,1.0,1093.06,1.0,23.0,0.0,1.11495,0.826708
Asian,16,Right,21,Female,Yes,Mandarin,D,25,1,4,4,180.0,1.0,1.0,764.038,1.0,24.0,0.0,1.09034,0.974634
Asian,16,Right,21,Female,Yes,Mandarin,D,26,1,8,0,0.0,0.0,1.0,1621.36,1.0,25.0,0.0,1.15873,0.897008
Asian,16,Right,21,Female,Yes,Mandarin,D,27,0,4,4,180.0,1.0,1.0,1198.28,1.0,26.0,0.0,1.14123,0.895416
Asian,16,Right,21,Female,Yes,Mandarin,D,28,1,4,8,180.0,1.0,1.0,1240.82,1.0,27.0,0.0,1.08843,0.958666
Asian,16,Right,21,Female,Yes,Mandarin,D,29,0,0,4,0.0,0.0,1.0,772.213,1.0,28.0,0.0,1.16045,0.930146
Asian,16,Right,21,Female,Yes,Mandarin,D,30,1,0,4,180.0,1.0,1.0,909.646,1.0,29.0,0.0,1.10064,0.931171
Asian,16,Right,21,Female,Yes,Mandarin,D,31,1,8,4,0.0,0.0,1.0,1303.92,1.0,30.0,0.0,1.01985,0.939767
Asian,16,Right,21,Female,Yes,Mandarin,D,32,0,0,8,180.0,1.0,1.0,1055.73,1.0,31.0,0.0,1.06093,0.800106
Asian,16,Right,21,Female,Yes,Mandarin,D,33,0,16,4,0.0,0.0,1.0,1151.43,1.0,32.0,1.0,1.0824,0.946677
Asian,16,Right,21,Female,Yes,Mandarin,D,34,0,4,16,180.0,1.0,1.0,833.866,1.0,33.0,1.0,1.18666,0.935333
Asian,16,Right,21,Female,Yes,Mandarin,D,35,0,4,8,0.0,0.0,1.0,820.419,1.0,34.0,1.0,1.18341,0.964668
Asian,16,Right,21,Female,Yes,Mandarin,D,36,1,16,0,0.0,0.0,1.0,900.117,1.0,35.0,1.0,1.19587,0.968564
Asian,16,Right,21,Female,Yes,Mandarin,D,37,1,4,16,180.0,1.0,1.0,1023.93,1.0,36.0,1.0,1.0715,0.878717
Asian,16,Right,21,Female,Yes,Mandarin,D,38,1,8,8,0.0,0.0,1.0,818.898,1.0,37.0,1.0,1.04453,0.872186
Asian,16,Right,21,Female,Yes,Mandarin,D,39,1,0,8,180.0,1.0,1.0,1216.68,1.0,38.0,1.0,1.06365,0.962684
Asian,16,Right,21,Female,Yes,Mandarin,D,40,0,8,0,180.0,1.0,1.0,1316.27,1.0,39.0,1.0,1.18156,0.937752
Asian,16,Right,21,Female,Yes,Mandarin,D,41,0,0,0,180.0,1.0,1.0,1012.54,1.0,40.0,1.0,1.11877,0.938325
Asian,16,Right,21,Female,Yes,Mandarin,D,42,1,8,16,0.0,0.0,1.0,935.047,1.0,41.0,1.0,1.04266,0.801779
Asian,16,Right,21,Female,Yes,Mandarin,D,43,0,0,4,0.0,0.0,1.0,824.892,1.0,42.0,1.0,1.08721,0.909991
Asian,16,Right,21,Female,Yes,Mandarin,D,44,1,4,0,180.0,1.0,1.0,813.042,1.0,43.0,1.0,1.07337,0.979599
Asian,16,Right,21,Female,Yes,Mandarin,D,45,0,8,4,0.0,0.0,1.0,968.947,1.0,44.0,1.0,1.11993,0.984756
Asian,16,Right,21,Female,Yes,Mandarin,D,46,1,0,16,0.0,0.0,1.0,933.971,1.0,45.0,1.0,1.10906,0.840272
Asian,16,Right,21,Female,Yes,Mandarin,D,47,1,16,16,0.0,0.0,1.0,921.534,1.0,46.0,1.0,1.16649,0.801728
Asian,16,Right,21,Female,Yes,Mandarin,D,48,1,4,4,180.0,1.0,1.0,819.274,1.0,47.0,1.0,1.11452,0.976902
Asian,16,Right,21,Female,Yes,Mandarin,D,49,1,8,0,180.0,1.0,1.0,1053.54,1.0,48.0,1.0,1.18224,0.871254
Asian,16,Right,21,Female,Yes,Mandarin,D,50,1,0,4,180.0,1.0,1.0,960.304,1.0,49.0,1.0,1.18994,0.895701
Asian,16,Right,21,Female,Yes,Mandarin,D,51,1,0,0,0.0,0.0,1.0,764.323,1.0,50.0,1.0,1.10647,0.945241
Asian,16,Right,21,Female,Yes,Mandarin,D,52,0,8,8,180.0,1.0,1.0,956.189,1.0,51.0,1.0,1.00253,0.839106
Asian,16,Right,21,Female,Yes,Mandarin,D,53,1,8,4,180.0,1.0,1.0,947.086,1.0,52.0,1.0,1.02497,0.814236
Asian,16,Right,21,Female,Yes,Mandarin,D,54,0,0,8,180.0,1.0,1.0,1124.06,1.0,53.0,1.0,1.03137,0.915227
Asian,16,Right,21,Female,Yes,Mandarin,D,55,0,4,0,0.0,0.0,1.0,996.637,1.0,54.0,1.0,1.12809,0.815793
Asian,16,Right,21,Female,Yes,Mandarin,D,56,0,4,4,0.0,0.0,1.0,977.692,1.0,55.0,1.0,1.14733,0.8072
Asian,16,Right,21,Female,Yes,Mandarin,D,57,1,16,8,0.0,0.0,1.0,1318.35,1.0,56.0,1.0,1.10036,0.925948
Asian,16,Right,21,Female,Yes,Mandarin,D,58,0,16,8,180.0,1.0,1.0,858.786,1.0,57.0,1.0,1.18629,0.811056
Asian,16,Right,21,Female,Yes,Mandarin,D,59,1,16,4,0.0,0.0,1.0,799.131,1.0,58.0,1.0,1.19837,0.943537
Asian,16,Right,21,Female,Yes,Mandarin,D,60,0,0,16,180.0,1.0,1.0,973.991,1.0,59.0,1.0,1.04687,0.823048
Asian,16,Right,21,Female,Yes,Mandarin,D,61,0,16,0,0.0,0.0,1.0,1257.51,1.0,60.0,1.0,1.07295,0.929219
Asian,16,Right,21,Female,Yes,Mandarin,D,62,0,8,16,180.0,1.0,1.0,877.538,1.0,61.0,1.0,1.10234,0.98418
Asian,16,Right,21,Female,Yes,Mandarin,D,63,0,16,16,0.0,0.0,1.0,921.33,1.0,62.0,1.0,1.14517,0.93405
Asian,16,Right,21,Female,Yes,Mandarin,D,64,1,4,8,180.0,1.0,1.0,1107.25,1.0,63.0,1.0,1.03768,0.913838
Asian,16,Right,21,Female,Yes,Mandarin,D,65,1,16,4,0.0,0.0,1.0,955.815,1.0,64.0,2.0,1.03822,0.854314
Asian,16,Right,21,Female,Yes,Mandarin,D,66,1,16,8,180.0,1.0,1.0,1025.87,1.0,65.0,2.0,1.06038,0.921487
Asian,16,Right,21,Female,Yes,Mandarin,D,67,0,16,4,0.0,0.0,1.0,1032.27,1.0,66.0,2.0,1.10613,0.960673
Asian,16,Right,21,Female,Yes,Mandarin,D,68,0,0,8,180.0,1.0,1.0,999.81,1.0,67.0,2.0,1.14492,0.874473
Asian,16,Right,21,Female,Yes,Mandarin,D,69,1,0,8,0.0,0.0,1.0,643.977,1.0,68.0,2.0,1.06608,0.949566
Asian,16,Right,21,Female,Yes,Mandarin,D,70,1,4,8,180.0,1.0,1.0,888.046,1.0,69.0,2.0,1.14044,0.977396
Asian,16,Right,21,Female,Yes,Mandarin,D,71,0,4,0,0.0,0.0,1.0,925.127,1.0,70.0,2.0,1.15035,0.817408
Asian,16,Right,21,Female,Yes,Mandarin,D,72,1,0,0,0.0,0.0,1.0,712.692,1.0,71.0,2.0,1.18363,0.902409
Asian,16,Right,21,Female,Yes,Mandarin,D,73,1,16,0,0.0,0.0,1.0,1109.27,1.0,72.0,2.0,1.17218,0.815022
Asian,16,Right,21,Female,Yes,Mandarin,D,74,1,8,0,180.0,1.0,1.0,670.733,1.0,73.0,2.0,1.02547,0.924982
Asian,16,Right,21,Female,Yes,Mandarin,D,75,0,16,0,0.0,0.0,1.0,755.641,1.0,74.0,2.0,1.08267,0.967751
Asian,16,Right,21,Female,Yes,Mandarin,D,76,0,0,4,180.0,1.0,1.0,834.813,1.0,75.0,2.0,1.02577,0.977247
Asian,16,Right,21,Female,Yes,Mandarin,D,77,1,4,4,0.0,0.0,1.0,875.749,1.0,76.0,2.0,1.04942,0.939111
Asian,16,Right,21,Female,Yes,Mandarin,D,78,0,4,4,180.0,1.0,1.0,1217.89,1.0,77.0,2.0,1.05507,0.958644
Asian,16,Right,21,Female,Yes,Mandarin,D,79,1,0,16,0.0,0.0,1.0,796.815,1.0,78.0,2.0,1.04062,0.811857
Asian,16,Right,21,Female,Yes,Mandarin,D,80,1,16,16,0.0,0.0,1.0,948.205,1.0,79.0,2.0,1.03441,0.910922
Asian,16,Right,21,Female,Yes,Mandarin,D,81,1,0,4,0.0,0.0,1.0,869.636,1.0,80.0,2.0,1.1753,0.917519
Asian,16,Right,21,Female,Yes,Mandarin,D,82,1,8,16,180.0,1.0,1.0,840.929,1.0,81.0,2.0,1.14162,0.886872
Asian,16,Right,21,Female,Yes,Mandarin,D,83,1,8,8,180.0,1.0,1.0,967.841,1.0,82.0,2.0,1.016,0.895256
Asian,16,Right,21,Female,Yes,Mandarin,D,84,0,16,16,0.0,0.0,1.0,1883.12,1.0,83.0,2.0,1.02837,0.852494
Asian,16,Right,21,Female,Yes,Mandarin,D,85,0,8,4,180.0,1.0,1.0,1038.82,1.0,84.0,2.0,1.17711,0.993362
Asian,16,Right,21,Female,Yes,Mandarin,D,86,0,8,0,180.0,1.0,1.0,1048.27,1.0,85.0,2.0,1.18516,0.983163
Asian,16,Right,21,Female,Yes,Mandarin,D,87,0,8,8,180.0,1.0,1.0,1262.14,1.0,86.0,2.0,1.18168,0.895535
Asian,16,Right,21,Female,Yes,Mandarin,D,88,0,8,16,180.0,1.0,1.0,925.726,1.0,87.0,2.0,1.06034,0.849561
Asian,16,Right,21,Female,Yes,Mandarin,D,89,0,0,16,180.0,1.0,1.0,678.672,1.0,88.0,2.0,1.11507,0.838691
Asian,16,Right,21,Female,Yes,Mandarin,D,90,0,0,0,180.0,1.0,1.0,738.914,1.0,89.0,2.0,1.07359,0.969316
Asian,16,Right,21,Female,Yes,Mandarin,D,91,0,4,16,0.0,0.0,1.0,981.349,1.0,90.0,2.0,1.00459,0.82555
Asian,16,Right,21,Female,Yes,Mandarin,D,92,0,4,8,0.0,0.0,1.0,1074.38,1.0,91.0,2.0,1.01493,0.80342
Asian,16,Right,21,Female,Yes,Mandarin,D,93,1,4,0,180.0,1.0,1.0,1057.39,1.0,92.0,2.0,1.02104,0.852272
Asian,16,Right,21,Female,Yes,Mandarin,D,94,1,8,4,180.0,1.0,1.0,979.744,1.0,93.0,2.0,1.0031,0.873426
Asian,16,Right,21,Female,Yes,Mandarin,D,95,0,16,8,0.0,0.0,1.0,1040.14,1.0,94.0,2.0,1.13343,0.913924
Asian,16,Right,21,Female,Yes,Mandarin,D,96,1,4,16,0.0,0.0,1.0,1201.42,1.0,95.0,2.0,1.01967,0.862857
Asian,16,Right,21,Female,Yes,Mandarin,D,97,1,16,16,180.0,1.0,1.0,891.376,1.0,96.0,3.0,1.14093,0.803731
Asian,16,Right,21,Female,Yes,Mandarin,D,98,0,4,16,0.0,0.0,1.0,1281.42,1.0,97.0,3.0,1.1313,0.893721
Asian,16,Right,21,Female,Yes,Mandarin,D,99,0,8,0,0.0,0.0,1.0,726.885,1.0,98.0,3.0,1.05763,0.986694
Asian,16,Right,21,Female,Yes,Mandarin,D,100,0,4,0,180.0,1.0,1.0,1112.05,1.0,99.0,3.0,1.16684,0.852979
Asian,16,Right,21,Female,Yes,Mandarin,D,101,1,8,8,0.0,0.0,1.0,1017.87,1.0,100.0,3.0,1.09357,0.845326
Asian,16,Right,21,Female,Yes,Mandarin,D,102,1,16,8,0.0,0.0,1.0,799.789,1.0,101.0,3.0,1.13928,0.951357
Asian,16,Right,21,Female,Yes,Mandarin,D,103,1,0,0,180.0,1.0,1.0,693.962,1.0,102.0,3.0,1.16115,0.861379
Asian,16,Right,21,Female,Yes,Mandarin,D,104,1,4,4,180.0,1.0,1.0,692.002,1.0,103.0,3.0,1.19479,0.824032
Asian,16,Right,21,Female,Yes,Mandarin,D,105,1,8,16,180.0,1.0,1.0,1572.7,1.0,104.0,3.0,1.00302,0.92764
Asian,16,Right,21,Female,Yes,Mandarin,D,106,0,8,4,0.0,0.0,1.0,716.711,1.0,105.0,3.0,1.05297,0.899503
Asian,16,Right,21,Female,Yes,Mandarin,D,107,0,0,0,0.0,0.0,1.0,1093.68,1.0,106.0,3.0,1.18135,0.811056
Asian,16,Right,21,Female,Yes,Mandarin,D,108,0,4,4,180.0,1.0,1.0,1255.25,1.0,107.0,3.0,1.14148,0.88347
Asian,16,Right,21,Female,Yes,Mandarin,D,109,1,4,8,180.0,1.0,1.0,693.654,1.0,108.0,3.0,1.0262,0.902001
Asian,16,Right,21,Female,Yes,Mandarin,D,110,0,16,0,0.0,0.0,1.0,862.126,1.0,109.0,3.0,1.17565,0.939037
Asian,16,Right,21,Female,Yes,Mandarin,D,111,1,16,4,180.0,1.0,1.0,672.871,1.0,110.0,3.0,1.09857,0.815735
Asian,16,Right,21,Female,Yes,Mandarin,D,112,1,0,16,180.0,1.0,1.0,883.125,1.0,111.0,3.0,1.05779,0.967283
Asian,16,Right,21,Female,Yes,Mandarin,D,113,0,16,8,0.0,0.0,1.0,816.536,1.0,112.0,3.0,1.15718,0.896329
Asian,16,Right,21,Female,Yes,Mandarin,D,114,1,0,4,0.0,0.0,1.0,936.617,1.0,113.0,3.0,1.11026,0.965086
Asian,16,Right,21,Female,Yes,Mandarin,D,115,0,8,8,0.0,0.0,1.0,1281.65,1.0,114.0,3.0,1.15396,0.941505
Asian,16,Right,21,Female,Yes,Mandarin,D,116,1,8,4,180.0,1.0,1.0,731.77,1.0,115.0,3.0,1.19472,0.85014
Asian,16,Right,21,Female,Yes,Mandarin,D,117,0,8,16,0.0,0.0,1.0,713.049,1.0,116.0,3.0,1.01156,0.959465
Asian,16,Right,21,Female,Yes,Mandarin,D,118,0,0,8,0.0,0.0,1.0,939.071,1.0,117.0,3.0,1.11121,0.855596
Asian,16,Right,21,Female,Yes,Mandarin,D,119,1,0,8,0.0,0.0,1.0,768.766,1.0,118.0,3.0,1.04003,0.816731
Asian,16,Right,21,Female,Yes,Mandarin,D,120,1,8,0,180.0,1.0,1.0,600.589,1.0,119.0,3.0,1.0742,0.919625
Asian,16,Right,21,Female,Yes,Mandarin,D,121,1,4,16,180.0,1.0,1.0,1078.08,1.0,120.0,3.0,1.07944,0.816418
Asian,16,Right,21,Female,Yes,Mandarin,D,122,0,0,16,180.0,1.0,1.0,771.935,1.0,121.0,3.0,1.06307,0.972527
Asian,16,Right,21,Female,Yes,Mandarin,D,123,0,16,4,180.0,1.0,1.0,1068.4,1.0,122.0,3.0,1.02372,0.966986
Asian,16,Right,21,Female,Yes,Mandarin,D,124,0,16,16,0.0,0.0,1.0,1102.51,1.0,123.0,3.0,1.06888,0.964356
Asian,16,Right,21,Female,Yes,Mandarin,D,125,0,0,4,180.0,1.0,1.0,666.056,1.0,124.0,3.0,1.18917,0.803311
Asian,16,Right,21,Female,Yes,Mandarin,D,126,1,16,0,0.0,0.0,1.0,894.695,1.0,125.0,3.0,1.13683,0.81031
Asian,16,Right,21,Female,Yes,Mandarin,D,127,0,4,8,0.0,0.0,1.0,1184.64,1.0,126.0,3.0,1.10871,0.994642
Asian,16,Right,21,Female,Yes,Mandarin,D,128,1,4,0,180.0,1.0,1.0,744.637,1.0,127.0,3.0,1.05631,0.89327
Asian,16,Right,21,Female,Yes,Mandarin,D,129,0,4,4,180.0,1.0,1.0,1055.74,1.0,128.0,4.0,1.0832,0.94297
Asian,16,Right,21,Female,Yes,Mandarin,D,130,1,0,16,0.0,0.0,1.0,566.606,1.0,129.0,4.0,1.02471,0.888779
Asian,16,Right,21,Female,Yes,Mandarin,D,131,1,4,0,180.0,1.0,1.0,882.975,1.0,130.0,4.0,1.10274,0.905527
Asian,16,Right,21,Female,Yes,Mandarin,D,132,1,4,16,0.0,0.0,1.0,814.311,1.0,131.0,4.0,1.04877,0.911091
Asian,16,Right,21,Female,Yes,Mandarin,D,133,0,0,16,0.0,0.0,1.0,1245.99,1.0,132.0,4.0,1.10734,0.999701
Asian,16,Right,21,Female,Yes,Mandarin,D,134,1,8,8,180.0,1.0,1.0,811.717,1.0,133.0,4.0,1.03679,0.804864
Asian,16,Right,21,Female,Yes,Mandarin,D,135,1,4,4,180.0,1.0,1.0,899.763,1.0,134.0,4.0,1.01087,0.878479
Asian,16,Right,21,Female,Yes,Mandarin,D,136,1,16,16,180.0,1.0,1.0,898.11,1.0,135.0,4.0,1.13721,0.932018
Asian,16,Right,21,Female,Yes,Mandarin,D,137,0,4,0,0.0,0.0,1.0,778.288,1.0,136.0,4.0,1.13038,0.855605
Asian,16,Right,21,Female,Yes,Mandarin,D,138,1,16,0,180.0,1.0,1.0,1116.19,1.0,137.0,4.0,1.09771,0.90966
Asian,16,Right,21,Female,Yes,Mandarin,D,139,1,4,8,180.0,1.0,1.0,823.658,1.0,138.0,4.0,1.07564,0.833432
Asian,16,Right,21,Female,Yes,Mandarin,D,140,0,4,8,0.0,0.0,1.0,1020.14,1.0,139.0,4.0,1.06833,0.85399
Asian,16,Right,21,Female,Yes,Mandarin,D,141,0,8,16,0.0,0.0,1.0,848.671,1.0,140.0,4.0,1.09126,0.969876
Asian,16,Right,21,Female,Yes,Mandarin,D,142,0,0,0,0.0,0.0,1.0,831.354,1.0,141.0,4.0,1.13752,0.827438
Asian,16,Right,21,Female,Yes,Mandarin,D,143,0,8,8,180.0,1.0,1.0,995.263,1.0,142.0,4.0,1.07852,0.918169
Asian,16,Right,21,Female,Yes,Mandarin,D,144,0,8,0,0.0,0.0,1.0,865.915,1.0,143.0,4.0,1.11984,0.947748
Asian,16,Right,21,Female,Yes,Mandarin,D,145,1,16,8,180.0,1.0,1.0,911.092,1.0,144.0,4.0,1.10798,0.990219
Asian,16,Right,21,Female,Yes,Mandarin,D,146,0,16,8,0.0,0.0,1.0,1025.84,1.0,145.0,4.0,1.02524,0.986429
Asian,16,Right,21,Female,Yes,Mandarin,D,147,0,16,16,180.0,1.0,1.0,1122.89,1.0,146.0,4.0,1.09722,0.912883
Asian,16,Right,21,Female,Yes,Mandarin,D,148,1,8,4,180.0,1.0,1.0,867.3,1.0,147.0,4.0,1.05773,0.985546
Asian,16,Right,21,Female,Yes,Mandarin,D,149,0,0,8,0.0,0.0,1.0,700.743,1.0,148.0,4.0,1.02033,0.990337
Asian,16,Right,21,Female,Yes,Mandarin,D,150,0,4,16,0.0,0.0,1.0,1362.44,1.0,149.0,4.0,1.12768,0.857978
Asian,16,Right,21,Female,Yes,Mandarin,D,151,1,0,0,180.0,1.0,1.0,827.017,1.0,150.0,4.0,1.17274,0.827816
Asian,16,Right,21,Female,Yes,Mandarin,D,152,0,0,4,180.0,1.0,1.0,1195.7,1.0,151.0,4.0,1.17645,0.877374
Asian,16,Right,21,Female,Yes,Mandarin,D,153,1,0,4,180.0,1.0,1.0,680.497,1.0,152.0,4.0,1.19734,0.956951
Asian,16,Right,21,Female,Yes,Mandarin,D,154,0,16,4,180.0,1.0,1.0,530.416,1.0,153.0,4.0,1.1925,0.812865
Asian,16,Right,21,Female,Yes,Mandarin,D,155,1,8,16,0.0,0.0,1.0,920.456,1.0,154.0,4.0,1.10895,0.929831
Asian,16,Right,21,Female,Yes,Mandarin,D,156,1,16,4,0.0,0.0,1.0,899.451,1.0,155.0,4.0,1.06836,0.948659
Asian,16,Right,21,Female,Yes,Mandarin,D,157,0,16,0,0.0,0.0,1.0,1029.17,1.0,156.0,4.0,1.03508,0.804328
Asian,16,Right,21,Female,Yes,Mandarin,D,158,1,8,0,180.0,1.0,1.0,1160.47,1.0,157.0,4.0,1.02454,0.980695
Asian,16,Right,21,Female,Yes,Mandarin,D,159,1,0,8,0.0,0.0,1.0,919.117,1.0,158.0,4.0,1.09623,0.83323
Asian,16,Right,21,Female,Yes,Mandarin,D,160,0,8,4,0.0,0.0,1.0,786.945,1.0,159.0,4.0,1.12034,0.810121
Asian,16,Right,21,Female,Yes,Mandarin,D,161,0,16,8,180.0,1.0,1.0,846.998,1.0,160.0,5.0,1.09382,0.903928
Asian,16,Right,21,Female,Yes,Mandarin,D,162,0,4,8,0.0,0.0,1.0,1201.48,1.0,161.0,5.0,1.03004,0.84698
Asian,16,Right,21,Female,Yes,Mandarin,D,163,1,8,0,0.0,0.0,1.0,775.599,1.0,162.0,5.0,1.14025,0.823865
Asian,16,Right,21,Female,Yes,Mandarin,D,164,0,0,4,180.0,1.0,1.0,699.057,1.0,163.0,5.0,1.18427,0.879928
Asian,16,Right,21,Female,Yes,Mandarin,D,165,0,0,16,180.0,1.0,1.0,529.055,1.0,164.0,5.0,1.1127,0.953405
Asian,16,Right,21,Female,Yes,Mandarin,D,166,1,0,0,180.0,1.0,1.0,1037.46,1.0,165.0,5.0,1.09961,0.815377
Asian,16,Right,21,Female,Yes,Mandarin,D,167,1,8,4,0.0,0.0,1.0,939.865,1.0,166.0,5.0,1.08889,0.863737
Asian,16,Right,21,Female,Yes,Mandarin,D,168,0,8,8,0.0,0.0,1.0,1280.14,1.0,167.0,5.0,1.06718,0.811001
Asian,16,Right,21,Female,Yes,Mandarin,D,169,0,16,0,180.0,1.0,1.0,965.596,1.0,168.0,5.0,1.03663,0.806543
Asian,16,Right,21,Female,Yes,Mandarin,D,170,1,16,8,0.0,0.0,1.0,943.036,1.0,169.0,5.0,1.01142,0.979054
Asian,16,Right,21,Female,Yes,Mandarin,D,171,1,16,4,180.0,1.0,1.0,642.403,1.0,170.0,5.0,1.17705,0.937964
Asian,16,Right,21,Female,Yes,Mandarin,D,172,1,4,4,0.0,0.0,1.0,1981.32,1.0,171.0,5.0,1.02541,0.861504
Asian,16,Right,21,Female,Yes,Mandarin,D,173,1,16,0,180.0,1.0,1.0,962.982,1.0,172.0,5.0,1.10692,0.80748
Asian,16,Right,21,Female,Yes,Mandarin,D,174,0,0,0,0.0,0.0,1.0,711.137,1.0,173.0,5.0,1.18798,0.915612
Asian,16,Right,21,Female,Yes,Mandarin,D,175,1,4,0,0.0,0.0,1.0,787.987,1.0,174.0,5.0,1.19111,0.87297
Asian,16,Right,21,Female,Yes,Mandarin,D,176,0,4,0,180.0,1.0,1.0,838.74,1.0,175.0,5.0,1.06871,0.988985
Asian,16,Right,21,Female,Yes,Mandarin,D,177,1,0,4,180.0,1.0,1.0,754.102,1.0,176.0,5.0,1.00875,0.804678
Asian,16,Right,21,Female,Yes,Mandarin,D,178,0,8,16,0.0,0.0,1.0,1030.68,1.0,177.0,5.0,1.14237,0.932006
Asian,16,Right,21,Female,Yes,Mandarin,D,179,1,16,16,0.0,0.0,1.0,924.102,1.0,178.0,5.0,1.09524,0.869937
Asian,16,Right,21,Female,Yes,Mandarin,D,180,0,4,4,0.0,0.0,1.0,1022.15,1.0,179.0,5.0,1.01142,0.854146
Asian,16,Right,21,Female,Yes,Mandarin,D,181,0,8,0,0.0,0.0,1.0,1783.2,1.0,180.0,5.0,1.01428,0.988215
Asian,16,Right,21,Female,Yes,Mandarin,D,182,1,4,8,180.0,1.0,1.0,1655.16,1.0,181.0,5.0,1.04599,0.920827
Asian,16,Right,21,Female,Yes,Mandarin,D,183,1,0,8,180.0,1.0,1.0,743.001,1.0,182.0,5.0,1.16375,0.90171
Asian,16,Right,21,Female,Yes,Mandarin,D,184,0,0,8,180.0,1.0,1.0,892.5,1.0,183.0,5.0,1.06912,0.841037
Asian,16,Right,21,Female,Yes,Mandarin,D,185,0,4,16,0.0,0.0,1.0,852.216,1.0,184.0,5.0,1.14639,0.939373
Asian,16,Right,21,Female,Yes,Mandarin,D,186,0,8,4,180.0,1.0,1.0,826.801,1.0,185.0,5.0,1.08375,0.823095
Asian,16,Right,21,Female,Yes,Mandarin,D,187,0,16,4,0.0,0.0,1.0,1341.69,1.0,186.0,5.0,1.1894,0.999141
Asian,16,Right,21,Female,Yes,Mandarin,D,188,1,8,16,0.0,0.0,1.0,1656.84,1.0,187.0,5.0,1.09445,0.83507
Asian,16,Right,21,Female,Yes,Mandarin,D,189,1,4,16,0.0,0.0,1.0,985.0,1.0,188.0,5.0,1.12413,0.921748
Asian,16,Right,21,Female,Yes,Mandarin,D,190,0,16,16,180.0,1.0,1.0,1082.15,1.0,189.0,5.0,1.048,0.870711
Asian,16,Right,21,Female,Yes,Mandarin,D,191,1,0,16,180.0,1.0,1.0,763.453,1.0,190.0,5.0,1.13562,0.953228
Asian,16,Right,21,Female,Yes,Mandarin,D,192,1,8,8,180.0,1.0,1.0,622.462,1.0,191.0,5.0,1.18116,0.986637
Asian,16,Right,21,Female,Yes,Mandarin,D,193,1,0,4,180.0,1.0,1.0,803.454,1.0,192.0,6.0,1.06885,0.891161
Asian,16,Right,21,Female,Yes,Mandarin,D,194,1,16,4,0.0,0.0,1.0,964.256,1.0,193.0,6.0,1.19279,0.852236
Asian,16,Right,21,Female,Yes,Mandarin,D,195,0,16,8,0.0,0.0,1.0,1094.93,1.0,194.0,6.0,1.18713,0.83999
Asian,16,Right,21,Female,Yes,Mandarin,D,196,0,4,16,0.0,1.0,0.0,1338.67,1.0,195.0,6.0,1.02735,0.928597
Asian,16,Right,21,Female,Yes,Mandarin,D,197,1,4,8,0.0,0.0,1.0,898.572,1.0,196.0,6.0,1.07439,0.953196
Asian,16,Right,21,Female,Yes,Mandarin,D,198,0,4,8,180.0,1.0,1.0,1317.61,1.0,197.0,6.0,1.13363,0.867908
Asian,16,Right,21,Female,Yes,Mandarin,D,199,1,0,16,180.0,1.0,1.0,1038.28,1.0,198.0,6.0,1.1131,0.858843
Asian,16,Right,21,Female,Yes,Mandarin,D,200,0,8,4,0.0,0.0,1.0,789.025,1.0,199.0,6.0,1.10459,0.820063
Asian,16,Right,21,Female,Yes,Mandarin,D,201,0,16,0,180.0,1.0,1.0,1022.98,1.0,200.0,6.0,1.01888,0.923161
Asian,16,Right,21,Female,Yes,Mandarin,D,202,1,0,0,0.0,0.0,1.0,666.933,1.0,201.0,6.0,1.12678,0.939954
Asian,16,Right,21,Female,Yes,Mandarin,D,203,1,16,0,180.0,1.0,1.0,960.676,1.0,202.0,6.0,1.14143,0.981401
Asian,16,Right,21,Female,Yes,Mandarin,D,204,0,0,8,180.0,1.0,1.0,839.562,1.0,203.0,6.0,1.00745,0.875548
Asian,16,Right,21,Female,Yes,Mandarin,D,205,1,8,16,180.0,1.0,1.0,673.9,1.0,204.0,6.0,1.12736,0.995105
Asian,16,Right,21,Female,Yes,Mandarin,D,206,1,8,4,0.0,0.0,1.0,984.22,1.0,205.0,6.0,1.10313,0.954248
Asian,16,Right,21,Female,Yes,Mandarin,D,207,0,16,4,180.0,1.0,1.0,1296.28,1.0,206.0,6.0,1.06159,0.80446
Asian,16,Right,21,Female,Yes,Mandarin,D,208,0,16,16,0.0,0.0,1.0,966.064,1.0,207.0,6.0,1.1411,0.9914
Asian,16,Right,21,Female,Yes,Mandarin,D,209,0,4,4,180.0,1.0,1.0,682.511,1.0,208.0,6.0,1.00757,0.888615
Asian,16,Right,21,Female,Yes,Mandarin,D,210,1,16,8,0.0,0.0,1.0,1260.5,1.0,209.0,6.0,1.18505,0.8782
Asian,16,Right,21,Female,Yes,Mandarin,D,211,0,8,8,0.0,0.0,1.0,677.056,1.0,210.0,6.0,1.02625,0.912143
Asian,16,Right,21,Female,Yes,Mandarin,D,212,1,0,8,180.0,1.0,1.0,865.161,1.0,211.0,6.0,1.09864,0.936647
Asian,16,Right,21,Female,Yes,Mandarin,D,213,1,4,0,180.0,1.0,1.0,1240.18,1.0,212.0,6.0,1.11858,0.82915
Asian,16,Right,21,Female,Yes,Mandarin,D,214,1,4,4,180.0,1.0,1.0,933.17,1.0,213.0,6.0,1.09393,0.874685
Asian,16,Right,21,Female,Yes,Mandarin,D,215,1,8,8,0.0,0.0,1.0,1106.51,1.0,214.0,6.0,1.17294,0.867056
Asian,16,Right,21,Female,Yes,Mandarin,D,216,0,8,0,180.0,1.0,1.0,1072.6,1.0,215.0,6.0,1.07272,0.860129
Asian,16,Right,21,Female,Yes,Mandarin,D,217,0,4,0,180.0,1.0,1.0,1064.44,1.0,216.0,6.0,1.17202,0.926298
Asian,16,Right,21,Female,Yes,Mandarin,D,218,0,0,16,180.0,1.0,1.0,897.047,1.0,217.0,6.0,1.12088,0.875981
Asian,16,Right,21,Female,Yes,Mandarin,D,219,0,8,16,0.0,0.0,1.0,1073.93,1.0,218.0,6.0,1.07274,0.839845
Asian,16,Right,21,Female,Yes,Mandarin,D,220,0,0,0,0.0,0.0,1.0,798.111,1.0,219.0,6.0,1.00783,0.8951
Asian,16,Right,21,Female,Yes,Mandarin,D,221,0,0,4,0.0,0.0,1.0,895.472,1.0,220.0,6.0,1.00257,0.847463
Asian,16,Right,21,Female,Yes,Mandarin,D,222,1,8,0,0.0,0.0,1.0,1311.46,1.0,221.0,6.0,1.15035,0.933351
Asian,16,Right,21,Female,Yes,Mandarin,D,223,1,16,16,0.0,0.0,1.0,1105.24,1.0,222.0,6.0,1.17116,0.801965
Asian,16,Right,21,Female,Yes,Mandarin,D,224,1,4,16,180.0,1.0,1.0,1307.66,1.0,223.0,6.0,1.13318,0.819151
Asian,16,Right,21,Female,Yes,Mandarin,D,225,1,16,4,180.0,1.0,1.0,892.488,1.0,224.0,7.0,1.03501,0.876868
Asian,16,Right,21,Female,Yes,Mandarin,D,226,0,16,4,0.0,0.0,1.0,1500.42,1.0,225.0,7.0,1.05794,0.890568
Asian,16,Right,21,Female,Yes,Mandarin,D,227,0,16,0,180.0,1.0,1.0,1431.93,1.0,226.0,7.0,1.15454,0.994851
Asian,16,Right,21,Female,Yes,Mandarin,D,228,1,4,8,180.0,1.0,1.0,1520.75,1.0,227.0,7.0,1.01667,0.983799
Asian,16,Right,21,Female,Yes,Mandarin,D,229,1,16,8,180.0,1.0,1.0,821.757,1.0,228.0,7.0,1.07726,0.823228
Asian,16,Right,21,Female,Yes,Mandarin,D,230,1,0,0,0.0,0.0,1.0,940.681,1.0,229.0,7.0,1.15539,0.929504
Asian,16,Right,21,Female,Yes,Mandarin,D,231,0,16,16,180.0,1.0,1.0,874.272,1.0,230.0,7.0,1.09736,0.944125
Asian,16,Right,21,Female,Yes,Mandarin,D,232,1,4,16,180.0,1.0,1.0,1960.73,1.0,231.0,7.0,1.04986,0.875656
Asian,16,Right,21,Female,Yes,Mandarin,D,233,0,0,8,0.0,0.0,1.0,977.713,1.0,232.0,7.0,1.16155,0.970125
Asian,16,Right,21,Female,Yes,Mandarin,D,234,1,8,0,180.0,1.0,1.0,1166.79,1.0,233.0,7.0,1.18932,0.840594
Asian,16,Right,21,Female,Yes,Mandarin,D,235,1,16,0,0.0,0.0,1.0,1336.28,1.0,234.0,7.0,1.09861,0.847961
Asian,16,Right,21,Female,Yes,Mandarin,D,236,0,4,8,0.0,0.0,1.0,1282.52,1.0,235.0,7.0,1.14657,0.91074
Asian,16,Right,21,Female,Yes,Mandarin,D,237,0,0,4,180.0,1.0,1.0,763.592,1.0,236.0,7.0,1.12265,0.907659
Asian,16,Right,21,Female,Yes,Mandarin,D,238,0,4,0,180.0,1.0,1.0,1064.74,1.0,237.0,7.0,1.08855,0.949721
Asian,16,Right,21,Female,Yes,Mandarin,D,239,0,8,8,180.0,1.0,1.0,1394.83,1.0,238.0,7.0,1.19562,0.909432
Asian,16,Right,21,Female,Yes,Mandarin,D,240,1,8,16,0.0,0.0,1.0,942.353,1.0,239.0,7.0,1.08945,0.833347
Asian,16,Right,21,Female,Yes,Mandarin,D,241,0,8,16,180.0,1.0,1.0,1210.79,1.0,240.0,7.0,1.16823,0.858148
Asian,16,Right,21,Female,Yes,Mandarin,D,242,1,4,0,0.0,0.0,1.0,669.07,1.0,241.0,7.0,1.0734,0.861701
Asian,16,Right,21,Female,Yes,Mandarin,D,243,0,8,4,180.0,1.0,1.0,803.816,1.0,242.0,7.0,1.01782,0.919214
Asian,16,Right,21,Female,Yes,Mandarin,D,244,1,16,16,180.0,1.0,1.0,897.266,1.0,243.0,7.0,1.12148,0.873838
Asian,16,Right,21,Female,Yes,Mandarin,D,245,1,8,4,0.0,0.0,1.0,753.927,1.0,244.0,7.0,1.16532,0.878981
Asian,16,Right,21,Female,Yes,Mandarin,D,246,0,0,0,180.0,1.0,1.0,714.031,1.0,245.0,7.0,1.00453,0.975532
Asian,16,Right,21,Female,Yes,Mandarin,D,247,0,8,0,0.0,0.0,1.0,1045.83,1.0,246.0,7.0,1.10474,0.910383
Asian,16,Right,21,Female,Yes,Mandarin,D,248,0,4,16,0.0,0.0,1.0,1135.4,1.0,247.0,7.0,1.17456,0.897813
Asian,16,Right,21,Female,Yes,Mandarin,D,249,1,8,8,0.0,0.0,1.0,990.45,1.0,248.0,7.0,1.18769,0.832427
Asian,16,Right,21,Female,Yes,Mandarin,D,250,1,4,4,180.0,1.0,1.0,938.529,1.0,249.0,7.0,1.18278,0.905324
Asian,16,Right,21,Female,Yes,Mandarin,D,251,0,0,16,0.0,0.0,1.0,933.302,1.0,250.0,7.0,1.17547,0.891503
Asian,16,Right,21,Female,Yes,Mandarin,D,252,1,0,8,0.0,0.0,1.0,656.078,1.0,251.0,7.0,1.04114,0.858081
Asian,16,Right,21,Female,Yes,Mandarin,D,253,1,0,4,0.0,0.0,1.0,731.957,1.0,252.0,7.0,1.01039,0.937691
Asian,16,Right,21,Female,Yes,Mandarin,D,254,0,16,8,0.0,0.0,1.0,1045.0,1.0,253.0,7.0,1.1579,0.922852
Asian,16,Right,21,Female,Yes,Mandarin,D,255,1,0,16,0.0,0.0,1.0,722.252,1.0,254.0,7.0,1.09876,0.829397
Asian,16,Right,21,Female,Yes,Mandarin,D,256,0,4,4,180.0,1.0,1.0,920.107,1.0,255.0,7.0,1.12648,0.907786
Asian,16,Right,21,Female,Yes,Mandarin,D,257,0,8,0,180.0,1.0,1.0,1089.44,1.0,256.0,8.0,1.17626,0.806359
Asian,16,Right,21,Female,Yes,Mandarin,D,258,0,0,8,0.0,0.0,1.0,907.303,1.0,257.0,8.0,1.16039,0.907243
Asian,16,Right,21,Female,Yes,Mandarin,D,259,0,8,16,180.0,1.0,1.0,944.898,1.0,258.0,8.0,1.01885,0.937774
Asian,16,Right,21,Female,Yes,Mandarin,D,260,0,0,0,180.0,1.0,1.0,616.11,1.0,259.0,8.0,1.16905,0.887877
Asian,16,Right,21,Female,Yes,Mandarin,D,261,1,0,0,180.0,1.0,1.0,1199.13,1.0,260.0,8.0,1.06009,0.951169
Asian,16,Right,21,Female,Yes,Mandarin,D,262,1,16,16,180.0,1.0,1.0,1162.92,1.0,261.0,8.0,1.14446,0.842836
Asian,16,Right,21,Female,Yes,Mandarin,D,263,1,0,4,180.0,1.0,1.0,813.164,1.0,262.0,8.0,1.00119,0.935638
Asian,16,Right,21,Female,Yes,Mandarin,D,264,1,8,0,180.0,1.0,1.0,1421.93,1.0,263.0,8.0,1.18565,0.804108
Asian,16,Right,21,Female,Yes,Mandarin,D,265,1,0,16,180.0,1.0,1.0,1083.66,1.0,264.0,8.0,1.04046,0.963411
Asian,16,Right,21,Female,Yes,Mandarin,D,266,0,16,4,0.0,0.0,1.0,1111.45,1.0,265.0,8.0,1.17443,0.981122
Asian,16,Right,21,Female,Yes,Mandarin,D,267,1,8,16,180.0,1.0,1.0,1142.37,1.0,266.0,8.0,1.10968,0.988784
Asian,16,Right,21,Female,Yes,Mandarin,D,268,1,4,8,0.0,0.0,1.0,1448.59,1.0,267.0,8.0,1.09904,0.925408
Asian,16,Right,21,Female,Yes,Mandarin,D,269,0,4,0,0.0,0.0,1.0,1533.36,1.0,268.0,8.0,1.09578,0.978395
Asian,16,Right,21,Female,Yes,Mandarin,D,270,1,4,4,180.0,1.0,1.0,1394.64,1.0,269.0,8.0,1.13838,0.958152
Asian,16,Right,21,Female,Yes,Mandarin,D,271,0,4,16,180.0,1.0,1.0,1949.69,1.0,270.0,8.0,1.00669,0.852238
Asian,16,Right,21,Female,Yes,Mandarin,D,272,0,16,0,0.0,0.0,1.0,984.32,1.0,271.0,8.0,1.13272,0.915145
Asian,16,Right,21,Female,Yes,Mandarin,D,273,1,0,8,180.0,1.0,1.0,1350.38,1.0,272.0,8.0,1.15511,0.818848
Asian,16,Right,21,Female,Yes,Mandarin,D,274,1,8,8,0.0,0.0,1.0,881.958,1.0,273.0,8.0,1.12207,0.843063
Asian,16,Right,21,Female,Yes,Mandarin,D,275,0,8,4,0.0,0.0,1.0,1324.36,1.0,274.0,8.0,1.11106,0.84907
Asian,16,Right,21,Female,Yes,Mandarin,D,276,0,0,16,0.0,0.0,1.0,818.551,1.0,275.0,8.0,1.15208,0.81323
Asian,16,Right,21,Female,Yes,Mandarin,D,277,1,4,16,0.0,0.0,1.0,1071.85,1.0,276.0,8.0,1.07946,0.818311
Asian,16,Right,21,Female,Yes,Mandarin,D,278,0,16,16,0.0,0.0,1.0,1620.86,1.0,277.0,8.0,1.13159,0.856685
Asian,16,Right,21,Female,Yes,Mandarin,D,279,0,16,8,180.0,1.0,1.0,989.135,1.0,278.0,8.0,1.07636,0.818385
Asian,16,Right,21,Female,Yes,Mandarin,D,280,1,16,4,0.0,0.0,1.0,966.511,1.0,279.0,8.0,1.11156,0.831639
Asian,16,Right,21,Female,Yes,Mandarin,D,281,1,8,4,180.0,1.0,1.0,640.955,1.0,280.0,8.0,1.00283,0.928112
Asian,16,Right,21,Female,Yes,Mandarin,D,282,1,4,0,0.0,0.0,1.0,766.154,1.0,281.0,8.0,1.04882,0.956547
Asian,16,Right,21,Female,Yes,Mandarin,D,283,0,8,8,0.0,0.0,1.0,1569.47,1.0,282.0,8.0,1.01091,0.92252
Asian,16,Right,21,Female,Yes,Mandarin,D,284,0,4,8,0.0,0.0,1.0,1129.08,1.0,283.0,8.0,1.02349,0.923643
Asian,16,Right,21,Female,Yes,Mandarin,D,285,0,0,4,180.0,1.0,1.0,706.791,1.0,284.0,8.0,1.1716,0.861393
Asian,16,Right,21,Female,Yes,Mandarin,D,286,1,16,0,0.0,0.0,1.0,758.072,1.0,285.0,8.0,1.05637,0.918122
Asian,16,Right,21,Female,Yes,Mandarin,D,287,1,16,8,180.0,1.0,1.0,1295.54,1.0,286.0,8.0,1.0217,0.978808
Asian,16,Right,21,Female,Yes,Mandarin,D,288,0,4,4,0.0,0.0,1.0,1187.79,1.0,287.0,8.0,1.15265,0.985093
Asian,16,Right,21,Female,Yes,Mandarin,D,289,0,0,4,180.0,1.0,1.0,895.396,1.0,288.0,9.0,1.15713,0.894503
Asian,16,Right,21,Female,Yes,Mandarin,D,290,0,16,16,180.0,1.0,1.0,1233.68,1.0,289.0,9.0,1.07635,0.821469
Asian,16,Right,21,Female,Yes,Mandarin,D,291,1,4,4,180.0,1.0,1.0,890.668,1.0,290.0,9.0,1.04686,0.91535
Asian,16,Right,21,Female,Yes,Mandarin,D,292,0,0,16,0.0,0.0,1.0,893.293,1.0,291.0,9.0,1.05276,0.924944
Asian,16,Right,21,Female,Yes,Mandarin,D,293,1,8,16,180.0,1.0,1.0,832.263,1.0,292.0,9.0,1.11465,0.821925
Asian,16,Right,21,Female,Yes,Mandarin,D,294,1,8,4,180.0,1.0,1.0,746.846,1.0,293.0,9.0,1.10827,0.820847
Asian,16,Right,21,Female,Yes,Mandarin,D,295,0,4,0,0.0,0.0,1.0,1050.18,1.0,294.0,9.0,1.1433,0.807734
Asian,16,Right,21,Female,Yes,Mandarin,D,296,0,8,4,180.0,1.0,1.0,992.195,1.0,295.0,9.0,1.15252,0.982804
Asian,16,Right,21,Female,Yes,Mandarin,D,297,1,0,16,0.0,0.0,1.0,825.774,1.0,296.0,9.0,1.13006,0.811127
Asian,16,Right,21,Female,Yes,Mandarin,D,298,0,0,8,0.0,0.0,1.0,1285.89,1.0,297.0,9.0,1.09468,0.880799
Asian,16,Right,21,Female,Yes,Mandarin,D,299,1,0,0,0.0,0.0,1.0,686.552,1.0,298.0,9.0,1.10541,0.887594
Asian,16,Right,21,Female,Yes,Mandarin,D,300,0,4,16,180.0,1.0,1.0,1120.93,1.0,299.0,9.0,1.19155,0.887012
Asian,16,Right,21,Female,Yes,Mandarin,D,301,0,8,8,180.0,1.0,1.0,1587.76,1.0,300.0,9.0,1.04516,0.962352
Asian,16,Right,21,Female,Yes,Mandarin,D,302,0,8,0,0.0,0.0,1.0,940.144,1.0,301.0,9.0,1.00937,0.821459
Asian,16,Right,21,Female,Yes,Mandarin,D,303,0,8,16,180.0,1.0,1.0,947.785,1.0,302.0,9.0,1.05325,0.949858
Asian,16,Right,21,Female,Yes,Mandarin,D,304,0,4,8,180.0,1.0,1.0,1093.43,1.0,303.0,9.0,1.12547,0.864227
Asian,16,Right,21,Female,Yes,Mandarin,D,305,1,16,0,180.0,1.0,1.0,850.322,1.0,304.0,9.0,1.00555,0.80895
Asian,16,Right,21,Female,Yes,Mandarin,D,306,1,4,0,180.0,1.0,1.0,922.416,1.0,305.0,9.0,1.03826,0.880173
Asian,16,Right,21,Female,Yes,Mandarin,D,307,1,8,0,0.0,0.0,1.0,1365.59,1.0,306.0,9.0,1.1366,0.877469
Asian,16,Right,21,Female,Yes,Mandarin,D,308,1,4,8,0.0,0.0,1.0,838.079,1.0,307.0,9.0,1.12716,0.95578
Asian,16,Right,21,Female,Yes,Mandarin,D,309,1,16,8,0.0,0.0,1.0,993.404,1.0,308.0,9.0,1.14704,0.872201
Asian,16,Right,21,Female,Yes,Mandarin,D,310,1,0,8,180.0,1.0,1.0,1003.05,1.0,309.0,9.0,1.13715,0.924005
Asian,16,Right,21,Female,Yes,Mandarin,D,311,1,16,4,0.0,0.0,1.0,964.425,1.0,310.0,9.0,1.06429,0.898461
Asian,16,Right,21,Female,Yes,Mandarin,D,312,0,0,0,0.0,0.0,1.0,798.924,1.0,311.0,9.0,1.05955,0.975114
Asian,16,Right,21,Female,Yes,Mandarin,D,313,1,16,16,180.0,1.0,1.0,830.124,1.0,312.0,9.0,1.13796,0.911491
Asian,16,Right,21,Female,Yes,Mandarin,D,314,1,8,8,0.0,0.0,1.0,1006.32,1.0,313.0,9.0,1.15674,0.878659
Asian,16,Right,21,Female,Yes,Mandarin,D,315,0,16,4,180.0,1.0,1.0,1709.02,1.0,314.0,9.0,1.04036,0.85722
Asian,16,Right,21,Female,Yes,Mandarin,D,316,0,16,8,0.0,0.0,1.0,1796.73,1.0,315.0,9.0,1.09197,0.8931
Asian,16,Right,21,Female,Yes,Mandarin,D,317,1,0,4,0.0,0.0,1.0,931.96,1.0,316.0,9.0,1.00581,0.914962
Asian,16,Right,21,Female,Yes,Mandarin,D,318,1,4,16,0.0,0.0,1.0,1291.82,1.0,317.0,9.0,1.1785,0.939348
Asian,16,Right,21,Female,Yes,Mandarin,D,319,0,4,4,180.0,1.0,1.0,1019.49,1.0,318.0,9.0,1.18305,0.985456
Asian,16,Right,21,Female,Yes,Mandarin,D,320,0,16,0,0.0,0.0,1.0,1323.02,1.0,319.0,9.0,1.08827,0.810088
Asian,16,Right,21,Female,Yes,Mandarin,D,321,0,16,4,0.0,0.0,1.0,1377.56,1.0,320.0,10.0,1.18358,0.988927
Asian,16,Right,21,Female,Yes,Mandarin,D,322,1,8,4,0.0,0.0,1.0,1224.13,1.0,321.0,10.0,1.18291,0.895254
Asian,16,Right,21,Female,Yes,Mandarin,D,323,0,8,0,0.0,0.0,1.0,1004.13,1.0,322.0,10.0,1.10399,0.981399
Asian,16,Right,21,Female,Yes,Mandarin,D,324,0,0,4,180.0,1.0,1.0,839.328,1.0,323.0,10.0,1.07661,0.89241
Asian,16,Right,21,Female,Yes,Mandarin,D,325,1,16,4,180.0,1.0,1.0,1468.65,1.0,324.0,10.0,1.01967,0.873715
Asian,16,Right,21,Female,Yes,Mandarin,D,326,1,4,4,0.0,0.0,1.0,1541.26,1.0,325.0,10.0,1.18608,0.934674
Asian,16,Right,21,Female,Yes,Mandarin,D,327,1,16,16,180.0,1.0,1.0,826.471,1.0,326.0,10.0,1.09834,0.847881
Asian,16,Right,21,Female,Yes,Mandarin,D,328,0,8,16,0.0,0.0,1.0,989.543,1.0,327.0,10.0,1.04087,0.950464
Asian,16,Right,21,Female,Yes,Mandarin,D,329,1,16,8,0.0,0.0,1.0,1173.8,1.0,328.0,10.0,1.00321,0.995117
Asian,16,Right,21,Female,Yes,Mandarin,D,330,1,8,16,180.0,1.0,1.0,1615.99,1.0,329.0,10.0,1.03334,0.83648
Asian,16,Right,21,Female,Yes,Mandarin,D,331,1,0,16,0.0,0.0,1.0,739.221,1.0,330.0,10.0,1.07535,0.949139
Asian,16,Right,21,Female,Yes,Mandarin,D,332,1,4,16,0.0,0.0,1.0,906.381,1.0,331.0,10.0,1.1947,0.821883
Asian,16,Right,21,Female,Yes,Mandarin,D,333,0,16,8,180.0,1.0,1.0,1158.77,1.0,332.0,10.0,1.00768,0.932064
Asian,16,Right,21,Female,Yes,Mandarin,D,334,0,4,0,180.0,1.0,1.0,945.04,1.0,333.0,10.0,1.07015,0.989575
Asian,16,Right,21,Female,Yes,Mandarin,D,335,1,8,8,180.0,1.0,1.0,644.803,1.0,334.0,10.0,1.14185,0.992474
Asian,16,Right,21,Female,Yes,Mandarin,D,336,1,4,8,0.0,0.0,1.0,1337.5,1.0,335.0,10.0,1.11518,0.867628
Asian,16,Right,21,Female,Yes,Mandarin,D,337,0,4,4,180.0,1.0,1.0,922.477,1.0,336.0,10.0,1.02516,0.893843
Asian,16,Right,21,Female,Yes,Mandarin,D,338,0,0,8,180.0,1.0,1.0,696.296,1.0,337.0,10.0,1.14317,0.971282
Asian,16,Right,21,Female,Yes,Mandarin,D,339,1,16,0,180.0,1.0,1.0,2113.38,1.0,338.0,10.0,1.16126,0.88682
Asian,16,Right,21,Female,Yes,Mandarin,D,340,0,0,0,0.0,0.0,1.0,647.345,1.0,339.0,10.0,1.00948,0.876644
Asian,16,Right,21,Female,Yes,Mandarin,D,341,0,0,16,180.0,1.0,1.0,748.156,1.0,340.0,10.0,1.06554,0.960349
Asian,16,Right,21,Female,Yes,Mandarin,D,342,1,4,0,0.0,0.0,1.0,594.665,1.0,341.0,10.0,1.17377,0.955157
Asian,16,Right,21,Female,Yes,Mandarin,D,343,0,8,8,180.0,1.0,1.0,1244.28,1.0,342.0,10.0,1.17294,0.949446
Asian,16,Right,21,Female,Yes,Mandarin,D,344,1,8,0,0.0,0.0,1.0,564.115,1.0,343.0,10.0,1.0836,0.909693
Asian,16,Right,21,Female,Yes,Mandarin,D,345,0,16,0,0.0,0.0,1.0,1085.15,1.0,344.0,10.0,1.07846,0.827233
Asian,16,Right,21,Female,Yes,Mandarin,D,346,1,0,0,180.0,1.0,1.0,730.888,1.0,345.0,10.0,1.1606,0.862086
Asian,16,Right,21,Female,Yes,Mandarin,D,347,0,4,8,0.0,0.0,1.0,841.293,1.0,346.0,10.0,1.16931,0.959667
Asian,16,Right,21,Female,Yes,Mandarin,D,348,0,16,16,180.0,1.0,1.0,1608.34,1.0,347.0,10.0,1.09827,0.85523
Asian,16,Right,21,Female,Yes,Mandarin,D,349,0,4,16,0.0,0.0,1.0,1070.12,1.0,348.0,10.0,1.09622,0.911262
Asian,16,Right,21,Female,Yes,Mandarin,D,350,0,8,4,180.0,1.0,1.0,1096.33,1.0,349.0,10.0,1.04275,0.873574
Asian,16,Right,21,Female,Yes,Mandarin,D,351,1,0,4,180.0,1.0,1.0,1012.2,1.0,350.0,10.0,1.18592,0.943443
Asian,16,Right,21,Female,Yes,Mandarin,D,352,1,0,8,0.0,0.0,1.0,865.406,1.0,351.0,10.0,1.13764,0.841847
Asian,16,Right,21,Female,Yes,Mandarin,D,353,1,0,0,0.0,0.0,1.0,690.114,1.0,352.0,11.0,1.13001,0.883985
Asian,16,Right,21,Female,Yes,Mandarin,D,354,0,0,4,180.0,1.0,1.0,984.823,1.0,353.0,11.0,1.01872,0.899349
Asian,16,Right,21,Female,Yes,Mandarin,D,355,0,16,4,180.0,1.0,1.0,1023.47,1.0,354.0,11.0,1.00449,0.861183
Asian,16,Right,21,Female,Yes,Mandarin,D,356,1,16,8,180.0,1.0,1.0,1401.67,1.0,355.0,11.0,1.15507,0.900039
Asian,16,Right,21,Female,Yes,Mandarin,D,357,1,4,16,0.0,0.0,1.0,820.39,1.0,356.0,11.0,1.13611,0.948698
Asian,16,Right,21,Female,Yes,Mandarin,D,358,1,8,4,180.0,1.0,1.0,1641.55,1.0,357.0,11.0,1.00411,0.846268
Asian,16,Right,21,Female,Yes,Mandarin,D,359,0,16,16,0.0,0.0,1.0,1062.08,1.0,358.0,11.0,1.03439,0.899132
Asian,16,Right,21,Female,Yes,Mandarin,D,360,0,8,0,0.0,0.0,1.0,1031.73,1.0,359.0,11.0,1.18345,0.915004
Asian,16,Right,21,Female,Yes,Mandarin,D,361,0,0,0,180.0,1.0,1.0,745.548,1.0,360.0,11.0,1.08538,0.915941
Asian,16,Right,21,Female,Yes,Mandarin,D,362,1,8,0,0.0,0.0,1.0,968.018,1.0,361.0,11.0,1.11506,0.872387
Asian,16,Right,21,Female,Yes,Mandarin,D,363,1,4,0,180.0,1.0,1.0,1113.7,1.0,362.0,11.0,1.14664,0.987083
Asian,16,Right,21,Female,Yes,Mandarin,D,364,1,16,4,180.0,1.0,1.0,1887.47,1.0,363.0,11.0,1.17264,0.882009
Asian,16,Right,21,Female,Yes,Mandarin,D,365,0,16,8,0.0,0.0,1.0,1099.24,1.0,364.0,11.0,1.14239,0.887112
Asian,16,Right,21,Female,Yes,Mandarin,D,366,1,8,16,0.0,0.0,1.0,815.615,1.0,365.0,11.0,1.14049,0.998737
Asian,16,Right,21,Female,Yes,Mandarin,D,367,0,0,8,180.0,1.0,1.0,1319.42,1.0,366.0,11.0,1.12637,0.809855
Asian,16,Right,21,Female,Yes,Mandarin,D,368,1,4,8,180.0,1.0,1.0,1572.84,1.0,367.0,11.0,1.02883,0.859312
Asian,16,Right,21,Female,Yes,Mandarin,D,369,1,16,0,0.0,0.0,1.0,1138.66,1.0,368.0,11.0,1.06325,0.930477
Asian,16,Right,21,Female,Yes,Mandarin,D,370,1,0,16,180.0,1.0,1.0,793.962,1.0,369.0,11.0,1.13132,0.887577
Asian,16,Right,21,Female,Yes,Mandarin,D,371,0,4,16,180.0,1.0,1.0,957.993,1.0,370.0,11.0,1.10536,0.808906
Asian,16,Right,21,Female,Yes,Mandarin,D,372,0,4,0,0.0,0.0,1.0,1246.78,1.0,371.0,11.0,1.10963,0.859609
Asian,16,Right,21,Female,Yes,Mandarin,D,373,0,8,16,180.0,1.0,1.0,919.467,1.0,372.0,11.0,1.12347,0.840182
Asian,16,Right,21,Female,Yes,Mandarin,D,374,0,0,16,180.0,1.0,1.0,949.141,1.0,373.0,11.0,1.18852,0.869788
Asian,16,Right,21,Female,Yes,Mandarin,D,375,1,0,4,180.0,1.0,1.0,928.077,1.0,374.0,11.0,1.1824,0.895926
Asian,16,Right,21,Female,Yes,Mandarin,D,376,1,4,4,180.0,1.0,1.0,879.265,1.0,375.0,11.0,1.11787,0.81804
Asian,16,Right,21,Female,Yes,Mandarin,D,377,1,0,8,0.0,0.0,1.0,1136.47,1.0,376.0,11.0,1.03695,0.855254
Asian,16,Right,21,Female,Yes,Mandarin,D,378,1,16,16,0.0,0.0,1.0,1013.89,1.0,377.0,11.0,1.03163,0.861931
Asian,16,Right,21,Female,Yes,Mandarin,D,379,0,4,8,0.0,0.0,1.0,1074.65,1.0,378.0,11.0,1.08249,0.974473
Asian,16,Right,21,Female,Yes,Mandarin,D,380,0,8,4,180.0,1.0,1.0,900.834,1.0,379.0,11.0,1.02608,0.931709
Asian,16,Right,21,Female,Yes,Mandarin,D,381,0,4,4,0.0,0.0,1.0,823.52,1.0,380.0,11.0,1.10969,0.843884
Asian,16,Right,21,Female,Yes,Mandarin,D,382,0,8,8,0.0,0.0,1.0,745.782,1.0,381.0,11.0,1.12606,0.802217
Asian,16,Right,21,Female,Yes,Mandarin,D,383,1,8,8,0.0,0.0,1.0,1175.5,1.0,382.0,11.0,1.06374,0.801359
Asian,16,Right,21,Female,Yes,Mandarin,D,384,0,16,0,0.0,0.0,1.0,1265.54,1.0,383.0,11.0,1.13259,0.839106
Asian,16,Right,21,Female,Yes,Mandarin,D,385,0,8,4,180.0,1.0,1.0,823.233,1.0,384.0,12.0,1.18123,0.999047
Asian,16,Right,21,Female,Yes,Mandarin,D,386,0,4,0,180.0,1.0,1.0,778.268,1.0,385.0,12.0,1.15546,0.977838
Asian,16,Right,21,Female,Yes,Mandarin,D,387,1,16,8,180.0,1.0,1.0,653.162,1.0,386.0,12.0,1.16513,0.978692
Asian,16,Right,21,Female,Yes,Mandarin,D,388,0,0,8,0.0,0.0,1.0,800.43,1.0,387.0,12.0,1.09441,0.866165
Asian,16,Right,21,Female,Yes,Mandarin,D,389,1,0,16,0.0,0.0,1.0,672.57,1.0,388.0,12.0,1.18824,0.93203
Asian,16,Right,21,Female,Yes,Mandarin,D,390,0,4,4,0.0,0.0,1.0,733.499,1.0,389.0,12.0,1.10227,0.816621
Asian,16,Right,21,Female,Yes,Mandarin,D,391,1,4,16,0.0,0.0,1.0,643.479,1.0,390.0,12.0,1.14451,0.951439
Asian,16,Right,21,Female,Yes,Mandarin,D,392,1,8,4,0.0,0.0,1.0,1167.74,1.0,391.0,12.0,1.14885,0.962648
Asian,16,Right,21,Female,Yes,Mandarin,D,393,1,8,8,180.0,1.0,1.0,862.782,1.0,392.0,12.0,1.12334,0.814245
Asian,16,Right,21,Female,Yes,Mandarin,D,394,1,8,16,0.0,0.0,1.0,1276.51,1.0,393.0,12.0,1.0312,0.813996
Asian,16,Right,21,Female,Yes,Mandarin,D,395,0,16,0,0.0,0.0,1.0,1152.14,1.0,394.0,12.0,1.14873,0.957515
Asian,16,Right,21,Female,Yes,Mandarin,D,396,0,4,16,180.0,1.0,1.0,890.994,1.0,395.0,12.0,1.17341,0.96082
Asian,16,Right,21,Female,Yes,Mandarin,D,397,1,0,4,180.0,1.0,1.0,2001.42,1.0,396.0,12.0,1.03468,0.806775
Asian,16,Right,21,Female,Yes,Mandarin,D,398,0,0,4,180.0,1.0,1.0,989.73,1.0,397.0,12.0,1.04802,0.912434
Asian,16,Right,21,Female,Yes,Mandarin,D,399,1,0,8,0.0,0.0,1.0,779.924,1.0,398.0,12.0,1.09673,0.850018
Asian,16,Right,21,Female,Yes,Mandarin,D,400,0,8,0,180.0,1.0,1.0,1096.7,1.0,399.0,12.0,1.00556,0.844193
Asian,16,Right,21,Female,Yes,Mandarin,D,401,0,8,8,180.0,1.0,1.0,985.114,1.0,400.0,12.0,1.13602,0.954708
Asian,16,Right,21,Female,Yes,Mandarin,D,402,0,16,4,0.0,0.0,1.0,901.838,1.0,401.0,12.0,1.01426,0.849798
Asian,16,Right,21,Female,Yes,Mandarin,D,403,0,4,8,180.0,1.0,1.0,1127.05,1.0,402.0,12.0,1.09816,0.884111
Asian,16,Right,21,Female,Yes,Mandarin,D,404,0,0,16,0.0,0.0,1.0,745.349,1.0,403.0,12.0,1.02598,0.960104
Asian,16,Right,21,Female,Yes,Mandarin,D,405,0,16,16,0.0,0.0,1.0,780.855,1.0,404.0,12.0,1.0285,0.923092
Asian,16,Right,21,Female,Yes,Mandarin,D,406,1,16,4,180.0,1.0,1.0,1633.56,1.0,405.0,12.0,1.14362,0.850405
Asian,16,Right,21,Female,Yes,Mandarin,D,407,1,4,4,0.0,0.0,1.0,1051.41,1.0,406.0,12.0,1.05295,0.888317
Asian,16,Right,21,Female,Yes,Mandarin,D,408,0,0,0,0.0,0.0,1.0,871.157,1.0,407.0,12.0,1.07206,0.925891
Asian,16,Right,21,Female,Yes,Mandarin,D,409,1,4,8,180.0,1.0,1.0,832.445,1.0,408.0,12.0,1.06794,0.994377
Asian,16,Right,21,Female,Yes,Mandarin,D,410,1,8,0,0.0,0.0,1.0,871.887,1.0,409.0,12.0,1.01487,0.959691
Asian,16,Right,21,Female,Yes,Mandarin,D,411,1,16,0,0.0,0.0,1.0,622.749,1.0,410.0,12.0,1.12216,0.923491
Asian,16,Right,21,Female,Yes,Mandarin,D,412,0,8,16,0.0,0.0,1.0,822.681,1.0,411.0,12.0,1.13815,0.861757
Asian,16,Right,21,Female,Yes,Mandarin,D,413,1,16,16,180.0,1.0,1.0,771.874,1.0,412.0,12.0,1.18193,0.816215
Asian,16,Right,21,Female,Yes,Mandarin,D,414,0,16,8,180.0,1.0,1.0,1841.75,1.0,413.0,12.0,1.03091,0.960265
Asian,16,Right,21,Female,Yes,Mandarin,D,415,1,0,0,180.0,1.0,1.0,779.353,1.0,414.0,12.0,1.0755,0.959939
Asian,16,Right,21,Female,Yes,Mandarin,D,416,1,4,0,180.0,1.0,1.0,844.817,1.0,415.0,12.0,1.01532,0.85349
Asian,16,Right,21,Female,Yes,Mandarin,D,417,0,0,4,180.0,1.0,1.0,1097.86,1.0,416.0,13.0,1.14905,0.874948
Asian,16,Right,21,Female,Yes,Mandarin,D,418,1,4,0,180.0,1.0,1.0,687.036,1.0,417.0,13.0,1.1938,0.803888
Asian,16,Right,21,Female,Yes,Mandarin,D,419,1,16,4,180.0,1.0,1.0,983.154,1.0,418.0,13.0,1.02145,0.80278
Asian,16,Right,21,Female,Yes,Mandarin,D,420,0,8,16,0.0,0.0,1.0,1535.62,1.0,419.0,13.0,1.11953,0.987294
Asian,16,Right,21,Female,Yes,Mandarin,D,421,0,8,4,180.0,1.0,1.0,1295.15,1.0,420.0,13.0,1.09278,0.904107
Asian,16,Right,21,Female,Yes,Mandarin,D,422,0,16,4,0.0,0.0,1.0,1271.69,1.0,421.0,13.0,1.04709,0.959727
Asian,16,Right,21,Female,Yes,Mandarin,D,423,0,0,8,180.0,1.0,1.0,768.003,1.0,422.0,13.0,1.16641,0.820768
Asian,16,Right,21,Female,Yes,Mandarin,D,424,1,8,8,180.0,1.0,1.0,1041.94,1.0,423.0,13.0,1.13629,0.891019
Asian,16,Right,21,Female,Yes,Mandarin,D,425,1,16,8,0.0,0.0,1.0,758.112,1.0,424.0,13.0,1.19533,0.808602
Asian,16,Right,21,Female,Yes,Mandarin,D,426,1,4,4,180.0,1.0,1.0,1005.61,1.0,425.0,13.0,1.13391,0.908448
Asian,16,Right,21,Female,Yes,Mandarin,D,427,0,8,0,0.0,0.0,1.0,679.886,1.0,426.0,13.0,1.1848,0.812722
Asian,16,Right,21,Female,Yes,Mandarin,D,428,1,16,16,180.0,1.0,1.0,1361.13,1.0,427.0,13.0,1.03752,0.812336
Asian,16,Right,21,Female,Yes,Mandarin,D,429,0,4,16,180.0,1.0,1.0,1110.94,1.0,428.0,13.0,1.06762,0.868574
Asian,16,Right,21,Female,Yes,Mandarin,D,430,0,0,16,0.0,0.0,1.0,789.055,1.0,429.0,13.0,1.18479,0.869469
Asian,16,Right,21,Female,Yes,Mandarin,D,431,0,8,8,0.0,0.0,1.0,1016.75,1.0,430.0,13.0,1.12488,0.845538
Asian,16,Right,21,Female,Yes,Mandarin,D,432,1,16,0,0.0,0.0,1.0,1257.23,1.0,431.0,13.0,1.00701,0.865384
Asian,16,Right,21,Female,Yes,Mandarin,D,433,0,4,8,0.0,0.0,1.0,1719.63,1.0,432.0,13.0,1.18588,0.835575
Asian,16,Right,21,Female,Yes,Mandarin,D,434,0,0,0,180.0,1.0,1.0,900.091,1.0,433.0,13.0,1.19612,0.856727
Asian,16,Right,21,Female,Yes,Mandarin,D,435,1,0,8,0.0,0.0,1.0,921.519,1.0,434.0,13.0,1.01506,0.964387
Asian,16,Right,21,Female,Yes,Mandarin,D,436,1,8,0,0.0,0.0,1.0,946.358,1.0,435.0,13.0,1.00889,0.982162
Asian,16,Right,21,Female,Yes,Mandarin,D,437,1,8,4,180.0,1.0,1.0,840.615,1.0,436.0,13.0,1.0374,0.897544
Asian,16,Right,21,Female,Yes,Mandarin,D,438,0,4,0,0.0,0.0,1.0,791.783,1.0,437.0,13.0,1.127,0.876897
Asian,16,Right,21,Female,Yes,Mandarin,D,439,0,4,4,180.0,1.0,1.0,981.013,1.0,438.0,13.0,1.00538,0.931161
Asian,16,Right,21,Female,Yes,Mandarin,D,440,1,4,16,0.0,0.0,1.0,785.932,1.0,439.0,13.0,1.16101,0.836012
Asian,16,Right,21,Female,Yes,Mandarin,D,441,0,16,16,180.0,1.0,1.0,1530.74,1.0,440.0,13.0,1.04975,0.912559
Asian,16,Right,21,Female,Yes,Mandarin,D,442,1,8,16,0.0,0.0,1.0,784.268,1.0,441.0,13.0,1.11149,0.909066
Asian,16,Right,21,Female,Yes,Mandarin,D,443,1,0,4,180.0,1.0,1.0,906.371,1.0,442.0,13.0,1.00142,0.900114
Asian,16,Right,21,Female,Yes,Mandarin,D,444,0,16,0,180.0,1.0,1.0,1215.5,1.0,443.0,13.0,1.01252,0.823871
Asian,16,Right,21,Female,Yes,Mandarin,D,445,1,0,0,0.0,0.0,1.0,947.992,1.0,444.0,13.0,1.05986,0.8333
Asian,16,Right,21,Female,Yes,Mandarin,D,446,1,4,8,180.0,1.0,1.0,1126.34,1.0,445.0,13.0,1.06538,0.937175
Asian,16,Right,21,Female,Yes,Mandarin,D,447,0,16,8,0.0,0.0,1.0,1489.28,1.0,446.0,13.0,1.08099,0.829613
Asian,16,Right,21,Female,Yes,Mandarin,D,448,1,0,16,0.0,0.0,1.0,833.415,1.0,447.0,13.0,1.02693,0.925391
Asian,16,Right,21,Female,Yes,Mandarin,D,449,1,16,0,0.0,0.0,1.0,574.374,1.0,448.0,14.0,1.14002,0.963044
Asian,16,Right,21,Female,Yes,Mandarin,D,450,0,16,8,180.0,1.0,1.0,1186.62,1.0,449.0,14.0,1.19157,0.959829
Asian,16,Right,21,Female,Yes,Mandarin,D,451,0,16,4,0.0,0.0,1.0,1089.84,1.0,450.0,14.0,1.18976,0.900873
Asian,16,Right,21,Female,Yes,Mandarin,D,452,0,4,0,180.0,1.0,1.0,1378.25,1.0,451.0,14.0,1.04708,0.978442
Asian,16,Right,21,Female,Yes,Mandarin,D,453,1,0,4,180.0,1.0,1.0,827.858,1.0,452.0,14.0,1.08108,0.883307
Asian,16,Right,21,Female,Yes,Mandarin,D,454,1,0,8,180.0,1.0,1.0,859.366,1.0,453.0,14.0,1.06663,0.899515
Asian,16,Right,21,Female,Yes,Mandarin,D,455,0,8,0,0.0,0.0,1.0,970.406,1.0,454.0,14.0,1.16715,0.858749
Asian,16,Right,21,Female,Yes,Mandarin,D,456,1,16,16,0.0,0.0,1.0,1860.46,1.0,455.0,14.0,1.19743,0.835784
Asian,16,Right,21,Female,Yes,Mandarin,D,457,1,8,0,0.0,0.0,1.0,761.265,1.0,456.0,14.0,1.07634,0.921799
Asian,16,Right,21,Female,Yes,Mandarin,D,458,1,8,16,180.0,1.0,1.0,557.813,1.0,457.0,14.0,1.195,0.954076
Asian,16,Right,21,Female,Yes,Mandarin,D,459,0,16,0,180.0,1.0,1.0,706.528,1.0,458.0,14.0,1.10489,0.816197
Asian,16,Right,21,Female,Yes,Mandarin,D,460,0,4,8,0.0,0.0,1.0,632.057,1.0,459.0,14.0,1.02666,0.93887
Asian,16,Right,21,Female,Yes,Mandarin,D,461,0,16,16,180.0,1.0,1.0,1074.02,1.0,460.0,14.0,1.0065,0.859335
Asian,16,Right,21,Female,Yes,Mandarin,D,462,0,8,16,180.0,1.0,1.0,758.567,1.0,461.0,14.0,1.18941,0.90622
Asian,16,Right,21,Female,Yes,Mandarin,D,463,1,8,4,180.0,1.0,1.0,755.067,1.0,462.0,14.0,1.08161,0.85575
Asian,16,Right,21,Female,Yes,Mandarin,D,464,0,8,4,0.0,0.0,1.0,1425.17,1.0,463.0,14.0,1.197,0.94316
Asian,16,Right,21,Female,Yes,Mandarin,D,465,1,4,0,180.0,1.0,1.0,917.024,1.0,464.0,14.0,1.09733,0.961659
Asian,16,Right,21,Female,Yes,Mandarin,D,466,1,0,16,0.0,0.0,1.0,844.836,1.0,465.0,14.0,1.01726,0.952754
Asian,16,Right,21,Female,Yes,Mandarin,D,467,0,0,4,180.0,1.0,1.0,805.317,1.0,466.0,14.0,1.09433,0.844318
Asian,16,Right,21,Female,Yes,Mandarin,D,468,0,0,8,0.0,0.0,1.0,662.833,1.0,467.0,14.0,1.13817,0.958462
Asian,16,Right,21,Female,Yes,Mandarin,D,469,0,4,16,0.0,0.0,1.0,1424.27,1.0,468.0,14.0,1.0732,0.802313
Asian,16,Right,21,Female,Yes,Mandarin,D,470,1,4,4,180.0,1.0,1.0,952.878,1.0,469.0,14.0,1.06456,0.810492
Asian,16,Right,21,Female,Yes,Mandarin,D,471,1,16,4,0.0,0.0,1.0,762.923,1.0,470.0,14.0,1.16475,0.909628
Asian,16,Right,21,Female,Yes,Mandarin,D,472,0,0,16,0.0,0.0,1.0,828.27,1.0,471.0,14.0,1.03136,0.961301
Asian,16,Right,21,Female,Yes,Mandarin,D,473,1,4,8,180.0,1.0,1.0,795.521,1.0,472.0,14.0,1.06689,0.981214
Asian,16,Right,21,Female,Yes,Mandarin,D,474,0,0,0,0.0,0.0,1.0,616.319,1.0,473.0,14.0,1.00212,0.829856
Asian,16,Right,21,Female,Yes,Mandarin,D,475,1,0,0,0.0,0.0,1.0,642.573,1.0,474.0,14.0,1.11756,0.931702
Asian,16,Right,21,Female,Yes,Mandarin,D,476,0,8,8,180.0,1.0,1.0,696.414,1.0,475.0,14.0,1.03532,0.960537
Asian,16,Right,21,Female,Yes,Mandarin,D,477,1,16,8,0.0,0.0,1.0,748.276,1.0,476.0,14.0,1.19541,0.922275
Asian,16,Right,21,Female,Yes,Mandarin,D,478,1,8,8,0.0,0.0,1.0,1256.98,1.0,477.0,14.0,1.13945,0.980334
Asian,16,Right,21,Female,Yes,Mandarin,D,479,1,4,16,180.0,1.0,1.0,1291.54,1.0,478.0,14.0,1.08125,0.853416
Asian,16,Right,21,Female,Yes,Mandarin,D,480,0,4,4,180.0,1.0,1.0,873.19,1.0,479.0,14.0,1.00051,0.885078
Asian,16,Right,21,Female,Yes,Mandarin,D,481,0,16,16,0.0,0.0,1.0,761.179,1.0,480.0,15.0,1.06802,0.844665
Asian,16,Right,21,Female,Yes,Mandarin,D,482,1,16,0,180.0,1.0,1.0,940.425,1.0,481.0,15.0,1.04184,0.820687
Asian,16,Right,21,Female,Yes,Mandarin,D,483,1,16,8,0.0,0.0,1.0,725.025,1.0,482.0,15.0,1.01892,0.909895
Asian,16,Right,21,Female,Yes,Mandarin,D,484,1,4,8,0.0,0.0,1.0,572.064,1.0,483.0,15.0,1.18345,0.950051
Asian,16,Right,21,Female,Yes,Mandarin,D,485,0,16,0,0.0,0.0,1.0,938.518,1.0,484.0,15.0,1.03294,0.898897
Asian,16,Right,21,Female,Yes,Mandarin,D,486,1,4,0,180.0,1.0,1.0,713.184,1.0,485.0,15.0,1.07107,0.997378
Asian,16,Right,21,Female,Yes,Mandarin,D,487,0,4,8,180.0,1.0,1.0,1027.98,1.0,486.0,15.0,1.15274,0.828688
Asian,16,Right,21,Female,Yes,Mandarin,D,488,0,16,8,0.0,0.0,1.0,825.325,1.0,487.0,15.0,1.16061,0.895947
Asian,16,Right,21,Female,Yes,Mandarin,D,489,0,8,0,180.0,1.0,1.0,958.966,1.0,488.0,15.0,1.0546,0.93236
Asian,16,Right,21,Female,Yes,Mandarin,D,490,1,16,16,0.0,0.0,1.0,656.377,1.0,489.0,15.0,1.17031,0.978285
Asian,16,Right,21,Female,Yes,Mandarin,D,491,1,4,4,180.0,1.0,1.0,745.719,1.0,490.0,15.0,1.14666,0.866902
Asian,16,Right,21,Female,Yes,Mandarin,D,492,0,16,4,180.0,1.0,1.0,1076.75,1.0,491.0,15.0,1.12663,0.840966
Asian,16,Right,21,Female,Yes,Mandarin,D,493,0,8,4,180.0,1.0,1.0,1159.35,1.0,492.0,15.0,1.17504,0.96676
Asian,16,Right,21,Female,Yes,Mandarin,D,494,1,16,4,0.0,0.0,1.0,1327.72,1.0,493.0,15.0,1.14897,0.91091
Asian,16,Right,21,Female,Yes,Mandarin,D,495,0,8,16,180.0,1.0,1.0,986.438,1.0,494.0,15.0,1.17365,0.91714
Asian,16,Right,21,Female,Yes,Mandarin,D,496,1,0,8,180.0,1.0,1.0,620.991,1.0,495.0,15.0,1.0645,0.80283
Asian,16,Right,21,Female,Yes,Mandarin,D,497,0,4,4,180.0,1.0,1.0,764.78,1.0,496.0,15.0,1.17585,0.834567
Asian,16,Right,21,Female,Yes,Mandarin,D,498,1,8,16,0.0,0.0,1.0,864.846,1.0,497.0,15.0,1.08604,0.963839
Asian,16,Right,21,Female,Yes,Mandarin,D,499,0,0,16,0.0,0.0,1.0,964.798,1.0,498.0,15.0,1.05832,0.879257
Asian,16,Right,21,Female,Yes,Mandarin,D,500,1,0,0,180.0,1.0,1.0,690.95,1.0,499.0,15.0,1.1051,0.817355
Asian,16,Right,21,Female,Yes,Mandarin,D,501,0,0,8,0.0,0.0,1.0,843.044,1.0,500.0,15.0,1.1015,0.942662
Asian,16,Right,21,Female,Yes,Mandarin,D,502,0,0,4,180.0,1.0,1.0,1080.64,1.0,501.0,15.0,1.11337,0.928707
Asian,16,Right,21,Female,Yes,Mandarin,D,503,0,0,0,180.0,1.0,1.0,665.269,1.0,502.0,15.0,1.15301,0.875094
Asian,16,Right,21,Female,Yes,Mandarin,D,504,1,0,16,180.0,1.0,1.0,941.169,1.0,503.0,15.0,1.06586,0.80937
Asian,16,Right,21,Female,Yes,Mandarin,D,505,0,4,16,180.0,1.0,1.0,671.243,1.0,504.0,15.0,1.04178,0.922734
Asian,16,Right,21,Female,Yes,Mandarin,D,506,1,8,4,0.0,0.0,1.0,855.9,1.0,505.0,15.0,1.15485,0.949939
Asian,16,Right,21,Female,Yes,Mandarin,D,507,1,0,4,180.0,1.0,1.0,741.846,1.0,506.0,15.0,1.12311,0.825061
Asian,16,Right,21,Female,Yes,Mandarin,D,508,1,4,16,0.0,0.0,1.0,1020.58,1.0,507.0,15.0,1.14608,0.993551
Asian,16,Right,21,Female,Yes,Mandarin,D,509,1,8,0,0.0,0.0,1.0,1152.08,1.0,508.0,15.0,1.18857,0.804889
Asian,16,Right,21,Female,Yes,Mandarin,D,510,1,8,8,0.0,0.0,1.0,1379.47,1.0,509.0,15.0,1.19407,0.854581
Asian,16,Right,21,Female,Yes,Mandarin,D,511,0,8,8,0.0,0.0,1.0,866.134,1.0,510.0,15.0,1.17757,0.885699
Asian,16,Right,21,Female,Yes,Mandarin,D,512,0,4,0,0.0,0.0,1.0,946.157,1.0,511.0,15.0,1.13056,0.89905
Asian,16,Right,21,Female,Yes,Mandarin,D,513,0,16,8,180.0,1.0,1.0,922.598,1.0,512.0,16.0,1.18132,0.810243
Asian,16,Right,21,Female,Yes,Mandarin,D,514,1,8,0,0.0,0.0,1.0,842.99,1.0,513.0,16.0,1.09402,0.95045
Asian,16,Right,21,Female,Yes,Mandarin,D,515,0,4,16,180.0,1.0,1.0,1010.6,1.0,514.0,16.0,1.02111,0.922464
Asian,16,Right,21,Female,Yes,Mandarin,D,516,0,8,16,0.0,0.0,1.0,882.946,1.0,515.0,16.0,1.09387,0.848826
Asian,16,Right,21,Female,Yes,Mandarin,D,517,0,4,0,180.0,1.0,1.0,1069.76,1.0,516.0,16.0,1.00352,0.946691
Asian,16,Right,21,Female,Yes,Mandarin,D,518,1,8,16,0.0,0.0,1.0,879.563,1.0,517.0,16.0,1.03243,0.828437
Asian,16,Right,21,Female,Yes,Mandarin,D,519,0,8,4,180.0,1.0,1.0,1573.09,1.0,518.0,16.0,1.01115,0.849826
Asian,16,Right,21,Female,Yes,Mandarin,D,520,1,16,8,180.0,1.0,1.0,1047.08,1.0,519.0,16.0,1.10585,0.832423
Asian,16,Right,21,Female,Yes,Mandarin,D,521,0,4,4,180.0,1.0,1.0,961.465,1.0,520.0,16.0,1.10627,0.893145
Asian,16,Right,21,Female,Yes,Mandarin,D,522,1,0,4,0.0,0.0,1.0,597.311,1.0,521.0,16.0,1.11646,0.862744
Asian,16,Right,21,Female,Yes,Mandarin,D,523,1,4,16,180.0,1.0,1.0,738.567,1.0,522.0,16.0,1.13854,0.835049
Asian,16,Right,21,Female,Yes,Mandarin,D,524,1,16,4,180.0,1.0,1.0,1030.13,1.0,523.0,16.0,1.05394,0.983432
Asian,16,Right,21,Female,Yes,Mandarin,D,525,1,0,0,180.0,1.0,1.0,841.992,1.0,524.0,16.0,1.11038,0.892361
Asian,16,Right,21,Female,Yes,Mandarin,D,526,0,8,8,0.0,0.0,1.0,1230.68,1.0,525.0,16.0,1.1929,0.974863
Asian,16,Right,21,Female,Yes,Mandarin,D,527,1,4,0,0.0,0.0,1.0,842.719,1.0,526.0,16.0,1.10222,0.807676
Asian,16,Right,21,Female,Yes,Mandarin,D,528,1,16,16,180.0,1.0,1.0,891.206,1.0,527.0,16.0,1.14621,0.996412
Asian,16,Right,21,Female,Yes,Mandarin,D,529,0,16,16,0.0,0.0,1.0,1631.84,1.0,528.0,16.0,1.06223,0.996536
Asian,16,Right,21,Female,Yes,Mandarin,D,530,1,16,0,180.0,1.0,1.0,1557.65,1.0,529.0,16.0,1.13669,0.924903
Asian,16,Right,21,Female,Yes,Mandarin,D,531,0,16,4,180.0,1.0,1.0,1551.54,1.0,530.0,16.0,1.08312,0.983315
Asian,16,Right,21,Female,Yes,Mandarin,D,532,0,0,4,180.0,1.0,1.0,953.64,1.0,531.0,16.0,1.07404,0.849495
Asian,16,Right,21,Female,Yes,Mandarin,D,533,0,4,8,180.0,1.0,1.0,953.339,1.0,532.0,16.0,1.07692,0.838362
Asian,16,Right,21,Female,Yes,Mandarin,D,534,1,0,16,0.0,0.0,1.0,723.079,1.0,533.0,16.0,1.02189,0.939769
Asian,16,Right,21,Female,Yes,Mandarin,D,535,0,8,0,0.0,0.0,1.0,1257.46,1.0,534.0,16.0,1.10194,0.911471
Asian,16,Right,21,Female,Yes,Mandarin,D,536,1,8,4,0.0,0.0,1.0,681.815,1.0,535.0,16.0,1.10193,0.984428
Asian,16,Right,21,Female,Yes,Mandarin,D,537,1,0,8,0.0,0.0,1.0,735.246,1.0,536.0,16.0,1.11806,0.818399
Asian,16,Right,21,Female,Yes,Mandarin,D,538,1,4,8,0.0,0.0,1.0,843.348,1.0,537.0,16.0,1.18547,0.98457
Asian,16,Right,21,Female,Yes,Mandarin,D,539,0,0,8,0.0,0.0,1.0,1016.46,1.0,538.0,16.0,1.03319,0.916863
Asian,16,Right,21,Female,Yes,Mandarin,D,540,0,16,0,180.0,1.0,1.0,915.287,1.0,539.0,16.0,1.07271,0.879092
Asian,16,Right,21,Female,Yes,Mandarin,D,541,0,0,16,180.0,1.0,1.0,961.151,1.0,540.0,16.0,1.06919,0.830398
Asian,16,Right,21,Female,Yes,Mandarin,D,542,0,0,0,0.0,0.0,1.0,762.529,1.0,541.0,16.0,1.02204,0.872697
Asian,16,Right,21,Female,Yes,Mandarin,D,543,1,8,8,0.0,0.0,1.0,875.775,1.0,542.0,16.0,1.14409,0.859849
Asian,16,Right,21,Female,Yes,Mandarin,D,544,1,4,4,0.0,0.0,1.0,1123.82,1.0,543.0,16.0,1.10002,0.865773
Asian,16,Right,21,Female,Yes,Mandarin,D,545,0,16,4,0.0,0.0,1.0,1051.08,1.0,544.0,17.0,1.14696,0.867636
Asian,16,Right,21,Female,Yes,Mandarin,D,546,0,0,4,180.0,1.0,1.0,895.018,1.0,545.0,17.0,1.11457,0.928344
Asian,16,Right,21,Female,Yes,Mandarin,D,547,0,8,8,0.0,0.0,1.0,946.78,1.0,546.0,17.0,1.09707,0.96045
Asian,16,Right,21,Female,Yes,Mandarin,D,548,1,0,8,0.0,0.0,1.0,811.729,1.0,547.0,17.0,1.01905,0.837031
Asian,16,Right,21,Female,Yes,Mandarin,D,549,1,4,16,0.0,0.0,1.0,800.482,1.0,548.0,17.0,1.03595,0.892904
Asian,16,Right,21,Female,Yes,Mandarin,D,550,1,16,8,0.0,0.0,1.0,1250.44,1.0,549.0,17.0,1.07872,0.916261
Asian,16,Right,21,Female,Yes,Mandarin,D,551,1,16,16,180.0,1.0,1.0,1118.42,1.0,550.0,17.0,1.07217,0.838976
Asian,16,Right,21,Female,Yes,Mandarin,D,552,0,8,16,180.0,1.0,1.0,1345.98,1.0,551.0,17.0,1.14466,0.945353
Asian,16,Right,21,Female,Yes,Mandarin,D,553,1,8,4,0.0,0.0,1.0,1942.44,1.0,552.0,17.0,1.15842,0.914333
Asian,16,Right,21,Female,Yes,Mandarin,D,554,1,16,0,180.0,1.0,1.0,951.838,1.0,553.0,17.0,1.08697,0.899425
Asian,16,Right,21,Female,Yes,Mandarin,D,555,1,8,8,180.0,1.0,1.0,658.03,1.0,554.0,17.0,1.19851,0.889866
Asian,16,Right,21,Female,Yes,Mandarin,D,556,1,0,0,0.0,0.0,1.0,753.514,1.0,555.0,17.0,1.06595,0.894685
Asian,16,Right,21,Female,Yes,Mandarin,D,557,0,4,0,180.0,1.0,1.0,1341.37,1.0,556.0,17.0,1.08311,0.904747
Asian,16,Right,21,Female,Yes,Mandarin,D,558,1,4,4,0.0,0.0,1.0,993.054,1.0,557.0,17.0,1.09601,0.840441
Asian,16,Right,21,Female,Yes,Mandarin,D,559,0,8,0,180.0,1.0,1.0,1471.39,1.0,558.0,17.0,1.04396,0.958019
Asian,16,Right,21,Female,Yes,Mandarin,D,560,0,8,4,180.0,1.0,1.0,1126.43,1.0,559.0,17.0,1.0269,0.86575
Asian,16,Right,21,Female,Yes,Mandarin,D,561,1,0,16,180.0,1.0,1.0,729.51,1.0,560.0,17.0,1.07261,0.982989
Asian,16,Right,21,Female,Yes,Mandarin,D,562,1,4,8,0.0,0.0,1.0,734.006,1.0,561.0,17.0,1.07816,0.950288
Asian,16,Right,21,Female,Yes,Mandarin,D,563,0,4,8,0.0,0.0,1.0,1535.56,1.0,562.0,17.0,1.07513,0.898399
Asian,16,Right,21,Female,Yes,Mandarin,D,564,1,8,16,0.0,0.0,1.0,1014.64,1.0,563.0,17.0,1.04735,0.906306
Asian,16,Right,21,Female,Yes,Mandarin,D,565,1,4,0,180.0,1.0,1.0,727.801,1.0,564.0,17.0,1.11942,0.826054
Asian,16,Right,21,Female,Yes,Mandarin,D,566,1,8,0,0.0,0.0,1.0,713.9,1.0,565.0,17.0,1.18094,0.835648
Asian,16,Right,21,Female,Yes,Mandarin,D,567,0,4,16,0.0,0.0,1.0,964.159,1.0,566.0,17.0,1.07281,0.800084
Asian,16,Right,21,Female,Yes,Mandarin,D,568,0,4,4,180.0,1.0,1.0,681.944,1.0,567.0,17.0,1.08282,0.97633
Asian,16,Right,21,Female,Yes,Mandarin,D,569,1,16,4,180.0,1.0,1.0,1323.34,1.0,568.0,17.0,1.09776,0.880119
Asian,16,Right,21,Female,Yes,Mandarin,D,570,0,0,0,0.0,0.0,1.0,718.799,1.0,569.0,17.0,1.04996,0.895188
Asian,16,Right,21,Female,Yes,Mandarin,D,571,0,16,16,0.0,0.0,1.0,723.691,1.0,570.0,17.0,1.04249,0.93181
Asian,16,Right,21,Female,Yes,Mandarin,D,572,0,0,16,180.0,1.0,1.0,844.445,1.0,571.0,17.0,1.1198,0.856021
Asian,16,Right,21,Female,Yes,Mandarin,D,573,0,0,8,180.0,1.0,1.0,785.016,1.0,572.0,17.0,1.03127,0.936218
Asian,16,Right,21,Female,Yes,Mandarin,D,574,1,0,4,0.0,0.0,1.0,729.79,1.0,573.0,17.0,1.16492,0.922563
Asian,16,Right,21,Female,Yes,Mandarin,D,575,0,16,0,180.0,1.0,1.0,767.009,1.0,574.0,17.0,1.08736,0.936294
Asian,16,Right,21,Female,Yes,Mandarin,D,576,0,16,8,180.0,1.0,1.0,1003.51,1.0,575.0,17.0,1.18018,0.883111
Asian,16,Right,21,Female,Yes,Mandarin,D,577,0,8,8,0.0,0.0,1.0,1507.16,1.0,576.0,18.0,1.17377,0.872019
Asian,16,Right,21,Female,Yes,Mandarin,D,578,1,4,16,180.0,1.0,1.0,1189.33,1.0,577.0,18.0,1.09357,0.953997
Asian,16,Right,21,Female,Yes,Mandarin,D,579,0,4,16,0.0,0.0,1.0,1362.27,1.0,578.0,18.0,1.06938,0.933362
Asian,16,Right,21,Female,Yes,Mandarin,D,580,0,0,0,0.0,0.0,1.0,1052.66,1.0,579.0,18.0,1.15947,0.866803
Asian,16,Right,21,Female,Yes,Mandarin,D,581,0,4,8,0.0,0.0,1.0,1838.06,1.0,580.0,18.0,1.13527,0.995432
Asian,16,Right,21,Female,Yes,Mandarin,D,582,0,8,0,0.0,0.0,1.0,1125.13,1.0,581.0,18.0,1.14208,0.96225
Asian,16,Right,21,Female,Yes,Mandarin,D,583,1,8,8,180.0,1.0,1.0,1570.78,1.0,582.0,18.0,1.1986,0.840115
Asian,16,Right,21,Female,Yes,Mandarin,D,584,1,16,0,180.0,1.0,1.0,1146.78,1.0,583.0,18.0,1.13489,0.814958
Asian,16,Right,21,Female,Yes,Mandarin,D,585,0,8,4,180.0,1.0,1.0,1398.81,1.0,584.0,18.0,1.09218,0.855171
Asian,16,Right,21,Female,Yes,Mandarin,D,586,1,0,16,180.0,1.0,1.0,649.58,1.0,585.0,18.0,1.10924,0.874075
Asian,16,Right,21,Female,Yes,Mandarin,D,587,0,4,0,180.0,1.0,1.0,939.728,1.0,586.0,18.0,1.07107,0.929546
Asian,16,Right,21,Female,Yes,Mandarin,D,588,1,16,8,0.0,0.0,1.0,1107.51,1.0,587.0,18.0,1.19474,0.885255
Asian,16,Right,21,Female,Yes,Mandarin,D,589,1,4,4,0.0,0.0,1.0,814.161,1.0,588.0,18.0,1.14434,0.965823
Asian,16,Right,21,Female,Yes,Mandarin,D,590,0,0,16,180.0,1.0,1.0,912.599,1.0,589.0,18.0,1.02732,0.838846
Asian,16,Right,21,Female,Yes,Mandarin,D,591,0,0,8,180.0,1.0,1.0,829.525,1.0,590.0,18.0,1.1934,0.988473
Asian,16,Right,21,Female,Yes,Mandarin,D,592,0,16,8,180.0,1.0,1.0,912.706,1.0,591.0,18.0,1.05995,0.912652
Asian,16,Right,21,Female,Yes,Mandarin,D,593,1,0,4,0.0,0.0,1.0,806.136,1.0,592.0,18.0,1.07078,0.889825
Asian,16,Right,21,Female,Yes,Mandarin,D,594,1,8,4,0.0,0.0,1.0,1178.74,1.0,593.0,18.0,1.14033,0.884707
Asian,16,Right,21,Female,Yes,Mandarin,D,595,0,16,16,180.0,1.0,1.0,884.009,1.0,594.0,18.0,1.15696,0.903142
Asian,16,Right,21,Female,Yes,Mandarin,D,596,1,0,0,180.0,1.0,1.0,1136.36,1.0,595.0,18.0,1.18884,0.865278
Asian,16,Right,21,Female,Yes,Mandarin,D,597,1,8,16,180.0,1.0,1.0,1113.81,1.0,596.0,18.0,1.11203,0.959075
Asian,16,Right,21,Female,Yes,Mandarin,D,598,0,0,4,0.0,0.0,1.0,995.902,1.0,597.0,18.0,1.11631,0.923632
Asian,16,Right,21,Female,Yes,Mandarin,D,599,1,16,16,0.0,0.0,1.0,1069.17,1.0,598.0,18.0,1.05123,0.972383
Asian,16,Right,21,Female,Yes,Mandarin,D,600,1,8,0,180.0,1.0,1.0,1027.05,1.0,599.0,18.0,1.07832,0.994643
Asian,16,Right,21,Female,Yes,Mandarin,D,601,1,4,8,0.0,0.0,1.0,746.111,1.0,600.0,18.0,1.18149,0.885739
Asian,16,Right,21,Female,Yes,Mandarin,D,602,1,0,8,180.0,1.0,1.0,960.404,1.0,601.0,18.0,1.16157,0.975095
Asian,16,Right,21,Female,Yes,Mandarin,D,603,0,16,0,0.0,0.0,1.0,1497.85,1.0,602.0,18.0,1.12872,0.893228
Asian,16,Right,21,Female,Yes,Mandarin,D,604,0,4,4,180.0,1.0,1.0,1074.3,1.0,603.0,18.0,1.05285,0.820862
Asian,16,Right,21,Female,Yes,Mandarin,D,605,0,16,4,0.0,0.0,1.0,881.713,1.0,604.0,18.0,1.03526,0.92513
Asian,16,Right,21,Female,Yes,Mandarin,D,606,1,16,4,180.0,1.0,1.0,816.933,1.0,605.0,18.0,1.15147,0.9554
Asian,16,Right,21,Female,Yes,Mandarin,D,607,0,8,16,0.0,0.0,1.0,803.038,1.0,606.0,18.0,1.11609,0.809939
Asian,16,Right,21,Female,Yes,Mandarin,D,608,1,4,0,0.0,0.0,1.0,1366.77,1.0,607.0,18.0,1.18617,0.912278
Asian,16,Right,21,Female,Yes,Mandarin,D,609,0,16,16,0.0,0.0,1.0,852.632,1.0,608.0,19.0,1.01472,0.858647
Asian,16,Right,21,Female,Yes,Mandarin,D,610,1,4,16,180.0,1.0,1.0,1010.62,1.0,609.0,19.0,1.00433,0.956589
Asian,16,Right,21,Female,Yes,Mandarin,D,611,0,16,8,0.0,0.0,1.0,1068.36,1.0,610.0,19.0,1.17421,0.93373
Asian,16,Right,21,Female,Yes,Mandarin,D,612,1,8,4,180.0,1.0,1.0,960.088,1.0,611.0,19.0,1.11302,0.931062
Asian,16,Right,21,Female,Yes,Mandarin,D,613,0,8,8,0.0,0.0,1.0,916.983,1.0,612.0,19.0,1.14561,0.853498
Asian,16,Right,21,Female,Yes,Mandarin,D,614,1,16,4,0.0,0.0,1.0,949.263,1.0,613.0,19.0,1.17471,0.872596
Asian,16,Right,21,Female,Yes,Mandarin,D,615,1,0,16,0.0,0.0,1.0,656.898,1.0,614.0,19.0,1.04083,0.95084
Asian,16,Right,21,Female,Yes,Mandarin,D,616,1,16,16,180.0,1.0,1.0,1192.08,1.0,615.0,19.0,1.12694,0.920123
Asian,16,Right,21,Female,Yes,Mandarin,D,617,1,0,0,180.0,1.0,1.0,665.956,1.0,616.0,19.0,1.0887,0.964239
Asian,16,Right,21,Female,Yes,Mandarin,D,618,0,4,16,0.0,0.0,1.0,775.603,1.0,617.0,19.0,1.07584,0.912448
Asian,16,Right,21,Female,Yes,Mandarin,D,619,0,4,4,0.0,0.0,1.0,673.71,1.0,618.0,19.0,1.04785,0.987543
Asian,16,Right,21,Female,Yes,Mandarin,D,620,0,8,0,180.0,1.0,1.0,773.303,1.0,619.0,19.0,1.06751,0.883917
Asian,16,Right,21,Female,Yes,Mandarin,D,621,1,8,0,180.0,1.0,1.0,958.149,1.0,620.0,19.0,1.12612,0.950321
Asian,16,Right,21,Female,Yes,Mandarin,D,622,0,8,16,0.0,0.0,1.0,1312.46,1.0,621.0,19.0,1.09013,0.899938
Asian,16,Right,21,Female,Yes,Mandarin,D,623,1,8,8,180.0,1.0,1.0,956.587,1.0,622.0,19.0,1.11335,0.890585
Asian,16,Right,21,Female,Yes,Mandarin,D,624,1,4,0,0.0,0.0,1.0,961.88,1.0,623.0,19.0,1.04238,0.883016
Asian,16,Right,21,Female,Yes,Mandarin,D,625,1,8,16,180.0,1.0,1.0,770.072,1.0,624.0,19.0,1.0875,0.823232
Asian,16,Right,21,Female,Yes,Mandarin,D,626,0,16,4,180.0,1.0,1.0,1020.63,1.0,625.0,19.0,1.06583,0.849413
Asian,16,Right,21,Female,Yes,Mandarin,D,627,1,0,8,0.0,0.0,1.0,742.749,1.0,626.0,19.0,1.0944,0.998874
Asian,16,Right,21,Female,Yes,Mandarin,D,628,0,0,16,0.0,0.0,1.0,1045.92,1.0,627.0,19.0,1.0057,0.839026
Asian,16,Right,21,Female,Yes,Mandarin,D,629,1,0,4,0.0,0.0,1.0,736.54,1.0,628.0,19.0,1.15911,0.961273
Asian,16,Right,21,Female,Yes,Mandarin,D,630,1,16,0,0.0,0.0,1.0,1213.85,1.0,629.0,19.0,1.07734,0.855363
Asian,16,Right,21,Female,Yes,Mandarin,D,631,0,0,4,180.0,1.0,1.0,808.158,1.0,630.0,19.0,1.09957,0.807321
Asian,16,Right,21,Female,Yes,Mandarin,D,632,0,4,0,180.0,1.0,1.0,697.383,1.0,631.0,19.0,1.06775,0.942089
Asian,16,Right,21,Female,Yes,Mandarin,D,633,1,4,4,180.0,1.0,1.0,767.138,1.0,632.0,19.0,1.17631,0.815832
Asian,16,Right,21,Female,Yes,Mandarin,D,634,0,0,0,180.0,1.0,1.0,917.316,1.0,633.0,19.0,1.01461,0.807078
Asian,16,Right,21,Female,Yes,Mandarin,D,635,0,16,0,180.0,1.0,1.0,956.963,1.0,634.0,19.0,1.11034,0.975454
Asian,16,Right,21,Female,Yes,Mandarin,D,636,1,16,8,0.0,0.0,1.0,1956.83,1.0,635.0,19.0,1.0136,0.8388
Asian,16,Right,21,Female,Yes,Mandarin,D,637,0,4,8,0.0,0.0,1.0,927.009,1.0,636.0,19.0,1.14455,0.862263
Asian,16,Right,21,Female,Yes,Mandarin,D,638,1,4,8,0.0,0.0,1.0,817.511,1.0,637.0,19.0,1.01834,0.924746
Asian,16,Right,21,Female,Yes,Mandarin,D,639,0,8,4,180.0,1.0,1.0,734.454,1.0,638.0,19.0,1.19909,0.801653
Asian,16,Right,21,Female,Yes,Mandarin,D,640,0,0,8,180.0,1.0,1.0,737.894,1.0,639.0,19.0,1.14931,0.821566
Asian,16,Right,21,Female,Yes,Mandarin,D,641,0,0,8,0.0,0.0,1.0,678.752,1.0,640.0,20.0,1.09153,0.841382
Asian,16,Right,21,Female,Yes,Mandarin,D,642,0,4,8,0.0,0.0,1.0,1006.67,1.0,641.0,20.0,1.03496,0.869292
Asian,16,Right,21,Female,Yes,Mandarin,D,643,1,4,4,180.0,1.0,1.0,1115.87,1.0,642.0,20.0,1.06123,0.996303
Asian,16,Right,21,Female,Yes,Mandarin,D,644,0,8,0,0.0,0.0,1.0,747.049,1.0,643.0,20.0,1.02026,0.812939
Asian,16,Right,21,Female,Yes,Mandarin,D,645,1,4,0,0.0,0.0,1.0,937.598,1.0,644.0,20.0,1.01522,0.801476
Asian,16,Right,21,Female,Yes,Mandarin,D,646,0,16,16,0.0,0.0,1.0,819.608,1.0,645.0,20.0,1.01445,0.968416
Asian,16,Right,21,Female,Yes,Mandarin,D,647,1,4,8,180.0,1.0,1.0,880.136,1.0,646.0,20.0,1.09516,0.978508
Asian,16,Right,21,Female,Yes,Mandarin,D,648,0,8,4,180.0,1.0,1.0,824.489,1.0,647.0,20.0,1.16458,0.910092
Asian,16,Right,21,Female,Yes,Mandarin,D,649,1,16,8,180.0,1.0,1.0,712.744,1.0,648.0,20.0,1.10376,0.930504
Asian,16,Right,21,Female,Yes,Mandarin,D,650,1,16,4,0.0,0.0,1.0,991.865,1.0,649.0,20.0,1.15977,0.873045
Asian,16,Right,21,Female,Yes,Mandarin,D,651,1,0,4,0.0,0.0,1.0,598.277,1.0,650.0,20.0,1.16117,0.907686
Asian,16,Right,21,Female,Yes,Mandarin,D,652,0,0,4,180.0,1.0,1.0,754.911,1.0,651.0,20.0,1.10241,0.862185
Asian,16,Right,21,Female,Yes,Mandarin,D,653,1,16,16,0.0,0.0,1.0,1028.13,1.0,652.0,20.0,1.04561,0.918531
Asian,16,Right,21,Female,Yes,Mandarin,D,654,1,4,16,180.0,1.0,1.0,716.901,1.0,653.0,20.0,1.17616,0.94248
Asian,16,Right,21,Female,Yes,Mandarin,D,655,0,16,0,180.0,1.0,1.0,1424.86,1.0,654.0,20.0,1.16259,0.920345
Asian,16,Right,21,Female,Yes,Mandarin,D,656,0,4,0,180.0,1.0,1.0,821.84,1.0,655.0,20.0,1.04466,0.844056
Asian,16,Right,21,Female,Yes,Mandarin,D,657,0,0,16,0.0,0.0,1.0,614.621,1.0,656.0,20.0,1.05494,0.908502
Asian,16,Right,21,Female,Yes,Mandarin,D,658,1,16,0,180.0,1.0,1.0,634.383,1.0,657.0,20.0,1.12783,0.90743
Asian,16,Right,21,Female,Yes,Mandarin,D,659,1,8,4,0.0,0.0,1.0,653.742,1.0,658.0,20.0,1.04247,0.940696
Asian,16,Right,21,Female,Yes,Mandarin,D,660,1,8,16,0.0,0.0,1.0,763.293,1.0,659.0,20.0,1.14364,0.955627
Asian,16,Right,21,Female,Yes,Mandarin,D,661,0,8,16,180.0,1.0,1.0,1228.96,1.0,660.0,20.0,1.07361,0.835081
Asian,16,Right,21,Female,Yes,Mandarin,D,662,0,4,16,0.0,0.0,1.0,753.337,1.0,661.0,20.0,1.03265,0.977714
Asian,16,Right,21,Female,Yes,Mandarin,D,663,0,16,8,180.0,1.0,1.0,1030.52,1.0,662.0,20.0,1.10672,0.90454
Asian,16,Right,21,Female,Yes,Mandarin,D,664,1,0,16,180.0,1.0,1.0,666.821,1.0,663.0,20.0,1.10335,0.996997
Asian,16,Right,21,Female,Yes,Mandarin,D,665,1,8,0,180.0,1.0,1.0,941.276,1.0,664.0,20.0,1.12184,0.842909
Asian,16,Right,21,Female,Yes,Mandarin,D,666,0,8,8,180.0,1.0,1.0,1122.81,1.0,665.0,20.0,1.12093,0.888174
Asian,16,Right,21,Female,Yes,Mandarin,D,667,1,8,8,180.0,1.0,1.0,1040.93,1.0,666.0,20.0,1.17758,0.845913
Asian,16,Right,21,Female,Yes,Mandarin,D,668,1,0,0,0.0,0.0,1.0,1387.17,1.0,667.0,20.0,1.07739,0.874461
Asian,16,Right,21,Female,Yes,Mandarin,D,669,0,16,4,0.0,0.0,1.0,1406.07,1.0,668.0,20.0,1.14961,0.912911
Asian,16,Right,21,Female,Yes,Mandarin,D,670,1,0,8,0.0,0.0,1.0,767.411,1.0,669.0,20.0,1.08432,0.801311
Asian,16,Right,21,Female,Yes,Mandarin,D,671,0,0,0,180.0,1.0,1.0,689.756,1.0,670.0,20.0,1.06616,0.804265
Asian,16,Right,21,Female,Yes,Mandarin,D,672,0,4,4,0.0,0.0,1.0,890.903,1.0,671.0,20.0,1.1228,0.889849
Asian,16,Right,21,Female,Yes,Mandarin,D,673,0,8,0,180.0,1.0,1.0,941.888,1.0,672.0,21.0,1.11284,0.987109
Asian,16,Right,21,Female,Yes,Mandarin,D,674,0,0,0,0.0,0.0,1.0,691.113,1.0,673.0,21.0,1.05526,0.987351
Asian,16,Right,21,Female,Yes,Mandarin,D,675,1,16,8,0.0,0.0,1.0,950.868,1.0,674.0,21.0,1.17116,0.812821
Asian,16,Right,21,Female,Yes,Mandarin,D,676,1,4,16,180.0,1.0,1.0,849.117,1.0,675.0,21.0,1.11814,0.823456
Asian,16,Right,21,Female,Yes,Mandarin,D,677,0,16,16,180.0,1.0,1.0,857.13,1.0,676.0,21.0,1.03475,0.801677
Asian,16,Right,21,Female,Yes,Mandarin,D,678,1,16,4,180.0,1.0,1.0,706.061,1.0,677.0,21.0,1.00948,0.907414
Asian,16,Right,21,Female,Yes,Mandarin,D,679,0,4,8,180.0,1.0,1.0,887.353,1.0,678.0,21.0,1.19758,0.831437
Asian,16,Right,21,Female,Yes,Mandarin,D,680,1,4,8,0.0,0.0,1.0,798.364,1.0,679.0,21.0,1.18751,0.955926
Asian,16,Right,21,Female,Yes,Mandarin,D,681,0,4,0,180.0,1.0,1.0,735.155,1.0,680.0,21.0,1.02703,0.937099
Asian,16,Right,21,Female,Yes,Mandarin,D,682,0,8,8,0.0,0.0,1.0,1001.33,1.0,681.0,21.0,1.08138,0.928145
Asian,16,Right,21,Female,Yes,Mandarin,D,683,1,0,4,0.0,0.0,1.0,843.098,1.0,682.0,21.0,1.09655,0.839131
Asian,16,Right,21,Female,Yes,Mandarin,D,684,0,16,4,180.0,1.0,1.0,728.879,1.0,683.0,21.0,1.10341,0.828211
Asian,16,Right,21,Female,Yes,Mandarin,D,685,0,8,16,0.0,0.0,1.0,1029.29,1.0,684.0,21.0,1.04254,0.958447
Asian,16,Right,21,Female,Yes,Mandarin,D,686,0,0,4,180.0,1.0,1.0,816.185,1.0,685.0,21.0,1.18557,0.816115
Asian,16,Right,21,Female,Yes,Mandarin,D,687,1,0,16,180.0,1.0,1.0,640.159,1.0,686.0,21.0,1.13366,0.98081
Asian,16,Right,21,Female,Yes,Mandarin,D,688,1,8,16,0.0,0.0,1.0,1017.34,1.0,687.0,21.0,1.04868,0.800784
Asian,16,Right,21,Female,Yes,Mandarin,D,689,1,4,4,0.0,0.0,1.0,1169.71,1.0,688.0,21.0,1.10032,0.931392
Asian,16,Right,21,Female,Yes,Mandarin,D,690,1,8,0,0.0,0.0,1.0,858.778,1.0,689.0,21.0,1.16509,0.818403
Asian,16,Right,21,Female,Yes,Mandarin,D,691,0,16,8,180.0,1.0,1.0,883.583,1.0,690.0,21.0,1.02924,0.975939
Asian,16,Right,21,Female,Yes,Mandarin,D,692,0,8,4,0.0,0.0,1.0,1023.16,1.0,691.0,21.0,1.18429,0.898337
Asian,16,Right,21,Female,Yes,Mandarin,D,693,0,16,0,0.0,0.0,1.0,1254.7,1.0,692.0,21.0,1.06398,0.950302
Asian,16,Right,21,Female,Yes,Mandarin,D,694,1,0,0,180.0,1.0,1.0,625.286,1.0,693.0,21.0,1.02674,0.807478
Asian,16,Right,21,Female,Yes,Mandarin,D,695,0,0,16,0.0,0.0,1.0,713.11,1.0,694.0,21.0,1.06997,0.918353
Asian,16,Right,21,Female,Yes,Mandarin,D,696,1,8,4,180.0,1.0,1.0,1068.56,1.0,695.0,21.0,1.06141,0.925417
Asian,16,Right,21,Female,Yes,Mandarin,D,697,0,4,16,0.0,0.0,1.0,915.511,1.0,696.0,21.0,1.18537,0.941327
Asian,16,Right,21,Female,Yes,Mandarin,D,698,1,16,16,180.0,1.0,1.0,1231.87,1.0,697.0,21.0,1.06071,0.928852
Asian,16,Right,21,Female,Yes,Mandarin,D,699,1,8,8,0.0,0.0,1.0,950.686,1.0,698.0,21.0,1.07402,0.87794
Asian,16,Right,21,Female,Yes,Mandarin,D,700,0,0,8,180.0,1.0,1.0,920.449,1.0,699.0,21.0,1.15433,0.937868
Asian,16,Right,21,Female,Yes,Mandarin,D,701,1,4,0,0.0,0.0,1.0,830.509,1.0,700.0,21.0,1.138,0.860901
Asian,16,Right,21,Female,Yes,Mandarin,D,702,0,4,4,180.0,1.0,1.0,1287.33,1.0,701.0,21.0,1.0162,0.812738
Asian,16,Right,21,Female,Yes,Mandarin,D,703,1,16,0,0.0,0.0,1.0,1200.7,1.0,702.0,21.0,1.12766,0.948617
Asian,16,Right,21,Female,Yes,Mandarin,D,704,1,0,8,180.0,1.0,1.0,886.688,1.0,703.0,21.0,1.06741,0.910905
Asian,16,Right,21,Female,Yes,Mandarin,D,705,0,4,0,0.0,0.0,1.0,804.993,1.0,704.0,22.0,1.04567,0.959585
Asian,16,Right,21,Female,Yes,Mandarin,D,706,1,0,8,180.0,1.0,1.0,727.363,1.0,705.0,22.0,1.07283,0.849638
Asian,16,Right,21,Female,Yes,Mandarin,D,707,1,0,16,0.0,0.0,1.0,840.787,1.0,706.0,22.0,1.13627,0.993124
Asian,16,Right,21,Female,Yes,Mandarin,D,708,1,0,4,0.0,0.0,1.0,692.225,1.0,707.0,22.0,1.15365,0.831236
Asian,16,Right,21,Female,Yes,Mandarin,D,709,0,16,8,180.0,1.0,1.0,859.259,1.0,708.0,22.0,1.10284,0.906827
Asian,16,Right,21,Female,Yes,Mandarin,D,710,0,4,16,180.0,1.0,1.0,714.701,1.0,709.0,22.0,1.1272,0.840325
Asian,16,Right,21,Female,Yes,Mandarin,D,711,1,4,4,0.0,0.0,1.0,934.688,1.0,710.0,22.0,1.12147,0.802231
Asian,16,Right,21,Female,Yes,Mandarin,D,712,0,16,16,0.0,0.0,1.0,1216.73,1.0,711.0,22.0,1.15287,0.972767
Asian,16,Right,21,Female,Yes,Mandarin,D,713,1,4,8,0.0,0.0,1.0,951.551,1.0,712.0,22.0,1.1038,0.839023
Asian,16,Right,21,Female,Yes,Mandarin,D,714,1,4,0,180.0,1.0,1.0,1553.32,1.0,713.0,22.0,1.12641,0.869473
Asian,16,Right,21,Female,Yes,Mandarin,D,715,0,8,8,0.0,0.0,1.0,673.616,1.0,714.0,22.0,1.14508,0.863395
Asian,16,Right,21,Female,Yes,Mandarin,D,716,1,16,0,180.0,1.0,1.0,1093.12,1.0,715.0,22.0,1.17341,0.989438
Asian,16,Right,21,Female,Yes,Mandarin,D,717,0,8,0,0.0,0.0,1.0,629.388,1.0,716.0,22.0,1.1857,0.879274
Asian,16,Right,21,Female,Yes,Mandarin,D,718,0,0,0,0.0,0.0,1.0,1033.77,1.0,717.0,22.0,1.01828,0.896488
Asian,16,Right,21,Female,Yes,Mandarin,D,719,0,16,0,180.0,1.0,1.0,856.903,1.0,718.0,22.0,1.06638,0.837779
Asian,16,Right,21,Female,Yes,Mandarin,D,720,0,8,16,0.0,0.0,1.0,902.742,1.0,719.0,22.0,1.14983,0.935336
Asian,16,Right,21,Female,Yes,Mandarin,D,721,0,0,8,180.0,1.0,1.0,807.721,1.0,720.0,22.0,1.14208,0.840411
Asian,16,Right,21,Female,Yes,Mandarin,D,722,1,8,8,0.0,0.0,1.0,1064.94,1.0,721.0,22.0,1.18157,0.945691
Asian,16,Right,21,Female,Yes,Mandarin,D,723,1,16,4,0.0,0.0,1.0,812.729,1.0,722.0,22.0,1.16044,0.919757
Asian,16,Right,21,Female,Yes,Mandarin,D,724,1,16,8,180.0,1.0,1.0,902.288,1.0,723.0,22.0,1.09461,0.9665
Asian,16,Right,21,Female,Yes,Mandarin,D,725,1,8,0,0.0,0.0,1.0,1424.37,1.0,724.0,22.0,1.12235,0.889673
Asian,16,Right,21,Female,Yes,Mandarin,D,726,0,8,4,180.0,1.0,1.0,1135.18,1.0,725.0,22.0,1.06115,0.973064
Asian,16,Right,21,Female,Yes,Mandarin,D,727,0,0,16,0.0,0.0,1.0,929.586,1.0,726.0,22.0,1.09244,0.953121
Asian,16,Right,21,Female,Yes,Mandarin,D,728,1,16,16,0.0,0.0,1.0,1052.86,1.0,727.0,22.0,1.10116,0.817121
Asian,16,Right,21,Female,Yes,Mandarin,D,729,0,16,4,180.0,1.0,1.0,1249.47,1.0,728.0,22.0,1.18992,0.805023
Asian,16,Right,21,Female,Yes,Mandarin,D,730,1,4,16,180.0,1.0,1.0,1057.51,1.0,729.0,22.0,1.12453,0.887048
Asian,16,Right,21,Female,Yes,Mandarin,D,731,0,4,4,180.0,1.0,1.0,1389.47,1.0,730.0,22.0,1.10175,0.994591
Asian,16,Right,21,Female,Yes,Mandarin,D,732,1,0,0,180.0,1.0,1.0,519.732,1.0,731.0,22.0,1.12108,0.90955
Asian,16,Right,21,Female,Yes,Mandarin,D,733,0,0,4,180.0,1.0,1.0,1173.33,1.0,732.0,22.0,1.12372,0.870147
Asian,16,Right,21,Female,Yes,Mandarin,D,734,0,4,8,0.0,0.0,1.0,913.567,1.0,733.0,22.0,1.09703,0.956824
Asian,16,Right,21,Female,Yes,Mandarin,D,735,1,8,16,180.0,1.0,1.0,1085.02,1.0,734.0,22.0,1.12815,0.979356
Asian,16,Right,21,Female,Yes,Mandarin,D,736,1,8,4,180.0,1.0,1.0,641.971,1.0,735.0,22.0,1.0782,0.853956
Asian,16,Right,21,Female,Yes,Mandarin,D,737,1,8,0,180.0,1.0,1.0,1212.6,1.0,736.0,23.0,1.07352,0.856291
Asian,16,Right,21,Female,Yes,Mandarin,D,738,0,0,0,0.0,0.0,1.0,651.795,1.0,737.0,23.0,1.0486,0.960821
Asian,16,Right,21,Female,Yes,Mandarin,D,739,1,8,8,180.0,1.0,1.0,1280.61,1.0,738.0,23.0,1.18811,0.818643
Asian,16,Right,21,Female,Yes,Mandarin,D,740,1,16,4,180.0,1.0,1.0,1013.78,1.0,739.0,23.0,1.19263,0.960917
Asian,16,Right,21,Female,Yes,Mandarin,D,741,0,0,8,180.0,1.0,1.0,900.893,1.0,740.0,23.0,1.17397,0.930948
Asian,16,Right,21,Female,Yes,Mandarin,D,742,1,4,8,180.0,1.0,1.0,879.932,1.0,741.0,23.0,1.16245,0.825821
Asian,16,Right,21,Female,Yes,Mandarin,D,743,1,16,16,0.0,0.0,1.0,675.788,1.0,742.0,23.0,1.10039,0.963181
Asian,16,Right,21,Female,Yes,Mandarin,D,744,0,4,0,180.0,1.0,1.0,1288.72,1.0,743.0,23.0,1.10689,0.959352
Asian,16,Right,21,Female,Yes,Mandarin,D,745,0,4,4,0.0,0.0,1.0,1134.71,1.0,744.0,23.0,1.14137,0.840173
Asian,16,Right,21,Female,Yes,Mandarin,D,746,0,4,16,0.0,0.0,1.0,1143.13,1.0,745.0,23.0,1.07081,0.95297
Asian,16,Right,21,Female,Yes,Mandarin,D,747,1,16,0,0.0,0.0,1.0,1013.97,1.0,746.0,23.0,1.02216,0.921666
Asian,16,Right,21,Female,Yes,Mandarin,D,748,0,0,16,180.0,1.0,1.0,610.881,1.0,747.0,23.0,1.05797,0.988741
Asian,16,Right,21,Female,Yes,Mandarin,D,749,0,16,4,0.0,0.0,1.0,794.017,1.0,748.0,23.0,1.19351,0.974842
Asian,16,Right,21,Female,Yes,Mandarin,D,750,1,0,0,0.0,0.0,1.0,582.203,1.0,749.0,23.0,1.02796,0.86433
Asian,16,Right,21,Female,Yes,Mandarin,D,751,0,8,16,0.0,0.0,1.0,859.503,1.0,750.0,23.0,1.06789,0.875194
Asian,16,Right,21,Female,Yes,Mandarin,D,752,0,8,0,180.0,1.0,1.0,662.195,1.0,751.0,23.0,1.10987,0.892179
Asian,16,Right,21,Female,Yes,Mandarin,D,753,1,8,4,180.0,1.0,1.0,1429.72,1.0,752.0,23.0,1.17227,0.987431
Asian,16,Right,21,Female,Yes,Mandarin,D,754,1,4,16,0.0,0.0,1.0,1079.19,1.0,753.0,23.0,1.10939,0.807846
Asian,16,Right,21,Female,Yes,Mandarin,D,755,0,8,8,180.0,1.0,1.0,890.557,1.0,754.0,23.0,1.08845,0.915348
Asian,16,Right,21,Female,Yes,Mandarin,D,756,0,16,16,180.0,1.0,1.0,826.779,1.0,755.0,23.0,1.13132,0.953601
Asian,16,Right,21,Female,Yes,Mandarin,D,757,0,16,0,0.0,0.0,1.0,649.81,1.0,756.0,23.0,1.1972,0.863427
Asian,16,Right,21,Female,Yes,Mandarin,D,758,1,16,8,0.0,0.0,1.0,760.361,1.0,757.0,23.0,1.08549,0.856803
Asian,16,Right,21,Female,Yes,Mandarin,D,759,1,0,16,0.0,0.0,1.0,571.429,1.0,758.0,23.0,1.13856,0.892409
Asian,16,Right,21,Female,Yes,Mandarin,D,760,1,4,0,180.0,1.0,1.0,623.007,1.0,759.0,23.0,1.129,0.812581
Asian,16,Right,21,Female,Yes,Mandarin,D,761,0,4,8,180.0,1.0,1.0,739.36,1.0,760.0,23.0,1.04064,0.940925
Asian,16,Right,21,Female,Yes,Mandarin,D,762,0,0,4,0.0,0.0,1.0,677.107,1.0,761.0,23.0,1.05582,0.943769
Asian,16,Right,21,Female,Yes,Mandarin,D,763,1,4,4,0.0,0.0,1.0,947.916,1.0,762.0,23.0,1.06602,0.897197
Asian,16,Right,21,Female,Yes,Mandarin,D,764,1,8,16,0.0,0.0,1.0,551.567,1.0,763.0,23.0,1.01567,0.998987
Asian,16,Right,21,Female,Yes,Mandarin,D,765,1,0,8,0.0,0.0,1.0,1012.57,1.0,764.0,23.0,1.12423,0.859146
Asian,16,Right,21,Female,Yes,Mandarin,D,766,0,8,4,180.0,1.0,1.0,1120.74,1.0,765.0,23.0,1.08656,0.855392
Asian,16,Right,21,Female,Yes,Mandarin,D,767,1,0,4,180.0,1.0,1.0,800.281,1.0,766.0,23.0,1.13796,0.959662
Asian,16,Right,21,Female,Yes,Mandarin,D,768,0,16,8,180.0,1.0,1.0,633.822,1.0,767.0,23.0,1.03127,0.911728
