Ethnicity,Subject Number,Preferred Hand,Age,Gender,Color blind,First Language,Room,TrialNumber,background,turtles,tortoises,target_id,resp,hit,rt,ran,order,block,iti,fix_duration
White,21,Right,21,Male,No,English,A,1,1,16,8,180.0,1.0,1.0,1074.37,1.0,0.0,0.0,1.02313,0.962767
White,21,Right,21,Male,No,English,A,2,0,8,8,180.0,1.0,1.0,1031.19,1.0,1.0,0.0,1.09724,0.955802
White,21,Right,21,Male,No,English,A,3,1,8,0,0.0,0.0,1.0,1198.02,1.0,2.0,0.0,1.15119,0.953637
White,21,Right,21,Male,No,English,A,4,1,4,8,0.0,0.0,1.0,1129.91,1.0,3.0,0.0,1.16349,0.969003
White,21,Right,21,Male,No,English,A,5,1,4,0,180.0,1.0,1.0,973.807,1.0,4.0,0.0,1.15817,0.841436
White,21,Right,21,Male,No,English,A,6,0,0,16,0.0,0.0,1.0,1017.88,1.0,5.0,0.0,1.15373,0.999961
White,21,Right,21,Male,No,English,A,7,0,8,16,0.0,0.0,1.0,1196.89,1.0,6.0,0.0,1.14142,0.996881
White,21,Right,21,Male,No,English,A,8,0,8,0,180.0,1.0,1.0,841.914,1.0,7.0,0.0,1.07222,0.95346
White,21,Right,21,Male,No,English,A,9,1,16,4,0.0,0.0,1.0,720.259,1.0,8.0,0.0,1.08585,0.937249
White,21,Right,21,Male,No,English,A,10,0,4,4,180.0,1.0,1.0,623.127,1.0,9.0,0.0,1.14452,0.869601
White,21,Right,21,Male,No,English,A,11,1,0,16,180.0,1.0,1.0,786.193,1.0,10.0,0.0,1.15015,0.95766
White,21,Right,21,Male,No,English,A,12,0,8,4,180.0,1.0,1.0,806.066,1.0,11.0,0.0,1.16627,0.845129
White,21,Right,21,Male,No,English,A,13,0,4,8,180.0,1.0,1.0,1031.74,1.0,12.0,0.0,1.15368,0.842851
White,21,Right,21,Male,No,English,A,14,0,4,0,0.0,0.0,1.0,681.42,1.0,13.0,0.0,1.12404,0.899915
White,21,Right,21,Male,No,English,A,15,0,0,0,0.0,0.0,1.0,704.111,1.0,14.0,0.0,1.01336,0.864322
White,21,Right,21,Male,No,English,A,16,0,0,4,0.0,0.0,1.0,866.911,1.0,15.0,0.0,1.04037,0.906393
White,21,Right,21,Male,No,English,A,17,1,8,8,0.0,0.0,1.0,1902.55,1.0,16.0,0.0,1.11978,0.80472
White,21,Right,21,Male,No,English,A,18,1,0,0,180.0,1.0,1.0,919.608,1.0,17.0,0.0,1.11949,0.975287
White,21,Right,21,Male,No,English,A,19,1,0,4,0.0,0.0,1.0,748.308,1.0,18.0,0.0,1.11485,0.932488
White,21,Right,21,Male,No,English,A,20,0,16,4,180.0,1.0,1.0,1242.89,1.0,19.0,0.0,1.14807,0.85262
White,21,Right,21,Male,No,English,A,21,1,0,8,180.0,1.0,1.0,925.339,1.0,20.0,0.0,1.10766,0.81935
White,21,Right,21,Male,No,English,A,22,1,8,4,180.0,1.0,1.0,955.156,1.0,21.0,0.0,1.13284,0.994371
White,21,Right,21,Male,No,English,A,23,1,16,0,0.0,0.0,1.0,1118.99,1.0,22.0,0.0,1.18121,0.875775
White,21,Right,21,Male,No,English,A,24,0,0,8,0.0,0.0,1.0,1386.14,1.0,23.0,0.0,1.10778,0.996301
White,21,Right,21,Male,No,English,A,25,1,8,16,180.0,1.0,1.0,1693.71,1.0,24.0,0.0,1.13873,0.840526
White,21,Right,21,Male,No,English,A,26,0,4,16,180.0,1.0,1.0,1241.07,1.0,25.0,0.0,1.06591,0.91006
White,21,Right,21,Male,No,English,A,27,1,4,16,0.0,0.0,1.0,957.798,1.0,26.0,0.0,1.19985,0.925936
White,21,Right,21,Male,No,English,A,28,0,16,16,180.0,1.0,1.0,1078.91,1.0,27.0,0.0,1.07495,0.848097
White,21,Right,21,Male,No,English,A,29,0,16,8,0.0,0.0,1.0,1179.15,1.0,28.0,0.0,1.1205,0.930061
White,21,Right,21,Male,No,English,A,30,1,16,16,0.0,0.0,1.0,1388.58,1.0,29.0,0.0,1.13323,0.823118
White,21,Right,21,Male,No,English,A,31,0,16,0,180.0,1.0,1.0,1269.45,1.0,30.0,0.0,1.01335,0.995464
White,21,Right,21,Male,No,English,A,32,1,4,4,0.0,0.0,1.0,1538.63,1.0,31.0,0.0,1.09596,0.953104
White,21,Right,21,Male,No,English,A,33,1,8,0,180.0,1.0,1.0,1017.78,1.0,32.0,1.0,1.03771,0.960271
White,21,Right,21,Male,No,English,A,34,1,0,16,180.0,1.0,1.0,724.683,1.0,33.0,1.0,1.1035,0.815038
White,21,Right,21,Male,No,English,A,35,0,0,16,0.0,0.0,1.0,605.797,1.0,34.0,1.0,1.10476,0.806058
White,21,Right,21,Male,No,English,A,36,0,8,4,180.0,1.0,1.0,1228.63,1.0,35.0,1.0,1.03545,0.860179
White,21,Right,21,Male,No,English,A,37,1,8,8,0.0,0.0,1.0,1384.16,1.0,36.0,1.0,1.00714,0.844115
White,21,Right,21,Male,No,English,A,38,1,8,4,180.0,1.0,1.0,687.659,1.0,37.0,1.0,1.18,0.975644
White,21,Right,21,Male,No,English,A,39,1,0,4,180.0,1.0,1.0,955.819,1.0,38.0,1.0,1.09184,0.876862
White,21,Right,21,Male,No,English,A,40,0,0,8,0.0,0.0,1.0,763.622,1.0,39.0,1.0,1.18044,0.828101
White,21,Right,21,Male,No,English,A,41,0,8,16,180.0,1.0,1.0,1121.2,1.0,40.0,1.0,1.1311,0.805836
White,21,Right,21,Male,No,English,A,42,0,0,4,180.0,1.0,1.0,685.186,1.0,41.0,1.0,1.15384,0.83625
White,21,Right,21,Male,No,English,A,43,0,8,8,0.0,0.0,1.0,899.275,1.0,42.0,1.0,1.12041,0.98565
White,21,Right,21,Male,No,English,A,44,1,16,0,0.0,0.0,1.0,979.856,1.0,43.0,1.0,1.12649,0.886973
White,21,Right,21,Male,No,English,A,45,1,16,8,180.0,1.0,1.0,1006.77,1.0,44.0,1.0,1.05805,0.863414
White,21,Right,21,Male,No,English,A,46,0,16,4,180.0,1.0,1.0,709.89,1.0,45.0,1.0,1.14194,0.9151
White,21,Right,21,Male,No,English,A,47,1,16,4,180.0,1.0,1.0,1161.39,1.0,46.0,1.0,1.19075,0.836163
White,21,Right,21,Male,No,English,A,48,1,4,0,0.0,0.0,1.0,950.735,1.0,47.0,1.0,1.12322,0.810606
White,21,Right,21,Male,No,English,A,49,0,4,0,180.0,1.0,1.0,882.046,1.0,48.0,1.0,1.13019,0.883864
White,21,Right,21,Male,No,English,A,50,0,16,8,0.0,0.0,1.0,671.82,1.0,49.0,1.0,1.14084,0.981076
White,21,Right,21,Male,No,English,A,51,0,8,0,0.0,0.0,1.0,888.79,1.0,50.0,1.0,1.19519,0.865547
White,21,Right,21,Male,No,English,A,52,0,0,0,0.0,0.0,1.0,749.498,1.0,51.0,1.0,1.07445,0.997943
White,21,Right,21,Male,No,English,A,53,1,4,4,0.0,0.0,1.0,1215.24,1.0,52.0,1.0,1.04757,0.900019
White,21,Right,21,Male,No,English,A,54,0,4,8,0.0,0.0,1.0,1740.36,1.0,53.0,1.0,1.03874,0.97013
White,21,Right,21,Male,No,English,A,55,0,16,0,0.0,0.0,1.0,745.526,1.0,54.0,1.0,1.01754,0.905378
White,21,Right,21,Male,No,English,A,56,1,0,0,0.0,0.0,1.0,683.584,1.0,55.0,1.0,1.1415,0.841837
White,21,Right,21,Male,No,English,A,57,1,4,16,180.0,1.0,1.0,822.749,1.0,56.0,1.0,1.18006,0.825395
White,21,Right,21,Male,No,English,A,58,0,16,16,180.0,1.0,1.0,925.469,1.0,57.0,1.0,1.13332,0.868163
White,21,Right,21,Male,No,English,A,59,0,4,16,0.0,0.0,1.0,629.039,1.0,58.0,1.0,1.03884,0.888939
White,21,Right,21,Male,No,English,A,60,1,8,16,0.0,0.0,1.0,961.676,1.0,59.0,1.0,1.14181,0.840725
White,21,Right,21,Male,No,English,A,61,1,0,8,180.0,1.0,1.0,766.859,1.0,60.0,1.0,1.0405,0.828987
White,21,Right,21,Male,No,English,A,62,1,4,8,180.0,1.0,1.0,1082.06,1.0,61.0,1.0,1.10297,0.933747
White,21,Right,21,Male,No,English,A,63,1,16,16,180.0,1.0,1.0,1324.39,1.0,62.0,1.0,1.10285,0.959543
White,21,Right,21,Male,No,English,A,64,0,4,4,0.0,0.0,1.0,995.343,1.0,63.0,1.0,1.17501,0.911999
White,21,Right,21,Male,No,English,A,65,0,0,0,0.0,0.0,1.0,794.216,1.0,64.0,2.0,1.17676,0.863128
White,21,Right,21,Male,No,English,A,66,0,8,0,180.0,1.0,1.0,830.036,1.0,65.0,2.0,1.10668,0.945074
White,21,Right,21,Male,No,English,A,67,0,16,8,180.0,1.0,1.0,696.059,1.0,66.0,2.0,1.01728,0.827909
White,21,Right,21,Male,No,English,A,68,1,8,8,0.0,0.0,1.0,767.508,1.0,67.0,2.0,1.0012,0.926206
White,21,Right,21,Male,No,English,A,69,1,16,16,0.0,0.0,1.0,1116.03,1.0,68.0,2.0,1.17529,0.97537
White,21,Right,21,Male,No,English,A,70,1,0,4,0.0,0.0,1.0,948.609,1.0,69.0,2.0,1.09076,0.828921
White,21,Right,21,Male,No,English,A,71,1,4,8,0.0,0.0,1.0,776.276,1.0,70.0,2.0,1.19483,0.985096
White,21,Right,21,Male,No,English,A,72,0,4,8,180.0,1.0,1.0,708.376,1.0,71.0,2.0,1.07925,0.813892
White,21,Right,21,Male,No,English,A,73,1,16,0,0.0,0.0,1.0,1261.19,1.0,72.0,2.0,1.17563,0.838693
White,21,Right,21,Male,No,English,A,74,0,8,16,180.0,1.0,1.0,660.836,1.0,73.0,2.0,1.04112,0.850117
White,21,Right,21,Male,No,English,A,75,0,16,16,0.0,0.0,1.0,741.1,1.0,74.0,2.0,1.19016,0.929634
White,21,Right,21,Male,No,English,A,76,1,8,16,0.0,0.0,1.0,861.094,1.0,75.0,2.0,1.06072,0.997294
White,21,Right,21,Male,No,English,A,77,1,0,16,0.0,0.0,1.0,839.884,1.0,76.0,2.0,1.17305,0.829285
White,21,Right,21,Male,No,English,A,78,0,16,0,180.0,1.0,1.0,844.582,1.0,77.0,2.0,1.1185,0.904644
White,21,Right,21,Male,No,English,A,79,1,8,0,180.0,1.0,1.0,1015.22,1.0,78.0,2.0,1.17917,0.996729
White,21,Right,21,Male,No,English,A,80,1,4,16,180.0,1.0,1.0,1080.88,1.0,79.0,2.0,1.14685,0.829207
White,21,Right,21,Male,No,English,A,81,0,4,0,0.0,0.0,1.0,995.376,1.0,80.0,2.0,1.07592,0.965506
White,21,Right,21,Male,No,English,A,82,0,4,4,180.0,1.0,1.0,1253.38,1.0,81.0,2.0,1.0534,0.899417
White,21,Right,21,Male,No,English,A,83,0,0,8,180.0,1.0,1.0,626.63,1.0,82.0,2.0,1.15444,0.890767
White,21,Right,21,Male,No,English,A,84,0,8,4,180.0,1.0,1.0,945.688,1.0,83.0,2.0,1.05596,0.897977
White,21,Right,21,Male,No,English,A,85,0,8,8,180.0,1.0,1.0,822.928,1.0,84.0,2.0,1.09514,0.838593
White,21,Right,21,Male,No,English,A,86,1,4,4,0.0,0.0,1.0,884.755,1.0,85.0,2.0,1.12531,0.908558
White,21,Right,21,Male,No,English,A,87,1,0,0,180.0,1.0,1.0,1150.77,1.0,86.0,2.0,1.16763,0.945978
White,21,Right,21,Male,No,English,A,88,1,4,0,180.0,1.0,1.0,825.178,1.0,87.0,2.0,1.00661,0.881247
White,21,Right,21,Male,No,English,A,89,0,0,16,0.0,0.0,1.0,859.895,1.0,88.0,2.0,1.05088,0.877666
White,21,Right,21,Male,No,English,A,90,0,4,16,0.0,0.0,1.0,675.944,1.0,89.0,2.0,1.0713,0.954658
White,21,Right,21,Male,No,English,A,91,0,16,4,0.0,0.0,1.0,840.108,1.0,90.0,2.0,1.02449,0.937061
White,21,Right,21,Male,No,English,A,92,1,8,4,0.0,0.0,1.0,692.54,1.0,91.0,2.0,1.09969,0.964427
White,21,Right,21,Male,No,English,A,93,1,16,8,180.0,1.0,1.0,1024.73,1.0,92.0,2.0,1.14461,0.908978
White,21,Right,21,Male,No,English,A,94,1,0,8,0.0,0.0,1.0,1202.32,1.0,93.0,2.0,1.19563,0.999562
White,21,Right,21,Male,No,English,A,95,1,16,4,180.0,1.0,1.0,805.032,1.0,94.0,2.0,1.01812,0.86268
White,21,Right,21,Male,No,English,A,96,0,0,4,180.0,1.0,1.0,918.868,1.0,95.0,2.0,1.1395,0.857316
White,21,Right,21,Male,No,English,A,97,1,0,8,0.0,0.0,1.0,815.774,1.0,96.0,3.0,1.12781,0.896648
White,21,Right,21,Male,No,English,A,98,0,8,4,0.0,0.0,1.0,1406.12,1.0,97.0,3.0,1.16014,0.92774
White,21,Right,21,Male,No,English,A,99,0,4,16,0.0,0.0,1.0,807.719,1.0,98.0,3.0,1.1144,0.931501
White,21,Right,21,Male,No,English,A,100,0,0,8,180.0,1.0,1.0,771.812,1.0,99.0,3.0,1.15215,0.878633
White,21,Right,21,Male,No,English,A,101,1,16,0,180.0,1.0,1.0,859.364,1.0,100.0,3.0,1.19989,0.969524
White,21,Right,21,Male,No,English,A,102,1,0,16,180.0,1.0,1.0,971.883,1.0,101.0,3.0,1.04962,0.923923
White,21,Right,21,Male,No,English,A,103,0,4,8,180.0,1.0,1.0,866.722,1.0,102.0,3.0,1.09747,0.832666
White,21,Right,21,Male,No,English,A,104,0,4,4,0.0,0.0,1.0,768.37,1.0,103.0,3.0,1.10369,0.944624
White,21,Right,21,Male,No,English,A,105,0,8,0,0.0,0.0,1.0,685.713,1.0,104.0,3.0,1.14254,0.982727
White,21,Right,21,Male,No,English,A,106,1,0,4,0.0,0.0,1.0,685.965,1.0,105.0,3.0,1.04399,0.930166
White,21,Right,21,Male,No,English,A,107,0,16,4,0.0,0.0,1.0,963.25,1.0,106.0,3.0,1.18336,0.911279
White,21,Right,21,Male,No,English,A,108,1,8,0,0.0,0.0,1.0,776.274,1.0,107.0,3.0,1.0503,0.976708
White,21,Right,21,Male,No,English,A,109,1,8,8,0.0,0.0,1.0,890.403,1.0,108.0,3.0,1.07205,0.882743
White,21,Right,21,Male,No,English,A,110,1,8,4,180.0,1.0,1.0,1024.75,1.0,109.0,3.0,1.13911,0.875771
White,21,Right,21,Male,No,English,A,111,0,0,4,180.0,1.0,1.0,666.335,1.0,110.0,3.0,1.01671,0.972128
White,21,Right,21,Male,No,English,A,112,1,16,16,180.0,1.0,1.0,1045.04,1.0,111.0,3.0,1.01766,0.819296
White,21,Right,21,Male,No,English,A,113,1,16,8,0.0,0.0,1.0,1063.68,1.0,112.0,3.0,1.05978,0.970628
White,21,Right,21,Male,No,English,A,114,0,0,16,0.0,0.0,1.0,833.535,1.0,113.0,3.0,1.12198,0.836714
White,21,Right,21,Male,No,English,A,115,0,8,16,0.0,0.0,1.0,703.299,1.0,114.0,3.0,1.06435,0.893209
White,21,Right,21,Male,No,English,A,116,0,16,8,180.0,1.0,1.0,1728.46,1.0,115.0,3.0,1.16524,0.907685
White,21,Right,21,Male,No,English,A,117,0,8,8,180.0,1.0,1.0,1203.49,1.0,116.0,3.0,1.02603,0.972508
White,21,Right,21,Male,No,English,A,118,0,16,16,0.0,0.0,1.0,935.139,1.0,117.0,3.0,1.09614,0.867987
White,21,Right,21,Male,No,English,A,119,0,16,0,180.0,1.0,1.0,918.334,1.0,118.0,3.0,1.11537,0.896396
White,21,Right,21,Male,No,English,A,120,1,4,4,180.0,1.0,1.0,1092.87,1.0,119.0,3.0,1.07799,0.832793
White,21,Right,21,Male,No,English,A,121,1,4,16,180.0,1.0,1.0,1127.78,1.0,120.0,3.0,1.11536,0.964627
White,21,Right,21,Male,No,English,A,122,1,4,0,180.0,1.0,1.0,842.092,1.0,121.0,3.0,1.07137,0.984444
White,21,Right,21,Male,No,English,A,123,1,16,4,0.0,0.0,1.0,781.294,1.0,122.0,3.0,1.188,0.819608
White,21,Right,21,Male,No,English,A,124,0,0,0,0.0,0.0,1.0,786.597,1.0,123.0,3.0,1.09354,0.890492
White,21,Right,21,Male,No,English,A,125,1,4,8,180.0,1.0,1.0,1283.05,1.0,124.0,3.0,1.13824,0.817249
White,21,Right,21,Male,No,English,A,126,1,0,0,0.0,0.0,1.0,979.88,1.0,125.0,3.0,1.14442,0.812726
White,21,Right,21,Male,No,English,A,127,0,4,0,180.0,1.0,1.0,854.51,1.0,126.0,3.0,1.06748,0.844163
White,21,Right,21,Male,No,English,A,128,1,8,16,180.0,1.0,1.0,1076.7,1.0,127.0,3.0,1.0538,0.813147
White,21,Right,21,Male,No,English,A,129,0,16,16,180.0,1.0,1.0,913.705,1.0,128.0,4.0,1.01359,0.887299
White,21,Right,21,Male,No,English,A,130,0,0,16,0.0,0.0,1.0,867.099,1.0,129.0,4.0,1.03958,0.928557
White,21,Right,21,Male,No,English,A,131,0,8,16,180.0,1.0,1.0,846.311,1.0,130.0,4.0,1.00831,0.932526
White,21,Right,21,Male,No,English,A,132,1,0,16,180.0,1.0,1.0,791.807,1.0,131.0,4.0,1.14057,0.883523
White,21,Right,21,Male,No,English,A,133,0,0,0,180.0,1.0,1.0,687.647,1.0,132.0,4.0,1.14203,0.956832
White,21,Right,21,Male,No,English,A,134,1,8,0,0.0,0.0,1.0,846.639,1.0,133.0,4.0,1.00571,0.956526
White,21,Right,21,Male,No,English,A,135,0,0,4,180.0,1.0,1.0,763.849,1.0,134.0,4.0,1.18786,0.842627
White,21,Right,21,Male,No,English,A,136,0,16,8,180.0,1.0,1.0,738.455,1.0,135.0,4.0,1.08377,0.991159
White,21,Right,21,Male,No,English,A,137,1,8,4,0.0,0.0,1.0,1336.74,1.0,136.0,4.0,1.18075,0.872477
White,21,Right,21,Male,No,English,A,138,1,16,16,0.0,0.0,1.0,1487.94,1.0,137.0,4.0,1.02979,0.916601
White,21,Right,21,Male,No,English,A,139,1,16,8,180.0,1.0,1.0,1020.14,1.0,138.0,4.0,1.18959,0.819758
White,21,Right,21,Male,No,English,A,140,1,16,4,0.0,0.0,1.0,885.451,1.0,139.0,4.0,1.12994,0.82175
White,21,Right,21,Male,No,English,A,141,0,4,0,180.0,1.0,1.0,902.05,1.0,140.0,4.0,1.16046,0.948265
White,21,Right,21,Male,No,English,A,142,1,8,8,180.0,1.0,1.0,824.615,1.0,141.0,4.0,1.05523,0.989544
White,21,Right,21,Male,No,English,A,143,1,4,16,0.0,0.0,1.0,873.266,1.0,142.0,4.0,1.19512,0.872238
White,21,Right,21,Male,No,English,A,144,1,8,16,0.0,0.0,1.0,686.366,1.0,143.0,4.0,1.12129,0.90866
White,21,Right,21,Male,No,English,A,145,0,8,4,180.0,1.0,1.0,1038.82,1.0,144.0,4.0,1.13954,0.944694
White,21,Right,21,Male,No,English,A,146,0,4,8,180.0,1.0,1.0,804.47,1.0,145.0,4.0,1.12316,0.904952
White,21,Right,21,Male,No,English,A,147,0,16,4,0.0,0.0,1.0,704.897,1.0,146.0,4.0,1.06277,0.861761
White,21,Right,21,Male,No,English,A,148,0,4,16,0.0,0.0,1.0,896.518,1.0,147.0,4.0,1.1648,0.982032
White,21,Right,21,Male,No,English,A,149,1,4,4,180.0,1.0,1.0,790.325,1.0,148.0,4.0,1.15355,0.962667
White,21,Right,21,Male,No,English,A,150,0,8,0,0.0,0.0,1.0,642.751,1.0,149.0,4.0,1.04496,0.860415
White,21,Right,21,Male,No,English,A,151,1,16,0,0.0,0.0,1.0,1195.88,1.0,150.0,4.0,1.012,0.854277
White,21,Right,21,Male,No,English,A,152,1,0,4,0.0,0.0,1.0,788.773,1.0,151.0,4.0,1.12671,0.924502
White,21,Right,21,Male,No,English,A,153,0,0,8,180.0,1.0,1.0,937.743,1.0,152.0,4.0,1.16111,0.871104
White,21,Right,21,Male,No,English,A,154,0,16,0,180.0,1.0,1.0,850.355,1.0,153.0,4.0,1.00484,0.878402
White,21,Right,21,Male,No,English,A,155,1,0,0,180.0,1.0,1.0,721.112,1.0,154.0,4.0,1.12383,0.982463
White,21,Right,21,Male,No,English,A,156,1,0,8,0.0,0.0,1.0,723.913,1.0,155.0,4.0,1.0444,0.830157
White,21,Right,21,Male,No,English,A,157,0,8,8,0.0,0.0,1.0,690.698,1.0,156.0,4.0,1.03877,0.914367
White,21,Right,21,Male,No,English,A,158,1,4,8,0.0,0.0,1.0,1408.37,1.0,157.0,4.0,1.15712,0.895223
White,21,Right,21,Male,No,English,A,159,0,4,4,0.0,0.0,1.0,844.086,1.0,158.0,4.0,1.0321,0.87453
White,21,Right,21,Male,No,English,A,160,1,4,0,180.0,1.0,1.0,1008.86,1.0,159.0,4.0,1.08534,0.920576
White,21,Right,21,Male,No,English,A,161,1,0,4,180.0,1.0,1.0,1042.24,1.0,160.0,5.0,1.11763,0.96385
White,21,Right,21,Male,No,English,A,162,1,16,16,180.0,1.0,1.0,808.509,1.0,161.0,5.0,1.17825,0.8747
White,21,Right,21,Male,No,English,A,163,1,16,8,180.0,1.0,1.0,1574.79,1.0,162.0,5.0,1.08608,0.897706
White,21,Right,21,Male,No,English,A,164,0,4,16,0.0,0.0,1.0,1124.79,1.0,163.0,5.0,1.10099,0.802873
White,21,Right,21,Male,No,English,A,165,0,4,0,180.0,1.0,1.0,975.512,1.0,164.0,5.0,1.02589,0.864954
White,21,Right,21,Male,No,English,A,166,0,0,8,180.0,1.0,1.0,905.576,1.0,165.0,5.0,1.15849,0.829082
White,21,Right,21,Male,No,English,A,167,0,16,16,0.0,0.0,1.0,1725.31,1.0,166.0,5.0,1.05096,0.987694
White,21,Right,21,Male,No,English,A,168,0,8,4,180.0,1.0,1.0,1134.53,1.0,167.0,5.0,1.15553,0.921911
White,21,Right,21,Male,No,English,A,169,1,4,16,180.0,1.0,1.0,942.977,1.0,168.0,5.0,1.00107,0.804781
White,21,Right,21,Male,No,English,A,170,0,16,0,0.0,0.0,1.0,999.937,1.0,169.0,5.0,1.07366,0.973799
White,21,Right,21,Male,No,English,A,171,0,16,4,180.0,1.0,1.0,981.108,1.0,170.0,5.0,1.03523,0.853592
White,21,Right,21,Male,No,English,A,172,0,16,8,0.0,0.0,1.0,764.017,1.0,171.0,5.0,1.11287,0.938093
White,21,Right,21,Male,No,English,A,173,0,0,0,0.0,0.0,1.0,1347.88,1.0,172.0,5.0,1.03112,0.913447
White,21,Right,21,Male,No,English,A,174,1,4,0,180.0,1.0,1.0,949.795,1.0,173.0,5.0,1.17629,0.81477
White,21,Right,21,Male,No,English,A,175,1,0,0,0.0,0.0,1.0,824.145,1.0,174.0,5.0,1.11877,0.832746
White,21,Right,21,Male,No,English,A,176,1,4,8,0.0,0.0,1.0,1440.6,1.0,175.0,5.0,1.05089,0.961719
White,21,Right,21,Male,No,English,A,177,0,8,0,0.0,0.0,1.0,1620.77,1.0,176.0,5.0,1.04246,0.852172
White,21,Right,21,Male,No,English,A,178,1,4,4,180.0,1.0,1.0,826.004,1.0,177.0,5.0,1.03043,0.937608
White,21,Right,21,Male,No,English,A,179,1,0,16,0.0,0.0,1.0,1392.44,1.0,178.0,5.0,1.10817,0.98869
White,21,Right,21,Male,No,English,A,180,0,4,8,0.0,0.0,1.0,1210.74,1.0,179.0,5.0,1.00984,0.900865
White,21,Right,21,Male,No,English,A,181,1,8,0,180.0,1.0,1.0,1441.83,1.0,180.0,5.0,1.04694,0.873854
White,21,Right,21,Male,No,English,A,182,1,16,4,180.0,1.0,1.0,1013.33,1.0,181.0,5.0,1.08522,0.913901
White,21,Right,21,Male,No,English,A,183,0,8,16,0.0,0.0,1.0,972.076,1.0,182.0,5.0,1.08575,0.958961
White,21,Right,21,Male,No,English,A,184,1,8,16,0.0,0.0,1.0,932.914,1.0,183.0,5.0,1.14421,0.909433
White,21,Right,21,Male,No,English,A,185,1,0,8,180.0,1.0,1.0,1145.92,1.0,184.0,5.0,1.03641,0.815428
White,21,Right,21,Male,No,English,A,186,1,16,0,180.0,1.0,1.0,1076.45,1.0,185.0,5.0,1.09999,0.864611
White,21,Right,21,Male,No,English,A,187,0,8,8,0.0,0.0,1.0,1247.42,1.0,186.0,5.0,1.19923,0.951879
White,21,Right,21,Male,No,English,A,188,1,8,4,0.0,0.0,1.0,1505.18,1.0,187.0,5.0,1.04417,0.824998
White,21,Right,21,Male,No,English,A,189,1,8,8,180.0,1.0,1.0,701.295,1.0,188.0,5.0,1.13712,0.984843
White,21,Right,21,Male,No,English,A,190,0,0,4,180.0,1.0,1.0,1209.81,1.0,189.0,5.0,1.14991,0.883513
White,21,Right,21,Male,No,English,A,191,0,0,16,0.0,0.0,1.0,1422.63,1.0,190.0,5.0,1.15764,0.820419
White,21,Right,21,Male,No,English,A,192,0,4,4,0.0,0.0,1.0,1680.03,1.0,191.0,5.0,1.18831,0.929077
White,21,Right,21,Male,No,English,A,193,1,0,16,180.0,1.0,1.0,858.538,1.0,192.0,6.0,1.04929,0.919396
White,21,Right,21,Male,No,English,A,194,0,0,4,0.0,0.0,1.0,668.103,1.0,193.0,6.0,1.04773,0.909134
White,21,Right,21,Male,No,English,A,195,0,4,8,180.0,1.0,1.0,827.378,1.0,194.0,6.0,1.14039,0.969646
White,21,Right,21,Male,No,English,A,196,0,8,8,0.0,0.0,1.0,977.099,1.0,195.0,6.0,1.04085,0.889805
White,21,Right,21,Male,No,English,A,197,1,16,4,180.0,1.0,1.0,826.002,1.0,196.0,6.0,1.03691,0.992515
White,21,Right,21,Male,No,English,A,198,1,0,8,180.0,1.0,1.0,587.525,1.0,197.0,6.0,1.18349,0.948295
White,21,Right,21,Male,No,English,A,199,1,4,0,0.0,0.0,1.0,583.637,1.0,198.0,6.0,1.06027,0.87193
White,21,Right,21,Male,No,English,A,200,1,8,4,180.0,1.0,1.0,926.642,1.0,199.0,6.0,1.09642,0.842471
White,21,Right,21,Male,No,English,A,201,0,8,16,180.0,1.0,1.0,715.98,1.0,200.0,6.0,1.01284,0.970577
White,21,Right,21,Male,No,English,A,202,0,4,0,180.0,1.0,1.0,986.944,1.0,201.0,6.0,1.01568,0.956385
White,21,Right,21,Male,No,English,A,203,0,16,0,180.0,1.0,1.0,1157.5,1.0,202.0,6.0,1.08077,0.837479
White,21,Right,21,Male,No,English,A,204,0,0,0,0.0,0.0,1.0,818.671,1.0,203.0,6.0,1.01329,0.917722
White,21,Right,21,Male,No,English,A,205,0,0,16,180.0,1.0,1.0,1005.2,1.0,204.0,6.0,1.00171,0.829169
White,21,Right,21,Male,No,English,A,206,0,4,16,0.0,0.0,1.0,860.143,1.0,205.0,6.0,1.12899,0.905825
White,21,Right,21,Male,No,English,A,207,0,4,4,180.0,1.0,1.0,609.643,1.0,206.0,6.0,1.13524,0.865967
White,21,Right,21,Male,No,English,A,208,1,8,8,0.0,0.0,1.0,944.569,1.0,207.0,6.0,1.07041,0.819326
White,21,Right,21,Male,No,English,A,209,1,4,16,180.0,1.0,1.0,865.1,1.0,208.0,6.0,1.12415,0.938842
White,21,Right,21,Male,No,English,A,210,1,16,16,180.0,1.0,1.0,1176.78,1.0,209.0,6.0,1.13176,0.963455
White,21,Right,21,Male,No,English,A,211,0,0,8,0.0,0.0,1.0,1306.23,1.0,210.0,6.0,1.01546,0.898335
White,21,Right,21,Male,No,English,A,212,1,0,4,180.0,1.0,1.0,836.699,1.0,211.0,6.0,1.15518,0.938929
White,21,Right,21,Male,No,English,A,213,1,8,0,0.0,0.0,1.0,626.019,1.0,212.0,6.0,1.08955,0.906817
White,21,Right,21,Male,No,English,A,214,0,16,16,0.0,0.0,1.0,1168.22,1.0,213.0,6.0,1.1581,0.871236
White,21,Right,21,Male,No,English,A,215,0,16,8,0.0,0.0,1.0,1138.55,1.0,214.0,6.0,1.05734,0.912752
White,21,Right,21,Male,No,English,A,216,1,16,8,0.0,0.0,1.0,1457.92,1.0,215.0,6.0,1.07773,0.995465
White,21,Right,21,Male,No,English,A,217,1,4,8,0.0,0.0,1.0,1692.55,1.0,216.0,6.0,1.17304,0.986485
White,21,Right,21,Male,No,English,A,218,1,0,0,0.0,0.0,1.0,887.597,1.0,217.0,6.0,1.15829,0.829781
White,21,Right,21,Male,No,English,A,219,1,16,0,0.0,0.0,1.0,1123.02,1.0,218.0,6.0,1.16419,0.803277
White,21,Right,21,Male,No,English,A,220,0,16,4,180.0,1.0,1.0,843.225,1.0,219.0,6.0,1.0534,0.987181
White,21,Right,21,Male,No,English,A,221,0,8,4,0.0,0.0,1.0,1227.77,1.0,220.0,6.0,1.19311,0.814639
White,21,Right,21,Male,No,English,A,222,1,4,4,180.0,1.0,1.0,998.577,1.0,221.0,6.0,1.18032,0.85117
White,21,Right,21,Male,No,English,A,223,0,8,0,180.0,1.0,1.0,950.77,1.0,222.0,6.0,1.03671,0.911253
White,21,Right,21,Male,No,English,A,224,1,8,16,0.0,0.0,1.0,1219.11,1.0,223.0,6.0,1.07064,0.947414
White,21,Right,21,Male,No,English,A,225,0,0,0,180.0,1.0,1.0,658.572,1.0,224.0,7.0,1.0203,0.875995
White,21,Right,21,Male,No,English,A,226,1,8,8,0.0,0.0,1.0,1024.69,1.0,225.0,7.0,1.08003,0.906469
White,21,Right,21,Male,No,English,A,227,0,4,8,180.0,1.0,1.0,668.505,1.0,226.0,7.0,1.15016,0.927697
White,21,Right,21,Male,No,English,A,228,0,0,16,0.0,0.0,1.0,892.131,1.0,227.0,7.0,1.16322,0.826782
White,21,Right,21,Male,No,English,A,229,1,8,4,0.0,0.0,1.0,1269.85,1.0,228.0,7.0,1.12907,0.969237
White,21,Right,21,Male,No,English,A,230,0,16,0,0.0,0.0,1.0,882.769,1.0,229.0,7.0,1.09636,0.806017
White,21,Right,21,Male,No,English,A,231,1,16,8,180.0,1.0,1.0,2025.64,1.0,230.0,7.0,1.16994,0.888249
White,21,Right,21,Male,No,English,A,232,1,4,16,180.0,1.0,1.0,675.364,1.0,231.0,7.0,1.18423,0.862336
White,21,Right,21,Male,No,English,A,233,1,4,8,180.0,1.0,1.0,876.248,1.0,232.0,7.0,1.06405,0.967598
White,21,Right,21,Male,No,English,A,234,1,16,16,180.0,1.0,1.0,762.551,1.0,233.0,7.0,1.05509,0.996665
White,21,Right,21,Male,No,English,A,235,0,8,0,180.0,1.0,1.0,661.868,1.0,234.0,7.0,1.16442,0.886365
White,21,Right,21,Male,No,English,A,236,0,0,8,0.0,0.0,1.0,1004.95,1.0,235.0,7.0,1.11757,0.807782
White,21,Right,21,Male,No,English,A,237,0,8,16,180.0,1.0,1.0,704.788,1.0,236.0,7.0,1.03689,0.938515
White,21,Right,21,Male,No,English,A,238,1,0,16,0.0,0.0,1.0,2183.41,1.0,237.0,7.0,1.0256,0.904583
White,21,Right,21,Male,No,English,A,239,0,8,4,180.0,1.0,1.0,1451.94,1.0,238.0,7.0,1.04537,0.898899
White,21,Right,21,Male,No,English,A,240,0,4,16,0.0,0.0,1.0,844.155,1.0,239.0,7.0,1.10218,0.950245
White,21,Right,21,Male,No,English,A,241,0,8,8,0.0,0.0,1.0,1120.15,1.0,240.0,7.0,1.11392,0.9351
White,21,Right,21,Male,No,English,A,242,0,16,16,0.0,0.0,1.0,798.435,1.0,241.0,7.0,1.07913,0.995214
White,21,Right,21,Male,No,English,A,243,0,16,8,0.0,0.0,1.0,861.502,1.0,242.0,7.0,1.10462,0.985477
White,21,Right,21,Male,No,English,A,244,1,4,0,0.0,0.0,1.0,1152.47,1.0,243.0,7.0,1.01746,0.879662
White,21,Right,21,Male,No,English,A,245,0,16,4,0.0,0.0,1.0,1020.58,1.0,244.0,7.0,1.01582,0.846472
White,21,Right,21,Male,No,English,A,246,1,16,0,180.0,1.0,1.0,907.496,1.0,245.0,7.0,1.16212,0.887296
White,21,Right,21,Male,No,English,A,247,1,0,4,180.0,1.0,1.0,1108.33,1.0,246.0,7.0,1.13014,0.921651
White,21,Right,21,Male,No,English,A,248,0,0,4,0.0,0.0,1.0,1469.47,1.0,247.0,7.0,1.16462,0.958412
White,21,Right,21,Male,No,English,A,249,1,0,8,180.0,1.0,1.0,1011.68,1.0,248.0,7.0,1.04421,0.9056
White,21,Right,21,Male,No,English,A,250,0,4,0,0.0,0.0,1.0,750.109,1.0,249.0,7.0,1.15055,0.863988
White,21,Right,21,Male,No,English,A,251,1,0,0,180.0,1.0,1.0,802.492,1.0,250.0,7.0,1.17582,0.923339
White,21,Right,21,Male,No,English,A,252,0,4,4,180.0,1.0,1.0,1222.09,1.0,251.0,7.0,1.02967,0.882018
White,21,Right,21,Male,No,English,A,253,1,8,16,180.0,1.0,1.0,950.141,1.0,252.0,7.0,1.05487,0.828598
White,21,Right,21,Male,No,English,A,254,1,8,0,0.0,0.0,1.0,912.857,1.0,253.0,7.0,1.16453,0.812864
White,21,Right,21,Male,No,English,A,255,1,16,4,0.0,0.0,1.0,982.213,1.0,254.0,7.0,1.17493,0.859805
White,21,Right,21,Male,No,English,A,256,1,4,4,180.0,1.0,1.0,1003.17,1.0,255.0,7.0,1.17196,0.986364
White,21,Right,21,Male,No,English,A,257,0,0,8,180.0,1.0,1.0,848.619,1.0,256.0,8.0,1.05219,0.847686
White,21,Right,21,Male,No,English,A,258,1,0,16,180.0,1.0,1.0,864.559,1.0,257.0,8.0,1.10146,0.908519
White,21,Right,21,Male,No,English,A,259,1,4,16,0.0,0.0,1.0,2071.33,1.0,258.0,8.0,1.09746,0.897394
White,21,Right,21,Male,No,English,A,260,0,16,0,0.0,0.0,1.0,1849.62,1.0,259.0,8.0,1.06608,0.819734
White,21,Right,21,Male,No,English,A,261,0,8,16,180.0,1.0,1.0,1114.27,1.0,260.0,8.0,1.14821,0.99427
White,21,Right,21,Male,No,English,A,262,1,4,4,0.0,9999.0,0.0,9999.0,1.0,261.0,8.0,1.14359,0.813693
White,21,Right,21,Male,No,English,A,263,0,4,16,180.0,1.0,1.0,1064.13,1.0,262.0,8.0,1.08257,0.942147
White,21,Right,21,Male,No,English,A,264,0,16,8,180.0,1.0,1.0,841.705,1.0,263.0,8.0,1.12041,0.844036
White,21,Right,21,Male,No,English,A,265,0,8,0,180.0,1.0,1.0,726.784,1.0,264.0,8.0,1.0065,0.88258
White,21,Right,21,Male,No,English,A,266,0,4,0,0.0,0.0,1.0,1016.13,1.0,265.0,8.0,1.03011,0.872564
White,21,Right,21,Male,No,English,A,267,0,4,4,180.0,1.0,1.0,705.679,1.0,266.0,8.0,1.01589,0.821879
White,21,Right,21,Male,No,English,A,268,1,8,16,0.0,0.0,1.0,1352.47,1.0,267.0,8.0,1.186,0.936007
White,21,Right,21,Male,No,English,A,269,0,0,16,0.0,0.0,1.0,1120.67,1.0,268.0,8.0,1.12052,0.906509
White,21,Right,21,Male,No,English,A,270,1,16,0,0.0,0.0,1.0,980.41,1.0,269.0,8.0,1.12175,0.97476
White,21,Right,21,Male,No,English,A,271,1,16,16,180.0,1.0,1.0,1120.21,1.0,270.0,8.0,1.1722,0.95297
White,21,Right,21,Male,No,English,A,272,1,8,4,180.0,1.0,1.0,756.484,1.0,271.0,8.0,1.0549,0.804443
White,21,Right,21,Male,No,English,A,273,1,16,8,0.0,0.0,1.0,909.333,1.0,272.0,8.0,1.17224,0.997447
White,21,Right,21,Male,No,English,A,274,0,16,4,180.0,1.0,1.0,828.844,1.0,273.0,8.0,1.13113,0.973514
White,21,Right,21,Male,No,English,A,275,1,0,4,0.0,0.0,1.0,877.72,1.0,274.0,8.0,1.08447,0.820562
White,21,Right,21,Male,No,English,A,276,0,8,8,180.0,1.0,1.0,713.598,1.0,275.0,8.0,1.06262,0.808154
White,21,Right,21,Male,No,English,A,277,1,8,0,0.0,0.0,1.0,808.407,1.0,276.0,8.0,1.1242,0.905353
White,21,Right,21,Male,No,English,A,278,1,8,8,180.0,1.0,1.0,1056.35,1.0,277.0,8.0,1.04045,0.952561
White,21,Right,21,Male,No,English,A,279,0,0,4,0.0,0.0,1.0,928.867,1.0,278.0,8.0,1.0614,0.81316
White,21,Right,21,Male,No,English,A,280,0,0,0,0.0,0.0,1.0,532.963,1.0,279.0,8.0,1.09658,0.961903
White,21,Right,21,Male,No,English,A,281,1,16,4,0.0,0.0,1.0,701.111,1.0,280.0,8.0,1.04299,0.947688
White,21,Right,21,Male,No,English,A,282,1,0,8,0.0,0.0,1.0,772.9,1.0,281.0,8.0,1.11445,0.989013
White,21,Right,21,Male,No,English,A,283,1,4,8,0.0,0.0,1.0,794.292,1.0,282.0,8.0,1.19748,0.830651
White,21,Right,21,Male,No,English,A,284,1,4,0,180.0,1.0,1.0,797.539,1.0,283.0,8.0,1.12122,0.917712
White,21,Right,21,Male,No,English,A,285,0,8,4,180.0,1.0,1.0,1224.21,1.0,284.0,8.0,1.09201,0.843054
White,21,Right,21,Male,No,English,A,286,0,4,8,180.0,1.0,1.0,741.718,1.0,285.0,8.0,1.11364,0.946478
White,21,Right,21,Male,No,English,A,287,1,0,0,180.0,1.0,1.0,722.698,1.0,286.0,8.0,1.07861,0.832089
White,21,Right,21,Male,No,English,A,288,0,16,16,0.0,0.0,1.0,1071.32,1.0,287.0,8.0,1.05254,0.90868
White,21,Right,21,Male,No,English,A,289,0,4,0,0.0,0.0,1.0,775.709,1.0,288.0,9.0,1.14643,0.888225
White,21,Right,21,Male,No,English,A,290,0,16,8,0.0,0.0,1.0,2031.98,1.0,289.0,9.0,1.01286,0.855168
White,21,Right,21,Male,No,English,A,291,0,0,8,180.0,1.0,1.0,653.463,1.0,290.0,9.0,1.05015,0.965215
White,21,Right,21,Male,No,English,A,292,1,0,16,180.0,1.0,1.0,960.949,1.0,291.0,9.0,1.15164,0.852137
White,21,Right,21,Male,No,English,A,293,1,8,0,0.0,0.0,1.0,868.568,1.0,292.0,9.0,1.1132,0.965278
White,21,Right,21,Male,No,English,A,294,0,16,4,0.0,0.0,1.0,768.713,1.0,293.0,9.0,1.04016,0.948078
White,21,Right,21,Male,No,English,A,295,0,16,0,180.0,1.0,1.0,793.269,1.0,294.0,9.0,1.12755,0.995969
White,21,Right,21,Male,No,English,A,296,0,8,8,180.0,1.0,1.0,1099.34,1.0,295.0,9.0,1.10715,0.925179
White,21,Right,21,Male,No,English,A,297,0,4,8,180.0,1.0,1.0,923.988,1.0,296.0,9.0,1.0244,0.956385
White,21,Right,21,Male,No,English,A,298,1,16,8,180.0,1.0,1.0,899.486,1.0,297.0,9.0,1.08266,0.898847
White,21,Right,21,Male,No,English,A,299,1,8,8,0.0,0.0,1.0,1616.94,1.0,298.0,9.0,1.19364,0.958417
White,21,Right,21,Male,No,English,A,300,0,0,4,0.0,0.0,1.0,1111.81,1.0,299.0,9.0,1.08587,0.935808
White,21,Right,21,Male,No,English,A,301,0,4,16,180.0,1.0,1.0,686.962,1.0,300.0,9.0,1.07103,0.891296
White,21,Right,21,Male,No,English,A,302,0,16,16,0.0,0.0,1.0,1032.55,1.0,301.0,9.0,1.02442,0.926149
White,21,Right,21,Male,No,English,A,303,1,8,16,180.0,1.0,1.0,924.749,1.0,302.0,9.0,1.17196,0.808462
White,21,Right,21,Male,No,English,A,304,1,0,8,180.0,1.0,1.0,1000.18,1.0,303.0,9.0,1.05439,0.91816
White,21,Right,21,Male,No,English,A,305,1,4,0,180.0,1.0,1.0,681.915,1.0,304.0,9.0,1.09005,0.82531
White,21,Right,21,Male,No,English,A,306,0,8,0,180.0,1.0,1.0,936.42,1.0,305.0,9.0,1.08886,0.88782
White,21,Right,21,Male,No,English,A,307,0,0,0,0.0,0.0,1.0,1130.3,1.0,306.0,9.0,1.17367,0.918029
White,21,Right,21,Male,No,English,A,308,1,8,4,0.0,0.0,1.0,1499.06,1.0,307.0,9.0,1.03204,0.817115
White,21,Right,21,Male,No,English,A,309,1,0,0,0.0,0.0,1.0,1064.1,1.0,308.0,9.0,1.14776,0.921762
White,21,Right,21,Male,No,English,A,310,0,0,16,0.0,0.0,1.0,1326.4,1.0,309.0,9.0,1.0931,0.878679
White,21,Right,21,Male,No,English,A,311,1,4,16,0.0,0.0,1.0,1319.87,1.0,310.0,9.0,1.19313,0.98227
White,21,Right,21,Male,No,English,A,312,1,4,8,0.0,0.0,1.0,958.288,1.0,311.0,9.0,1.13847,0.895098
White,21,Right,21,Male,No,English,A,313,1,0,4,180.0,1.0,1.0,1010.13,1.0,312.0,9.0,1.1609,0.85352
White,21,Right,21,Male,No,English,A,314,1,16,4,0.0,0.0,1.0,1024.24,1.0,313.0,9.0,1.11874,0.805646
White,21,Right,21,Male,No,English,A,315,0,4,4,180.0,1.0,1.0,906.988,1.0,314.0,9.0,1.04636,0.972051
White,21,Right,21,Male,No,English,A,316,1,16,0,180.0,1.0,1.0,1720.48,1.0,315.0,9.0,1.05698,0.901972
White,21,Right,21,Male,No,English,A,317,0,8,16,180.0,1.0,1.0,1241.81,1.0,316.0,9.0,1.13953,0.816938
White,21,Right,21,Male,No,English,A,318,1,4,4,0.0,0.0,1.0,955.343,1.0,317.0,9.0,1.02696,0.888715
White,21,Right,21,Male,No,English,A,319,0,8,4,180.0,1.0,1.0,798.982,1.0,318.0,9.0,1.163,0.980712
White,21,Right,21,Male,No,English,A,320,1,16,16,0.0,0.0,1.0,922.519,1.0,319.0,9.0,1.08099,0.835158
White,21,Right,21,Male,No,English,A,321,0,16,4,0.0,0.0,1.0,1434.02,1.0,320.0,10.0,1.14226,0.857453
White,21,Right,21,Male,No,English,A,322,1,8,0,0.0,0.0,1.0,872.064,1.0,321.0,10.0,1.18608,0.904187
White,21,Right,21,Male,No,English,A,323,1,16,0,180.0,1.0,1.0,1169.95,1.0,322.0,10.0,1.19192,0.913542
White,21,Right,21,Male,No,English,A,324,1,0,16,0.0,0.0,1.0,782.482,1.0,323.0,10.0,1.0341,0.887604
White,21,Right,21,Male,No,English,A,325,0,8,0,180.0,1.0,1.0,704.874,1.0,324.0,10.0,1.05897,0.992251
White,21,Right,21,Male,No,English,A,326,0,4,0,180.0,1.0,1.0,948.925,1.0,325.0,10.0,1.17487,0.81981
White,21,Right,21,Male,No,English,A,327,1,0,4,0.0,0.0,1.0,858.383,1.0,326.0,10.0,1.05803,0.850043
White,21,Right,21,Male,No,English,A,328,1,16,8,180.0,1.0,1.0,608.611,1.0,327.0,10.0,1.14706,0.90214
White,21,Right,21,Male,No,English,A,329,0,0,16,180.0,1.0,1.0,966.78,1.0,328.0,10.0,1.17507,0.83242
White,21,Right,21,Male,No,English,A,330,1,16,16,0.0,0.0,1.0,1035.08,1.0,329.0,10.0,1.1518,0.800014
White,21,Right,21,Male,No,English,A,331,0,16,0,0.0,0.0,1.0,930.49,1.0,330.0,10.0,1.14851,0.801416
White,21,Right,21,Male,No,English,A,332,1,8,8,180.0,1.0,1.0,760.615,1.0,331.0,10.0,1.18739,0.952359
White,21,Right,21,Male,No,English,A,333,0,4,4,180.0,1.0,1.0,1449.79,1.0,332.0,10.0,1.07509,0.948097
White,21,Right,21,Male,No,English,A,334,0,0,0,0.0,0.0,1.0,795.763,1.0,333.0,10.0,1.16439,0.859825
White,21,Right,21,Male,No,English,A,335,1,0,0,180.0,1.0,1.0,524.117,1.0,334.0,10.0,1.06739,0.952778
White,21,Right,21,Male,No,English,A,336,0,16,16,0.0,0.0,1.0,1162.17,1.0,335.0,10.0,1.09381,0.838588
White,21,Right,21,Male,No,English,A,337,0,8,8,180.0,1.0,1.0,766.946,1.0,336.0,10.0,1.13303,0.991844
White,21,Right,21,Male,No,English,A,338,0,0,8,180.0,1.0,1.0,928.738,1.0,337.0,10.0,1.15012,0.972378
White,21,Right,21,Male,No,English,A,339,1,8,4,180.0,1.0,1.0,793.333,1.0,338.0,10.0,1.06436,0.937618
White,21,Right,21,Male,No,English,A,340,1,4,0,180.0,1.0,1.0,685.17,1.0,339.0,10.0,1.13502,0.927676
White,21,Right,21,Male,No,English,A,341,1,0,8,0.0,0.0,1.0,824.611,1.0,340.0,10.0,1.0755,0.991508
White,21,Right,21,Male,No,English,A,342,0,16,8,0.0,0.0,1.0,1353.71,1.0,341.0,10.0,1.02429,0.824533
White,21,Right,21,Male,No,English,A,343,0,4,8,180.0,1.0,1.0,995.377,1.0,342.0,10.0,1.17452,0.981822
White,21,Right,21,Male,No,English,A,344,0,8,4,180.0,1.0,1.0,1059.73,1.0,343.0,10.0,1.07655,0.847847
White,21,Right,21,Male,No,English,A,345,1,4,4,0.0,0.0,1.0,923.998,1.0,344.0,10.0,1.16652,0.912282
White,21,Right,21,Male,No,English,A,346,1,8,16,0.0,0.0,1.0,1089.43,1.0,345.0,10.0,1.10408,0.807897
White,21,Right,21,Male,No,English,A,347,0,8,16,0.0,0.0,1.0,1049.76,1.0,346.0,10.0,1.18927,0.848356
White,21,Right,21,Male,No,English,A,348,0,0,4,0.0,0.0,1.0,843.386,1.0,347.0,10.0,1.10419,0.93246
White,21,Right,21,Male,No,English,A,349,1,4,16,0.0,0.0,1.0,1350.15,1.0,348.0,10.0,1.06967,0.827839
White,21,Right,21,Male,No,English,A,350,1,16,4,180.0,1.0,1.0,983.924,1.0,349.0,10.0,1.09541,0.879176
White,21,Right,21,Male,No,English,A,351,0,4,16,0.0,0.0,1.0,694.539,1.0,350.0,10.0,1.04781,0.918288
White,21,Right,21,Male,No,English,A,352,1,4,8,180.0,1.0,1.0,1575.78,1.0,351.0,10.0,1.16109,0.9519
White,21,Right,21,Male,No,English,A,353,1,8,0,0.0,0.0,1.0,1151.21,1.0,352.0,11.0,1.0816,0.823995
White,21,Right,21,Male,No,English,A,354,1,4,4,0.0,0.0,1.0,740.906,1.0,353.0,11.0,1.01536,0.828119
White,21,Right,21,Male,No,English,A,355,1,0,16,180.0,1.0,1.0,949.407,1.0,354.0,11.0,1.00446,0.933683
White,21,Right,21,Male,No,English,A,356,0,4,8,180.0,1.0,1.0,1391.76,1.0,355.0,11.0,1.08364,0.850108
White,21,Right,21,Male,No,English,A,357,1,16,4,0.0,0.0,1.0,1507.14,1.0,356.0,11.0,1.05725,0.811458
White,21,Right,21,Male,No,English,A,358,1,16,16,0.0,0.0,1.0,1139.23,1.0,357.0,11.0,1.00681,0.812826
White,21,Right,21,Male,No,English,A,359,1,4,0,180.0,1.0,1.0,1243.91,1.0,358.0,11.0,1.05322,0.818596
White,21,Right,21,Male,No,English,A,360,1,16,0,0.0,0.0,1.0,1104.68,1.0,359.0,11.0,1.02404,0.818877
White,21,Right,21,Male,No,English,A,361,0,4,4,0.0,0.0,1.0,1023.89,1.0,360.0,11.0,1.18797,0.813424
White,21,Right,21,Male,No,English,A,362,0,0,0,180.0,1.0,1.0,978.543,1.0,361.0,11.0,1.18468,0.866704
White,21,Right,21,Male,No,English,A,363,1,16,8,0.0,0.0,1.0,1116.81,1.0,362.0,11.0,1.05721,0.922918
White,21,Right,21,Male,No,English,A,364,1,8,8,180.0,1.0,1.0,1847.4,1.0,363.0,11.0,1.15637,0.984099
White,21,Right,21,Male,No,English,A,365,0,8,4,0.0,0.0,1.0,779.802,1.0,364.0,11.0,1.16046,0.895539
White,21,Right,21,Male,No,English,A,366,0,0,16,180.0,1.0,1.0,878.047,1.0,365.0,11.0,1.19495,0.811303
White,21,Right,21,Male,No,English,A,367,1,0,4,180.0,1.0,1.0,1116.62,1.0,366.0,11.0,1.18372,0.955714
White,21,Right,21,Male,No,English,A,368,1,0,8,180.0,1.0,1.0,990.472,1.0,367.0,11.0,1.06541,0.927598
White,21,Right,21,Male,No,English,A,369,0,4,0,0.0,0.0,1.0,887.279,1.0,368.0,11.0,1.08178,0.975442
White,21,Right,21,Male,No,English,A,370,0,8,8,180.0,1.0,1.0,746.104,1.0,369.0,11.0,1.14508,0.808277
White,21,Right,21,Male,No,English,A,371,1,8,16,0.0,0.0,1.0,893.596,1.0,370.0,11.0,1.06063,0.845367
White,21,Right,21,Male,No,English,A,372,0,16,4,180.0,1.0,1.0,823.259,1.0,371.0,11.0,1.05762,0.939948
White,21,Right,21,Male,No,English,A,373,0,8,16,0.0,0.0,1.0,798.562,1.0,372.0,11.0,1.16335,0.906592
White,21,Right,21,Male,No,English,A,374,0,8,0,180.0,1.0,1.0,592.172,1.0,373.0,11.0,1.17072,0.907308
White,21,Right,21,Male,No,English,A,375,0,16,8,180.0,1.0,1.0,1010.62,1.0,374.0,11.0,1.13871,0.935764
White,21,Right,21,Male,No,English,A,376,0,0,4,180.0,1.0,1.0,729.154,1.0,375.0,11.0,1.1222,0.923597
White,21,Right,21,Male,No,English,A,377,0,4,16,0.0,0.0,1.0,1033.97,1.0,376.0,11.0,1.10398,0.954996
White,21,Right,21,Male,No,English,A,378,0,16,16,0.0,0.0,1.0,1704.71,1.0,377.0,11.0,1.06328,0.870608
White,21,Right,21,Male,No,English,A,379,0,16,0,180.0,1.0,1.0,1186.88,1.0,378.0,11.0,1.0153,0.811555
White,21,Right,21,Male,No,English,A,380,1,8,4,0.0,0.0,1.0,1541.48,1.0,379.0,11.0,1.12823,0.860164
White,21,Right,21,Male,No,English,A,381,1,4,16,0.0,0.0,1.0,1108.56,1.0,380.0,11.0,1.01477,0.858332
White,21,Right,21,Male,No,English,A,382,1,0,0,180.0,1.0,1.0,810.602,1.0,381.0,11.0,1.06166,0.919626
White,21,Right,21,Male,No,English,A,383,0,0,8,180.0,1.0,1.0,1010.06,1.0,382.0,11.0,1.0016,0.838803
White,21,Right,21,Male,No,English,A,384,1,4,8,0.0,0.0,1.0,1131.91,1.0,383.0,11.0,1.08102,0.811832
White,21,Right,21,Male,No,English,A,385,1,0,8,180.0,1.0,1.0,828.797,1.0,384.0,12.0,1.08541,0.925737
White,21,Right,21,Male,No,English,A,386,1,16,4,180.0,1.0,1.0,602.136,1.0,385.0,12.0,1.00963,0.87685
White,21,Right,21,Male,No,English,A,387,1,0,16,180.0,1.0,1.0,634.5,1.0,386.0,12.0,1.15508,0.985345
White,21,Right,21,Male,No,English,A,388,0,0,0,180.0,1.0,1.0,665.513,1.0,387.0,12.0,1.02786,0.901215
White,21,Right,21,Male,No,English,A,389,0,4,4,0.0,0.0,1.0,920.123,1.0,388.0,12.0,1.05684,0.930046
White,21,Right,21,Male,No,English,A,390,0,16,8,180.0,1.0,1.0,765.782,1.0,389.0,12.0,1.13879,0.925796
White,21,Right,21,Male,No,English,A,391,1,4,0,0.0,0.0,1.0,549.309,1.0,390.0,12.0,1.19076,0.818793
White,21,Right,21,Male,No,English,A,392,1,4,16,180.0,1.0,1.0,599.3,1.0,391.0,12.0,1.09507,0.880036
White,21,Right,21,Male,No,English,A,393,0,8,8,0.0,0.0,1.0,730.455,1.0,392.0,12.0,1.12948,0.881138
White,21,Right,21,Male,No,English,A,394,0,16,0,180.0,1.0,1.0,698.846,1.0,393.0,12.0,1.02751,0.925632
White,21,Right,21,Male,No,English,A,395,1,8,4,0.0,0.0,1.0,804.274,1.0,394.0,12.0,1.15371,0.98095
White,21,Right,21,Male,No,English,A,396,0,0,8,180.0,1.0,1.0,848.133,1.0,395.0,12.0,1.03018,0.874963
White,21,Right,21,Male,No,English,A,397,1,0,4,180.0,1.0,1.0,796.518,1.0,396.0,12.0,1.18869,0.883236
White,21,Right,21,Male,No,English,A,398,0,16,4,180.0,1.0,1.0,640.283,1.0,397.0,12.0,1.15576,0.875071
White,21,Right,21,Male,No,English,A,399,1,4,4,180.0,1.0,1.0,826.959,1.0,398.0,12.0,1.03115,0.972116
White,21,Right,21,Male,No,English,A,400,1,16,0,0.0,0.0,1.0,752.498,1.0,399.0,12.0,1.12919,0.999698
White,21,Right,21,Male,No,English,A,401,1,8,0,180.0,1.0,1.0,771.53,1.0,400.0,12.0,1.12242,0.904701
White,21,Right,21,Male,No,English,A,402,0,16,16,0.0,0.0,1.0,844.864,1.0,401.0,12.0,1.17096,0.895391
White,21,Right,21,Male,No,English,A,403,0,0,16,0.0,0.0,1.0,702.836,1.0,402.0,12.0,1.0128,0.901818
White,21,Right,21,Male,No,English,A,404,1,8,8,0.0,0.0,1.0,651.562,1.0,403.0,12.0,1.07999,0.809915
White,21,Right,21,Male,No,English,A,405,1,8,16,0.0,0.0,1.0,1043.64,1.0,404.0,12.0,1.19263,0.848939
White,21,Right,21,Male,No,English,A,406,0,0,4,0.0,0.0,1.0,910.334,1.0,405.0,12.0,1.08203,0.939365
White,21,Right,21,Male,No,English,A,407,1,4,8,180.0,1.0,1.0,1013.24,1.0,406.0,12.0,1.14639,0.990574
White,21,Right,21,Male,No,English,A,408,1,16,16,0.0,0.0,1.0,720.749,1.0,407.0,12.0,1.17644,0.986253
White,21,Right,21,Male,No,English,A,409,0,4,8,0.0,0.0,1.0,921.482,1.0,408.0,12.0,1.00767,0.864398
White,21,Right,21,Male,No,English,A,410,0,4,0,180.0,1.0,1.0,784.471,1.0,409.0,12.0,1.10649,0.811685
White,21,Right,21,Male,No,English,A,411,1,16,8,0.0,0.0,1.0,1215.83,1.0,410.0,12.0,1.05355,0.850595
White,21,Right,21,Male,No,English,A,412,1,0,0,0.0,0.0,1.0,682.938,1.0,411.0,12.0,1.17976,0.928978
White,21,Right,21,Male,No,English,A,413,0,8,4,0.0,0.0,1.0,780.35,1.0,412.0,12.0,1.14008,0.94351
White,21,Right,21,Male,No,English,A,414,0,4,16,180.0,1.0,1.0,833.121,1.0,413.0,12.0,1.12975,0.891322
White,21,Right,21,Male,No,English,A,415,0,8,16,180.0,1.0,1.0,801.583,1.0,414.0,12.0,1.02825,0.913654
White,21,Right,21,Male,No,English,A,416,0,8,0,0.0,0.0,1.0,864.934,1.0,415.0,12.0,1.05599,0.824599
White,21,Right,21,Male,No,English,A,417,0,16,8,180.0,1.0,1.0,767.433,1.0,416.0,13.0,1.18089,0.888511
White,21,Right,21,Male,No,English,A,418,1,16,0,180.0,1.0,1.0,628.953,1.0,417.0,13.0,1.10315,0.899399
White,21,Right,21,Male,No,English,A,419,1,4,4,180.0,1.0,1.0,974.852,1.0,418.0,13.0,1.02181,0.90638
White,21,Right,21,Male,No,English,A,420,1,8,16,0.0,0.0,1.0,1372.87,1.0,419.0,13.0,1.11912,0.828497
White,21,Right,21,Male,No,English,A,421,1,16,8,0.0,0.0,1.0,1124.83,1.0,420.0,13.0,1.04093,0.977335
White,21,Right,21,Male,No,English,A,422,0,0,0,0.0,0.0,1.0,729.406,1.0,421.0,13.0,1.11874,0.903598
White,21,Right,21,Male,No,English,A,423,1,0,16,180.0,1.0,1.0,809.395,1.0,422.0,13.0,1.0444,0.816064
White,21,Right,21,Male,No,English,A,424,1,8,0,180.0,1.0,1.0,614.713,1.0,423.0,13.0,1.09882,0.80439
White,21,Right,21,Male,No,English,A,425,0,4,4,0.0,0.0,1.0,886.712,1.0,424.0,13.0,1.12932,0.923285
White,21,Right,21,Male,No,English,A,426,1,4,16,180.0,1.0,1.0,612.585,1.0,425.0,13.0,1.02252,0.945342
White,21,Right,21,Male,No,English,A,427,1,0,0,0.0,0.0,1.0,810.176,1.0,426.0,13.0,1.10184,0.984446
White,21,Right,21,Male,No,English,A,428,1,8,4,180.0,1.0,1.0,1606.33,1.0,427.0,13.0,1.08544,0.880347
White,21,Right,21,Male,No,English,A,429,0,4,16,180.0,1.0,1.0,858.475,1.0,428.0,13.0,1.19183,0.844026
White,21,Right,21,Male,No,English,A,430,1,0,4,0.0,0.0,1.0,929.275,1.0,429.0,13.0,1.19451,0.980862
White,21,Right,21,Male,No,English,A,431,0,8,8,0.0,0.0,1.0,637.96,1.0,430.0,13.0,1.03112,0.981802
White,21,Right,21,Male,No,English,A,432,0,4,0,0.0,0.0,1.0,784.12,1.0,431.0,13.0,1.04008,0.886736
White,21,Right,21,Male,No,English,A,433,1,4,8,0.0,0.0,1.0,1322.29,1.0,432.0,13.0,1.06502,0.823783
White,21,Right,21,Male,No,English,A,434,0,0,4,0.0,0.0,1.0,792.911,1.0,433.0,13.0,1.12086,0.937581
White,21,Right,21,Male,No,English,A,435,1,0,8,180.0,1.0,1.0,846.084,1.0,434.0,13.0,1.13424,0.833618
White,21,Right,21,Male,No,English,A,436,0,0,8,180.0,1.0,1.0,1239.38,1.0,435.0,13.0,1.07928,0.866776
White,21,Right,21,Male,No,English,A,437,1,16,4,0.0,0.0,1.0,1778.94,1.0,436.0,13.0,1.17175,0.880861
White,21,Right,21,Male,No,English,A,438,0,0,16,180.0,1.0,1.0,875.621,1.0,437.0,13.0,1.07697,0.957437
White,21,Right,21,Male,No,English,A,439,1,4,0,0.0,0.0,1.0,1057.93,1.0,438.0,13.0,1.00363,0.907305
White,21,Right,21,Male,No,English,A,440,0,8,0,180.0,1.0,1.0,994.906,1.0,439.0,13.0,1.1422,0.818944
White,21,Right,21,Male,No,English,A,441,1,8,8,0.0,0.0,1.0,1012.87,1.0,440.0,13.0,1.08018,0.835685
White,21,Right,21,Male,No,English,A,442,0,8,4,0.0,0.0,1.0,1158.59,1.0,441.0,13.0,1.10241,0.98588
White,21,Right,21,Male,No,English,A,443,1,16,16,180.0,1.0,1.0,1087.09,1.0,442.0,13.0,1.02928,0.941516
White,21,Right,21,Male,No,English,A,444,0,4,8,0.0,0.0,1.0,702.484,1.0,443.0,13.0,1.10514,0.892854
White,21,Right,21,Male,No,English,A,445,0,16,16,180.0,1.0,1.0,1219.78,1.0,444.0,13.0,1.02817,0.823403
White,21,Right,21,Male,No,English,A,446,0,16,0,180.0,1.0,1.0,1269.95,1.0,445.0,13.0,1.18018,0.886724
White,21,Right,21,Male,No,English,A,447,0,16,4,0.0,0.0,1.0,1000.39,1.0,446.0,13.0,1.09121,0.840764
White,21,Right,21,Male,No,English,A,448,0,8,16,180.0,1.0,1.0,880.583,1.0,447.0,13.0,1.08514,0.840291
White,21,Right,21,Male,No,English,A,449,0,8,0,0.0,0.0,1.0,920.213,1.0,448.0,14.0,1.10407,0.994836
White,21,Right,21,Male,No,English,A,450,1,4,8,0.0,0.0,1.0,1108.55,1.0,449.0,14.0,1.16667,0.833567
White,21,Right,21,Male,No,English,A,451,1,16,0,180.0,1.0,1.0,800.289,1.0,450.0,14.0,1.03668,0.988867
White,21,Right,21,Male,No,English,A,452,0,16,4,180.0,1.0,1.0,725.625,1.0,451.0,14.0,1.18374,0.946264
White,21,Right,21,Male,No,English,A,453,0,0,8,0.0,0.0,1.0,727.783,1.0,452.0,14.0,1.16969,0.84464
White,21,Right,21,Male,No,English,A,454,0,8,16,180.0,1.0,1.0,939.075,1.0,453.0,14.0,1.00682,0.936704
White,21,Right,21,Male,No,English,A,455,0,16,8,0.0,0.0,1.0,683.044,1.0,454.0,14.0,1.14814,0.971802
White,21,Right,21,Male,No,English,A,456,1,8,16,0.0,0.0,1.0,1765.64,1.0,455.0,14.0,1.16933,0.960646
White,21,Right,21,Male,No,English,A,457,0,0,4,0.0,0.0,1.0,902.616,1.0,456.0,14.0,1.01857,0.90157
White,21,Right,21,Male,No,English,A,458,1,4,16,0.0,0.0,1.0,1096.36,1.0,457.0,14.0,1.19508,0.994154
White,21,Right,21,Male,No,English,A,459,1,0,0,180.0,1.0,1.0,1012.28,1.0,458.0,14.0,1.16644,0.847512
White,21,Right,21,Male,No,English,A,460,0,8,4,0.0,0.0,1.0,831.754,1.0,459.0,14.0,1.18848,0.923719
White,21,Right,21,Male,No,English,A,461,1,0,8,0.0,0.0,1.0,939.61,1.0,460.0,14.0,1.07103,0.963769
White,21,Right,21,Male,No,English,A,462,0,0,16,180.0,1.0,1.0,581.435,1.0,461.0,14.0,1.16063,0.992798
White,21,Right,21,Male,No,English,A,463,0,4,8,180.0,1.0,1.0,1069.71,1.0,462.0,14.0,1.07957,0.957972
White,21,Right,21,Male,No,English,A,464,1,0,16,180.0,1.0,1.0,1236.25,1.0,463.0,14.0,1.16164,0.849349
White,21,Right,21,Male,No,English,A,465,1,16,16,0.0,0.0,1.0,908.25,1.0,464.0,14.0,1.00311,0.816166
White,21,Right,21,Male,No,English,A,466,0,4,4,0.0,0.0,1.0,2252.31,1.0,465.0,14.0,1.05917,0.97337
White,21,Right,21,Male,No,English,A,467,0,16,0,0.0,0.0,1.0,1864.3,1.0,466.0,14.0,1.02611,0.961752
White,21,Right,21,Male,No,English,A,468,0,4,16,180.0,1.0,1.0,950.293,1.0,467.0,14.0,1.06726,0.936671
White,21,Right,21,Male,No,English,A,469,1,8,4,0.0,0.0,1.0,662.676,1.0,468.0,14.0,1.09272,0.837063
White,21,Right,21,Male,No,English,A,470,1,4,0,180.0,1.0,1.0,907.444,1.0,469.0,14.0,1.17755,0.884302
White,21,Right,21,Male,No,English,A,471,0,8,8,180.0,1.0,1.0,969.31,1.0,470.0,14.0,1.01264,0.874194
White,21,Right,21,Male,No,English,A,472,1,8,8,180.0,1.0,1.0,998.936,1.0,471.0,14.0,1.15784,0.967511
White,21,Right,21,Male,No,English,A,473,0,16,16,180.0,1.0,1.0,1036.0,1.0,472.0,14.0,1.07881,0.807933
White,21,Right,21,Male,No,English,A,474,1,16,4,0.0,0.0,1.0,980.029,1.0,473.0,14.0,1.12926,0.963365
White,21,Right,21,Male,No,English,A,475,1,4,4,180.0,1.0,1.0,795.495,1.0,474.0,14.0,1.0064,0.994921
White,21,Right,21,Male,No,English,A,476,0,4,0,180.0,1.0,1.0,755.657,1.0,475.0,14.0,1.03175,0.801571
White,21,Right,21,Male,No,English,A,477,1,16,8,0.0,0.0,1.0,877.961,1.0,476.0,14.0,1.16058,0.99827
White,21,Right,21,Male,No,English,A,478,1,0,4,180.0,1.0,1.0,783.587,1.0,477.0,14.0,1.04934,0.946832
White,21,Right,21,Male,No,English,A,479,0,0,0,0.0,0.0,1.0,766.52,1.0,478.0,14.0,1.09298,0.951169
White,21,Right,21,Male,No,English,A,480,1,8,0,180.0,1.0,1.0,672.292,1.0,479.0,14.0,1.03424,0.819384
White,21,Right,21,Male,No,English,A,481,1,16,0,180.0,1.0,1.0,1013.54,1.0,480.0,15.0,1.18399,0.965755
White,21,Right,21,Male,No,English,A,482,1,8,8,180.0,1.0,1.0,569.647,1.0,481.0,15.0,1.12441,0.826147
White,21,Right,21,Male,No,English,A,483,1,4,16,0.0,0.0,1.0,955.297,1.0,482.0,15.0,1.00548,0.866924
White,21,Right,21,Male,No,English,A,484,0,16,0,180.0,1.0,1.0,860.932,1.0,483.0,15.0,1.12684,0.991626
White,21,Right,21,Male,No,English,A,485,0,4,4,0.0,0.0,1.0,796.89,1.0,484.0,15.0,1.12925,0.954015
White,21,Right,21,Male,No,English,A,486,0,16,8,0.0,0.0,1.0,798.359,1.0,485.0,15.0,1.11887,0.923826
White,21,Right,21,Male,No,English,A,487,1,4,8,180.0,1.0,1.0,728.833,1.0,486.0,15.0,1.1973,0.883427
White,21,Right,21,Male,No,English,A,488,1,0,16,0.0,0.0,1.0,740.036,1.0,487.0,15.0,1.12622,0.867974
White,21,Right,21,Male,No,English,A,489,1,16,4,180.0,1.0,1.0,1673.53,1.0,488.0,15.0,1.00756,0.828759
White,21,Right,21,Male,No,English,A,490,0,4,0,0.0,0.0,1.0,940.683,1.0,489.0,15.0,1.17135,0.919688
White,21,Right,21,Male,No,English,A,491,0,8,8,0.0,0.0,1.0,891.324,1.0,490.0,15.0,1.11995,0.84277
White,21,Right,21,Male,No,English,A,492,1,4,4,0.0,0.0,1.0,923.449,1.0,491.0,15.0,1.03221,0.837293
White,21,Right,21,Male,No,English,A,493,0,0,4,0.0,0.0,1.0,795.042,1.0,492.0,15.0,1.00437,0.97924
White,21,Right,21,Male,No,English,A,494,0,8,4,180.0,1.0,1.0,821.069,1.0,493.0,15.0,1.11538,0.890782
White,21,Right,21,Male,No,English,A,495,0,0,0,0.0,0.0,1.0,896.492,1.0,494.0,15.0,1.0594,0.984668
White,21,Right,21,Male,No,English,A,496,1,4,0,0.0,0.0,1.0,988.395,1.0,495.0,15.0,1.07386,0.82912
White,21,Right,21,Male,No,English,A,497,1,8,0,180.0,1.0,1.0,806.475,1.0,496.0,15.0,1.19797,0.973897
White,21,Right,21,Male,No,English,A,498,0,0,8,0.0,0.0,1.0,789.077,1.0,497.0,15.0,1.10234,0.976748
White,21,Right,21,Male,No,English,A,499,1,0,4,0.0,0.0,1.0,783.414,1.0,498.0,15.0,1.193,0.921426
White,21,Right,21,Male,No,English,A,500,1,16,16,180.0,1.0,1.0,922.471,1.0,499.0,15.0,1.19803,0.845928
White,21,Right,21,Male,No,English,A,501,1,0,8,180.0,1.0,1.0,997.31,1.0,500.0,15.0,1.08852,0.917219
White,21,Right,21,Male,No,English,A,502,0,0,16,180.0,1.0,1.0,1407.03,1.0,501.0,15.0,1.12115,0.972614
White,21,Right,21,Male,No,English,A,503,1,16,8,180.0,1.0,1.0,1250.3,1.0,502.0,15.0,1.00616,0.807201
White,21,Right,21,Male,No,English,A,504,0,16,4,0.0,0.0,1.0,1411.59,1.0,503.0,15.0,1.11711,0.936499
White,21,Right,21,Male,No,English,A,505,1,8,16,180.0,1.0,1.0,1108.82,1.0,504.0,15.0,1.09907,0.945158
White,21,Right,21,Male,No,English,A,506,1,8,4,180.0,1.0,1.0,1042.79,1.0,505.0,15.0,1.12401,0.929647
White,21,Right,21,Male,No,English,A,507,0,4,8,180.0,1.0,1.0,934.143,1.0,506.0,15.0,1.08453,0.946232
White,21,Right,21,Male,No,English,A,508,0,8,16,0.0,0.0,1.0,544.53,1.0,507.0,15.0,1.06353,0.966164
White,21,Right,21,Male,No,English,A,509,0,16,16,180.0,1.0,1.0,882.508,1.0,508.0,15.0,1.173,0.854711
White,21,Right,21,Male,No,English,A,510,0,8,0,180.0,1.0,1.0,1204.11,1.0,509.0,15.0,1.01787,0.960062
White,21,Right,21,Male,No,English,A,511,1,0,0,0.0,0.0,1.0,839.586,1.0,510.0,15.0,1.1461,0.945789
White,21,Right,21,Male,No,English,A,512,0,4,16,0.0,0.0,1.0,943.151,1.0,511.0,15.0,1.05009,0.965169
White,21,Right,21,Male,No,English,A,513,0,4,16,180.0,1.0,1.0,939.766,1.0,512.0,16.0,1.11414,0.851992
White,21,Right,21,Male,No,English,A,514,0,16,16,180.0,1.0,1.0,709.083,1.0,513.0,16.0,1.19021,0.883267
White,21,Right,21,Male,No,English,A,515,1,16,8,0.0,0.0,1.0,1447.48,1.0,514.0,16.0,1.05509,0.888165
White,21,Right,21,Male,No,English,A,516,0,4,0,0.0,0.0,1.0,1159.12,1.0,515.0,16.0,1.10752,0.828918
White,21,Right,21,Male,No,English,A,517,0,0,0,180.0,1.0,1.0,618.443,1.0,516.0,16.0,1.16807,0.993578
White,21,Right,21,Male,No,English,A,518,0,8,16,0.0,0.0,1.0,934.093,1.0,517.0,16.0,1.10653,0.914119
White,21,Right,21,Male,No,English,A,519,1,0,8,180.0,1.0,1.0,1383.76,1.0,518.0,16.0,1.07153,0.922965
White,21,Right,21,Male,No,English,A,520,1,8,4,0.0,0.0,1.0,1408.73,1.0,519.0,16.0,1.08664,0.879688
White,21,Right,21,Male,No,English,A,521,0,4,8,0.0,0.0,1.0,1266.5,1.0,520.0,16.0,1.19279,0.836224
White,21,Right,21,Male,No,English,A,522,1,4,16,180.0,1.0,1.0,947.477,1.0,521.0,16.0,1.1889,0.963779
White,21,Right,21,Male,No,English,A,523,1,4,0,0.0,0.0,1.0,951.099,1.0,522.0,16.0,1.06804,0.986426
White,21,Right,21,Male,No,English,A,524,1,16,0,0.0,0.0,1.0,914.523,1.0,523.0,16.0,1.02829,0.919935
White,21,Right,21,Male,No,English,A,525,0,0,8,180.0,1.0,1.0,751.073,1.0,524.0,16.0,1.14016,0.928328
White,21,Right,21,Male,No,English,A,526,0,8,0,180.0,1.0,1.0,868.756,1.0,525.0,16.0,1.02679,0.932616
White,21,Right,21,Male,No,English,A,527,1,16,4,0.0,0.0,1.0,911.216,1.0,526.0,16.0,1.15961,0.941197
White,21,Right,21,Male,No,English,A,528,1,4,4,0.0,0.0,1.0,895.886,1.0,527.0,16.0,1.02865,0.857831
White,21,Right,21,Male,No,English,A,529,1,8,16,180.0,1.0,1.0,701.638,1.0,528.0,16.0,1.05445,0.929942
White,21,Right,21,Male,No,English,A,530,1,0,16,180.0,1.0,1.0,688.211,1.0,529.0,16.0,1.00584,0.9045
White,21,Right,21,Male,No,English,A,531,1,8,0,180.0,1.0,1.0,913.401,1.0,530.0,16.0,1.19705,0.861058
White,21,Right,21,Male,No,English,A,532,0,16,4,0.0,0.0,1.0,1066.8,1.0,531.0,16.0,1.13559,0.82279
White,21,Right,21,Male,No,English,A,533,1,16,16,180.0,1.0,1.0,1306.56,1.0,532.0,16.0,1.12651,0.960616
White,21,Right,21,Male,No,English,A,534,0,0,4,0.0,0.0,1.0,1028.68,1.0,533.0,16.0,1.02856,0.815725
White,21,Right,21,Male,No,English,A,535,0,8,4,180.0,1.0,1.0,754.81,1.0,534.0,16.0,1.09354,0.932581
White,21,Right,21,Male,No,English,A,536,0,16,8,0.0,0.0,1.0,813.484,1.0,535.0,16.0,1.05953,0.901683
White,21,Right,21,Male,No,English,A,537,0,0,16,180.0,1.0,1.0,859.228,1.0,536.0,16.0,1.14018,0.995025
White,21,Right,21,Male,No,English,A,538,0,4,4,180.0,1.0,1.0,1345.28,1.0,537.0,16.0,1.19152,0.832296
White,21,Right,21,Male,No,English,A,539,1,8,8,0.0,0.0,1.0,1600.0,1.0,538.0,16.0,1.06593,0.92559
White,21,Right,21,Male,No,English,A,540,1,4,8,0.0,0.0,1.0,722.35,1.0,539.0,16.0,1.12857,0.938371
White,21,Right,21,Male,No,English,A,541,0,16,0,0.0,0.0,1.0,1247.28,1.0,540.0,16.0,1.10624,0.82689
White,21,Right,21,Male,No,English,A,542,1,0,0,180.0,1.0,1.0,771.338,1.0,541.0,16.0,1.14165,0.807593
White,21,Right,21,Male,No,English,A,543,0,8,8,0.0,0.0,1.0,601.58,1.0,542.0,16.0,1.07263,0.897376
White,21,Right,21,Male,No,English,A,544,1,0,4,180.0,1.0,1.0,523.046,1.0,543.0,16.0,1.06542,0.839267
White,21,Right,21,Male,No,English,A,545,1,4,4,180.0,1.0,1.0,818.097,1.0,544.0,17.0,1.19918,0.908787
White,21,Right,21,Male,No,English,A,546,0,16,0,180.0,1.0,1.0,684.61,1.0,545.0,17.0,1.14184,0.829561
White,21,Right,21,Male,No,English,A,547,0,4,0,0.0,0.0,1.0,645.575,1.0,546.0,17.0,1.08123,0.860066
White,21,Right,21,Male,No,English,A,548,1,0,8,180.0,1.0,1.0,1113.74,1.0,547.0,17.0,1.04883,0.855007
White,21,Right,21,Male,No,English,A,549,1,8,16,0.0,0.0,1.0,610.409,1.0,548.0,17.0,1.09882,0.938345
White,21,Right,21,Male,No,English,A,550,0,8,0,180.0,1.0,1.0,1388.55,1.0,549.0,17.0,1.08848,0.879273
White,21,Right,21,Male,No,English,A,551,1,4,16,0.0,0.0,1.0,1385.99,1.0,550.0,17.0,1.03876,0.813769
White,21,Right,21,Male,No,English,A,552,0,16,16,180.0,1.0,1.0,1357.76,1.0,551.0,17.0,1.06561,0.970903
White,21,Right,21,Male,No,English,A,553,0,8,16,180.0,1.0,1.0,817.248,1.0,552.0,17.0,1.02325,0.87318
White,21,Right,21,Male,No,English,A,554,1,16,8,180.0,1.0,1.0,1005.55,1.0,553.0,17.0,1.09761,0.838613
White,21,Right,21,Male,No,English,A,555,1,8,4,180.0,1.0,1.0,982.016,1.0,554.0,17.0,1.14031,0.855268
White,21,Right,21,Male,No,English,A,556,0,16,8,0.0,0.0,1.0,831.185,1.0,555.0,17.0,1.02036,0.949684
White,21,Right,21,Male,No,English,A,557,1,4,8,0.0,0.0,1.0,1010.36,1.0,556.0,17.0,1.05952,0.857841
White,21,Right,21,Male,No,English,A,558,1,8,0,0.0,0.0,1.0,891.964,1.0,557.0,17.0,1.06461,0.936305
White,21,Right,21,Male,No,English,A,559,1,8,8,180.0,1.0,1.0,1088.48,1.0,558.0,17.0,1.19471,0.901399
White,21,Right,21,Male,No,English,A,560,0,0,8,0.0,0.0,1.0,738.675,1.0,559.0,17.0,1.17133,0.866697
White,21,Right,21,Male,No,English,A,561,1,16,0,180.0,1.0,1.0,1169.91,1.0,560.0,17.0,1.09105,0.987425
White,21,Right,21,Male,No,English,A,562,0,4,4,0.0,0.0,1.0,815.954,1.0,561.0,17.0,1.08047,0.937292
White,21,Right,21,Male,No,English,A,563,1,16,16,0.0,0.0,1.0,678.573,1.0,562.0,17.0,1.16556,0.854324
White,21,Right,21,Male,No,English,A,564,0,4,16,180.0,1.0,1.0,1000.24,1.0,563.0,17.0,1.05204,0.915581
White,21,Right,21,Male,No,English,A,565,0,16,4,180.0,1.0,1.0,1060.55,1.0,564.0,17.0,1.18446,0.979906
White,21,Right,21,Male,No,English,A,566,1,16,4,0.0,0.0,1.0,1758.68,1.0,565.0,17.0,1.19861,0.881253
White,21,Right,21,Male,No,English,A,567,0,8,8,0.0,0.0,1.0,879.955,1.0,566.0,17.0,1.17173,0.937871
White,21,Right,21,Male,No,English,A,568,0,4,8,0.0,0.0,1.0,1030.1,1.0,567.0,17.0,1.10541,0.838376
White,21,Right,21,Male,No,English,A,569,0,0,4,0.0,0.0,1.0,1522.29,1.0,568.0,17.0,1.167,0.864661
White,21,Right,21,Male,No,English,A,570,1,0,0,180.0,1.0,1.0,698.686,1.0,569.0,17.0,1.12996,0.877949
White,21,Right,21,Male,No,English,A,571,1,4,0,0.0,0.0,1.0,1203.97,1.0,570.0,17.0,1.13709,0.829521
White,21,Right,21,Male,No,English,A,572,0,8,4,0.0,0.0,1.0,1625.26,1.0,571.0,17.0,1.16247,0.964616
White,21,Right,21,Male,No,English,A,573,1,0,16,0.0,0.0,1.0,628.88,1.0,572.0,17.0,1.16275,0.919567
White,21,Right,21,Male,No,English,A,574,1,0,4,180.0,1.0,1.0,1302.43,1.0,573.0,17.0,1.1138,0.88453
White,21,Right,21,Male,No,English,A,575,0,0,0,180.0,1.0,1.0,647.793,1.0,574.0,17.0,1.07488,0.961992
White,21,Right,21,Male,No,English,A,576,0,0,16,180.0,1.0,1.0,686.52,1.0,575.0,17.0,1.18247,0.83567
White,21,Right,21,Male,No,English,A,577,1,8,4,180.0,1.0,1.0,1417.33,1.0,576.0,18.0,1.11696,0.911532
White,21,Right,21,Male,No,English,A,578,0,4,0,180.0,1.0,1.0,1129.55,1.0,577.0,18.0,1.13304,0.828065
White,21,Right,21,Male,No,English,A,579,1,0,4,0.0,0.0,1.0,805.494,1.0,578.0,18.0,1.03709,0.820284
White,21,Right,21,Male,No,English,A,580,0,0,8,0.0,0.0,1.0,1216.44,1.0,579.0,18.0,1.05729,0.887229
White,21,Right,21,Male,No,English,A,581,0,16,16,180.0,1.0,1.0,928.78,1.0,580.0,18.0,1.10947,0.901613
White,21,Right,21,Male,No,English,A,582,0,8,0,0.0,0.0,1.0,1290.62,1.0,581.0,18.0,1.12537,0.84086
White,21,Right,21,Male,No,English,A,583,0,4,16,180.0,1.0,1.0,667.695,1.0,582.0,18.0,1.04784,0.974711
White,21,Right,21,Male,No,English,A,584,1,4,4,0.0,0.0,1.0,863.395,1.0,583.0,18.0,1.19504,0.811845
White,21,Right,21,Male,No,English,A,585,0,16,0,0.0,0.0,1.0,1378.52,1.0,584.0,18.0,1.01953,0.966282
White,21,Right,21,Male,No,English,A,586,1,0,0,180.0,1.0,1.0,565.844,1.0,585.0,18.0,1.02821,0.966342
White,21,Right,21,Male,No,English,A,587,0,8,16,0.0,0.0,1.0,861.575,1.0,586.0,18.0,1.06486,0.856951
White,21,Right,21,Male,No,English,A,588,0,16,8,180.0,1.0,1.0,606.586,1.0,587.0,18.0,1.09504,0.94882
White,21,Right,21,Male,No,English,A,589,1,16,0,0.0,0.0,1.0,1683.51,1.0,588.0,18.0,1.11195,0.865924
White,21,Right,21,Male,No,English,A,590,0,0,16,180.0,1.0,1.0,912.102,1.0,589.0,18.0,1.0182,0.823802
White,21,Right,21,Male,No,English,A,591,0,4,8,180.0,1.0,1.0,756.113,1.0,590.0,18.0,1.04325,0.917006
White,21,Right,21,Male,No,English,A,592,1,8,8,180.0,1.0,1.0,971.827,1.0,591.0,18.0,1.15009,0.913049
White,21,Right,21,Male,No,English,A,593,1,4,8,0.0,0.0,1.0,1320.95,1.0,592.0,18.0,1.04273,0.879393
White,21,Right,21,Male,No,English,A,594,1,4,16,180.0,1.0,1.0,895.726,1.0,593.0,18.0,1.19421,0.848758
White,21,Right,21,Male,No,English,A,595,0,0,0,180.0,1.0,1.0,748.896,1.0,594.0,18.0,1.15336,0.865887
White,21,Right,21,Male,No,English,A,596,1,4,0,180.0,1.0,1.0,1704.86,1.0,595.0,18.0,1.06204,0.841738
White,21,Right,21,Male,No,English,A,597,0,0,4,0.0,0.0,1.0,768.955,1.0,596.0,18.0,1.18278,0.977812
White,21,Right,21,Male,No,English,A,598,1,0,16,0.0,0.0,1.0,739.67,1.0,597.0,18.0,1.08016,0.80594
White,21,Right,21,Male,No,English,A,599,1,8,16,180.0,1.0,1.0,1067.98,1.0,598.0,18.0,1.08398,0.971486
White,21,Right,21,Male,No,English,A,600,0,4,4,180.0,1.0,1.0,665.404,1.0,599.0,18.0,1.15324,0.849821
White,21,Right,21,Male,No,English,A,601,0,8,4,180.0,1.0,1.0,616.688,1.0,600.0,18.0,1.0896,0.980153
White,21,Right,21,Male,No,English,A,602,0,16,4,0.0,0.0,1.0,863.74,1.0,601.0,18.0,1.15875,0.922627
White,21,Right,21,Male,No,English,A,603,1,0,8,0.0,0.0,1.0,776.818,1.0,602.0,18.0,1.13632,0.816155
White,21,Right,21,Male,No,English,A,604,1,8,0,0.0,0.0,1.0,698.03,1.0,603.0,18.0,1.04047,0.836596
White,21,Right,21,Male,No,English,A,605,1,16,16,0.0,0.0,1.0,1005.27,1.0,604.0,18.0,1.02295,0.848775
White,21,Right,21,Male,No,English,A,606,0,8,8,180.0,1.0,1.0,917.083,1.0,605.0,18.0,1.01798,0.874811
White,21,Right,21,Male,No,English,A,607,1,16,8,0.0,0.0,1.0,1267.57,1.0,606.0,18.0,1.15535,0.912798
White,21,Right,21,Male,No,English,A,608,1,16,4,0.0,0.0,1.0,1295.47,1.0,607.0,18.0,1.19158,0.948744
White,21,Right,21,Male,No,English,A,609,0,4,4,180.0,1.0,1.0,2385.76,1.0,608.0,19.0,1.00126,0.914642
White,21,Right,21,Male,No,English,A,610,0,4,0,180.0,1.0,1.0,1361.37,1.0,609.0,19.0,1.15691,0.975126
White,21,Right,21,Male,No,English,A,611,0,4,8,180.0,9999.0,0.0,9999.0,1.0,610.0,19.0,1.07127,0.874339
White,21,Right,21,Male,No,English,A,612,0,0,4,0.0,0.0,1.0,988.297,1.0,611.0,19.0,1.09806,0.90894
White,21,Right,21,Male,No,English,A,613,0,8,0,180.0,1.0,1.0,747.253,1.0,612.0,19.0,1.16224,0.946127
White,21,Right,21,Male,No,English,A,614,0,16,0,0.0,0.0,1.0,970.406,1.0,613.0,19.0,1.03826,0.887981
White,21,Right,21,Male,No,English,A,615,1,8,0,180.0,1.0,1.0,606.751,1.0,614.0,19.0,1.12322,0.994577
White,21,Right,21,Male,No,English,A,616,0,8,16,0.0,0.0,1.0,741.657,1.0,615.0,19.0,1.10884,0.992495
White,21,Right,21,Male,No,English,A,617,1,4,0,0.0,0.0,1.0,600.427,1.0,616.0,19.0,1.13633,0.876649
White,21,Right,21,Male,No,English,A,618,1,0,8,0.0,0.0,1.0,872.372,1.0,617.0,19.0,1.141,0.850953
White,21,Right,21,Male,No,English,A,619,1,0,4,0.0,0.0,1.0,1087.07,1.0,618.0,19.0,1.07866,0.807621
White,21,Right,21,Male,No,English,A,620,1,16,4,180.0,1.0,1.0,1031.35,1.0,619.0,19.0,1.18834,0.925961
White,21,Right,21,Male,No,English,A,621,1,16,16,180.0,1.0,1.0,1569.26,1.0,620.0,19.0,1.08452,0.84023
White,21,Right,21,Male,No,English,A,622,0,0,8,180.0,1.0,1.0,740.009,1.0,621.0,19.0,1.13287,0.922315
White,21,Right,21,Male,No,English,A,623,1,8,8,0.0,0.0,1.0,1109.94,1.0,622.0,19.0,1.04395,0.991552
White,21,Right,21,Male,No,English,A,624,1,16,8,0.0,0.0,1.0,1099.09,1.0,623.0,19.0,1.12563,0.97383
White,21,Right,21,Male,No,English,A,625,1,4,8,0.0,0.0,1.0,1004.49,1.0,624.0,19.0,1.18293,0.988638
White,21,Right,21,Male,No,English,A,626,0,16,16,180.0,1.0,1.0,854.331,1.0,625.0,19.0,1.18733,0.933208
White,21,Right,21,Male,No,English,A,627,1,8,4,180.0,1.0,1.0,1087.62,1.0,626.0,19.0,1.07941,0.851188
White,21,Right,21,Male,No,English,A,628,1,8,16,0.0,0.0,1.0,714.095,1.0,627.0,19.0,1.05402,0.887777
White,21,Right,21,Male,No,English,A,629,0,4,16,0.0,0.0,1.0,1922.25,1.0,628.0,19.0,1.19449,0.82178
White,21,Right,21,Male,No,English,A,630,1,0,16,180.0,1.0,1.0,630.745,1.0,629.0,19.0,1.07248,0.940903
White,21,Right,21,Male,No,English,A,631,1,16,0,180.0,1.0,1.0,806.469,1.0,630.0,19.0,1.10691,0.816593
White,21,Right,21,Male,No,English,A,632,0,0,0,0.0,0.0,1.0,1165.08,1.0,631.0,19.0,1.02768,0.951304
White,21,Right,21,Male,No,English,A,633,1,0,0,180.0,1.0,1.0,1756.86,1.0,632.0,19.0,1.06229,0.991941
White,21,Right,21,Male,No,English,A,634,0,16,4,180.0,1.0,1.0,893.217,1.0,633.0,19.0,1.02627,0.922373
White,21,Right,21,Male,No,English,A,635,0,8,4,0.0,0.0,1.0,902.709,1.0,634.0,19.0,1.00018,0.934249
White,21,Right,21,Male,No,English,A,636,1,4,4,0.0,0.0,1.0,921.964,1.0,635.0,19.0,1.01639,0.895822
White,21,Right,21,Male,No,English,A,637,1,4,16,180.0,1.0,1.0,1887.74,1.0,636.0,19.0,1.1898,0.878437
White,21,Right,21,Male,No,English,A,638,0,8,8,0.0,0.0,1.0,1218.82,1.0,637.0,19.0,1.15637,0.953997
White,21,Right,21,Male,No,English,A,639,0,16,8,0.0,0.0,1.0,1083.85,1.0,638.0,19.0,1.09569,0.847605
White,21,Right,21,Male,No,English,A,640,0,0,16,180.0,1.0,1.0,567.331,1.0,639.0,19.0,1.01115,0.866478
White,21,Right,21,Male,No,English,A,641,0,0,8,0.0,0.0,1.0,1069.72,1.0,640.0,20.0,1.09127,0.822148
White,21,Right,21,Male,No,English,A,642,1,16,8,0.0,0.0,1.0,951.647,1.0,641.0,20.0,1.09291,0.95856
White,21,Right,21,Male,No,English,A,643,0,16,8,180.0,1.0,1.0,883.32,1.0,642.0,20.0,1.04603,0.8598
White,21,Right,21,Male,No,English,A,644,1,0,0,0.0,0.0,1.0,857.483,1.0,643.0,20.0,1.05,0.860167
White,21,Right,21,Male,No,English,A,645,1,8,16,0.0,0.0,1.0,961.056,1.0,644.0,20.0,1.19729,0.880498
White,21,Right,21,Male,No,English,A,646,1,0,8,0.0,0.0,1.0,798.591,1.0,645.0,20.0,1.13203,0.867709
White,21,Right,21,Male,No,English,A,647,0,16,0,0.0,0.0,1.0,1219.29,1.0,646.0,20.0,1.13052,0.973914
White,21,Right,21,Male,No,English,A,648,1,16,0,0.0,0.0,1.0,1709.3,1.0,647.0,20.0,1.05519,0.87343
White,21,Right,21,Male,No,English,A,649,1,8,0,180.0,1.0,1.0,1111.79,1.0,648.0,20.0,1.03077,0.995021
White,21,Right,21,Male,No,English,A,650,0,8,16,0.0,0.0,1.0,1111.22,1.0,649.0,20.0,1.07436,0.952987
White,21,Right,21,Male,No,English,A,651,0,4,8,0.0,0.0,1.0,2056.41,1.0,650.0,20.0,1.06994,0.956284
White,21,Right,21,Male,No,English,A,652,0,8,8,180.0,1.0,1.0,700.577,1.0,651.0,20.0,1.03712,0.808412
White,21,Right,21,Male,No,English,A,653,1,16,4,180.0,1.0,1.0,961.398,1.0,652.0,20.0,1.00803,0.82607
White,21,Right,21,Male,No,English,A,654,0,8,0,0.0,1.0,0.0,874.55,1.0,653.0,20.0,1.05856,0.831774
White,21,Right,21,Male,No,English,A,655,1,0,4,180.0,1.0,1.0,882.999,1.0,654.0,20.0,1.12173,0.978457
White,21,Right,21,Male,No,English,A,656,1,8,8,180.0,1.0,1.0,498.926,1.0,655.0,20.0,1.12964,0.957632
White,21,Right,21,Male,No,English,A,657,0,16,16,0.0,0.0,1.0,1033.65,1.0,656.0,20.0,1.12926,0.976307
White,21,Right,21,Male,No,English,A,658,0,4,0,0.0,1.0,0.0,620.929,1.0,657.0,20.0,1.00944,0.935798
White,21,Right,21,Male,No,English,A,659,0,4,16,180.0,1.0,1.0,802.347,1.0,658.0,20.0,1.00713,0.962338
White,21,Right,21,Male,No,English,A,660,0,16,4,180.0,1.0,1.0,1034.87,1.0,659.0,20.0,1.16858,0.996305
White,21,Right,21,Male,No,English,A,661,1,16,16,0.0,0.0,1.0,1351.63,1.0,660.0,20.0,1.16679,0.842494
White,21,Right,21,Male,No,English,A,662,0,4,4,0.0,0.0,1.0,750.912,1.0,661.0,20.0,1.17037,0.930792
White,21,Right,21,Male,No,English,A,663,1,4,8,180.0,1.0,1.0,755.281,1.0,662.0,20.0,1.08705,0.879508
White,21,Right,21,Male,No,English,A,664,1,0,16,180.0,1.0,1.0,604.219,1.0,663.0,20.0,1.15076,0.880861
White,21,Right,21,Male,No,English,A,665,0,8,4,180.0,1.0,1.0,885.788,1.0,664.0,20.0,1.09078,0.911913
White,21,Right,21,Male,No,English,A,666,0,0,4,0.0,0.0,1.0,971.118,1.0,665.0,20.0,1.16156,0.989872
White,21,Right,21,Male,No,English,A,667,0,0,16,180.0,1.0,1.0,462.426,1.0,666.0,20.0,1.0166,0.912701
White,21,Right,21,Male,No,English,A,668,1,4,16,180.0,1.0,1.0,899.448,1.0,667.0,20.0,1.01823,0.992895
White,21,Right,21,Male,No,English,A,669,1,8,4,180.0,1.0,1.0,812.089,1.0,668.0,20.0,1.03132,0.851411
White,21,Right,21,Male,No,English,A,670,1,4,0,180.0,1.0,1.0,1099.76,1.0,669.0,20.0,1.16113,0.933064
White,21,Right,21,Male,No,English,A,671,1,4,4,0.0,0.0,1.0,2360.03,1.0,670.0,20.0,1.10818,0.848704
White,21,Right,21,Male,No,English,A,672,0,0,0,180.0,1.0,1.0,712.038,1.0,671.0,20.0,1.1417,0.973253
White,21,Right,21,Male,No,English,A,673,0,16,8,180.0,1.0,1.0,638.009,1.0,672.0,21.0,1.03554,0.920599
White,21,Right,21,Male,No,English,A,674,0,8,16,0.0,0.0,1.0,800.008,1.0,673.0,21.0,1.00396,0.938259
White,21,Right,21,Male,No,English,A,675,0,4,4,0.0,0.0,1.0,952.851,1.0,674.0,21.0,1.19283,0.872615
White,21,Right,21,Male,No,English,A,676,1,4,16,0.0,0.0,1.0,795.266,1.0,675.0,21.0,1.00216,0.948308
White,21,Right,21,Male,No,English,A,677,1,0,0,180.0,1.0,1.0,568.021,1.0,676.0,21.0,1.14025,0.932795
White,21,Right,21,Male,No,English,A,678,0,16,4,0.0,0.0,1.0,1090.0,1.0,677.0,21.0,1.04176,0.953138
White,21,Right,21,Male,No,English,A,679,1,0,8,0.0,0.0,1.0,650.003,1.0,678.0,21.0,1.16089,0.961741
White,21,Right,21,Male,No,English,A,680,0,8,8,180.0,1.0,1.0,942.396,1.0,679.0,21.0,1.07385,0.93097
White,21,Right,21,Male,No,English,A,681,1,8,4,0.0,0.0,1.0,852.472,1.0,680.0,21.0,1.10221,0.814068
White,21,Right,21,Male,No,English,A,682,0,0,0,180.0,1.0,1.0,699.144,1.0,681.0,21.0,1.00711,0.976723
White,21,Right,21,Male,No,English,A,683,1,0,4,0.0,0.0,1.0,885.829,1.0,682.0,21.0,1.10196,0.827254
White,21,Right,21,Male,No,English,A,684,1,16,0,180.0,1.0,1.0,842.17,1.0,683.0,21.0,1.12803,0.906877
White,21,Right,21,Male,No,English,A,685,1,16,8,180.0,1.0,1.0,1089.14,1.0,684.0,21.0,1.10548,0.861947
White,21,Right,21,Male,No,English,A,686,0,4,8,180.0,1.0,1.0,911.13,1.0,685.0,21.0,1.09152,0.891774
White,21,Right,21,Male,No,English,A,687,1,16,16,0.0,0.0,1.0,1033.75,1.0,686.0,21.0,1.10035,0.899075
White,21,Right,21,Male,No,English,A,688,1,16,4,0.0,0.0,1.0,1289.69,1.0,687.0,21.0,1.01778,0.834029
White,21,Right,21,Male,No,English,A,689,0,0,4,180.0,1.0,1.0,2402.57,1.0,688.0,21.0,1.00223,0.884637
White,21,Right,21,Male,No,English,A,690,0,8,0,0.0,0.0,1.0,779.457,1.0,689.0,21.0,1.1161,0.970585
White,21,Right,21,Male,No,English,A,691,0,4,16,0.0,0.0,1.0,931.716,1.0,690.0,21.0,1.01309,0.950258
White,21,Right,21,Male,No,English,A,692,1,0,16,0.0,0.0,1.0,1040.67,1.0,691.0,21.0,1.11826,0.981517
White,21,Right,21,Male,No,English,A,693,0,0,8,180.0,1.0,1.0,1473.69,1.0,692.0,21.0,1.16189,0.925399
White,21,Right,21,Male,No,English,A,694,1,8,0,0.0,0.0,1.0,1303.32,1.0,693.0,21.0,1.11409,0.943694
White,21,Right,21,Male,No,English,A,695,0,16,16,180.0,1.0,1.0,1324.13,1.0,694.0,21.0,1.15734,0.839908
White,21,Right,21,Male,No,English,A,696,1,8,8,180.0,1.0,1.0,798.763,1.0,695.0,21.0,1.05647,0.987342
White,21,Right,21,Male,No,English,A,697,0,16,0,180.0,1.0,1.0,773.679,1.0,696.0,21.0,1.07177,0.914895
White,21,Right,21,Male,No,English,A,698,1,4,0,0.0,0.0,1.0,622.4,1.0,697.0,21.0,1.05123,0.838396
White,21,Right,21,Male,No,English,A,699,0,4,0,0.0,0.0,1.0,1125.41,1.0,698.0,21.0,1.17568,0.810986
White,21,Right,21,Male,No,English,A,700,1,4,4,180.0,1.0,1.0,981.811,1.0,699.0,21.0,1.04482,0.908901
White,21,Right,21,Male,No,English,A,701,0,0,16,180.0,1.0,1.0,1085.01,1.0,700.0,21.0,1.12539,0.861722
White,21,Right,21,Male,No,English,A,702,0,8,4,0.0,0.0,1.0,1014.75,1.0,701.0,21.0,1.10577,0.864163
White,21,Right,21,Male,No,English,A,703,1,8,16,180.0,1.0,1.0,1917.38,1.0,702.0,21.0,1.05491,0.872523
White,21,Right,21,Male,No,English,A,704,1,4,8,180.0,1.0,1.0,975.999,1.0,703.0,21.0,1.04936,0.903533
White,21,Right,21,Male,No,English,A,705,0,16,0,0.0,0.0,1.0,1755.12,1.0,704.0,22.0,1.18142,0.989876
White,21,Right,21,Male,No,English,A,706,1,8,0,180.0,1.0,1.0,836.743,1.0,705.0,22.0,1.0314,0.830117
White,21,Right,21,Male,No,English,A,707,1,8,8,0.0,0.0,1.0,714.784,1.0,706.0,22.0,1.14975,0.80287
White,21,Right,21,Male,No,English,A,708,0,4,0,180.0,1.0,1.0,896.996,1.0,707.0,22.0,1.00307,0.898562
White,21,Right,21,Male,No,English,A,709,0,16,16,0.0,0.0,1.0,987.983,1.0,708.0,22.0,1.11313,0.91182
White,21,Right,21,Male,No,English,A,710,0,0,8,180.0,1.0,1.0,908.55,1.0,709.0,22.0,1.11302,0.815101
White,21,Right,21,Male,No,English,A,711,1,16,4,180.0,1.0,1.0,1647.75,1.0,710.0,22.0,1.14841,0.816534
White,21,Right,21,Male,No,English,A,712,0,8,4,180.0,1.0,1.0,1112.41,1.0,711.0,22.0,1.01339,0.925302
White,21,Right,21,Male,No,English,A,713,1,4,0,0.0,9999.0,0.0,9999.0,1.0,712.0,22.0,1.15908,0.924512
White,21,Right,21,Male,No,English,A,714,1,8,16,0.0,0.0,1.0,782.879,1.0,713.0,22.0,1.04707,0.819512
White,21,Right,21,Male,No,English,A,715,1,16,8,180.0,1.0,1.0,875.684,1.0,714.0,22.0,1.14908,0.875487
White,21,Right,21,Male,No,English,A,716,0,4,4,0.0,0.0,1.0,779.075,1.0,715.0,22.0,1.09941,0.939716
White,21,Right,21,Male,No,English,A,717,0,0,0,0.0,0.0,1.0,636.27,1.0,716.0,22.0,1.15639,0.824298
White,21,Right,21,Male,No,English,A,718,1,0,16,180.0,1.0,1.0,1460.37,1.0,717.0,22.0,1.06918,0.97735
White,21,Right,21,Male,No,English,A,719,1,4,16,0.0,0.0,1.0,1018.19,1.0,718.0,22.0,1.13746,0.887453
White,21,Right,21,Male,No,English,A,720,1,0,4,0.0,0.0,1.0,1676.72,1.0,719.0,22.0,1.02648,0.916887
White,21,Right,21,Male,No,English,A,721,0,0,4,180.0,1.0,1.0,1060.89,1.0,720.0,22.0,1.04246,0.847404
White,21,Right,21,Male,No,English,A,722,0,8,16,0.0,0.0,1.0,847.686,1.0,721.0,22.0,1.01201,0.857569
White,21,Right,21,Male,No,English,A,723,1,16,16,0.0,0.0,1.0,886.246,1.0,722.0,22.0,1.13579,0.971545
White,21,Right,21,Male,No,English,A,724,1,4,8,180.0,1.0,1.0,960.667,1.0,723.0,22.0,1.13121,0.986749
White,21,Right,21,Male,No,English,A,725,0,8,0,180.0,1.0,1.0,914.944,1.0,724.0,22.0,1.13085,0.960009
White,21,Right,21,Male,No,English,A,726,1,4,4,180.0,1.0,1.0,666.658,1.0,725.0,22.0,1.00265,0.870514
White,21,Right,21,Male,No,English,A,727,1,8,4,0.0,0.0,1.0,747.568,1.0,726.0,22.0,1.18583,0.870158
White,21,Right,21,Male,No,English,A,728,0,4,8,0.0,0.0,1.0,970.454,1.0,727.0,22.0,1.08021,0.850958
White,21,Right,21,Male,No,English,A,729,0,0,16,180.0,1.0,1.0,611.268,1.0,728.0,22.0,1.06292,0.821583
White,21,Right,21,Male,No,English,A,730,0,16,4,180.0,1.0,1.0,761.756,1.0,729.0,22.0,1.07174,0.974055
White,21,Right,21,Male,No,English,A,731,0,16,8,0.0,0.0,1.0,929.891,1.0,730.0,22.0,1.13088,0.941102
White,21,Right,21,Male,No,English,A,732,1,16,0,0.0,0.0,1.0,898.996,1.0,731.0,22.0,1.13818,0.90996
White,21,Right,21,Male,No,English,A,733,1,0,0,180.0,1.0,1.0,704.786,1.0,732.0,22.0,1.10543,0.997951
White,21,Right,21,Male,No,English,A,734,0,4,16,180.0,1.0,1.0,871.512,1.0,733.0,22.0,1.15936,0.93623
White,21,Right,21,Male,No,English,A,735,0,8,8,180.0,9999.0,0.0,9999.0,1.0,734.0,22.0,1.1711,0.853054
White,21,Right,21,Male,No,English,A,736,1,0,8,0.0,0.0,1.0,736.742,1.0,735.0,22.0,1.00587,0.976494
White,21,Right,21,Male,No,English,A,737,0,8,4,180.0,1.0,1.0,701.039,1.0,736.0,23.0,1.19989,0.918915
White,21,Right,21,Male,No,English,A,738,1,4,0,180.0,1.0,1.0,749.172,1.0,737.0,23.0,1.09155,0.84674
White,21,Right,21,Male,No,English,A,739,1,4,4,180.0,1.0,1.0,1405.79,1.0,738.0,23.0,1.13871,0.940485
White,21,Right,21,Male,No,English,A,740,0,0,8,0.0,0.0,1.0,1330.99,1.0,739.0,23.0,1.10554,0.854995
White,21,Right,21,Male,No,English,A,741,0,0,4,0.0,0.0,1.0,733.669,1.0,740.0,23.0,1.16173,0.833335
White,21,Right,21,Male,No,English,A,742,1,8,0,180.0,1.0,1.0,1812.91,1.0,741.0,23.0,1.00176,0.861399
White,21,Right,21,Male,No,English,A,743,0,0,16,0.0,0.0,1.0,1185.31,1.0,742.0,23.0,1.10673,0.828862
White,21,Right,21,Male,No,English,A,744,1,0,4,180.0,1.0,1.0,969.563,1.0,743.0,23.0,1.12758,0.862765
White,21,Right,21,Male,No,English,A,745,1,16,0,0.0,0.0,1.0,1125.49,1.0,744.0,23.0,1.08744,0.830658
White,21,Right,21,Male,No,English,A,746,1,4,16,0.0,0.0,1.0,906.904,1.0,745.0,23.0,1.17179,0.892539
White,21,Right,21,Male,No,English,A,747,0,4,0,180.0,1.0,1.0,1003.91,1.0,746.0,23.0,1.02897,0.862194
White,21,Right,21,Male,No,English,A,748,0,8,16,180.0,1.0,1.0,958.551,1.0,747.0,23.0,1.00837,0.919328
White,21,Right,21,Male,No,English,A,749,1,8,8,180.0,1.0,1.0,1166.96,1.0,748.0,23.0,1.04214,0.937151
White,21,Right,21,Male,No,English,A,750,0,16,0,0.0,0.0,1.0,1611.41,1.0,749.0,23.0,1.01159,0.883405
White,21,Right,21,Male,No,English,A,751,0,16,8,0.0,0.0,1.0,1184.45,1.0,750.0,23.0,1.08542,0.992094
White,21,Right,21,Male,No,English,A,752,1,16,8,0.0,9999.0,0.0,9999.0,1.0,751.0,23.0,1.15691,0.913591
White,21,Right,21,Male,No,English,A,753,1,16,4,180.0,1.0,1.0,983.376,1.0,752.0,23.0,1.16317,0.80167
White,21,Right,21,Male,No,English,A,754,1,8,4,180.0,1.0,1.0,2053.37,1.0,753.0,23.0,1.1034,0.889435
White,21,Right,21,Male,No,English,A,755,1,0,8,180.0,1.0,1.0,2032.32,1.0,754.0,23.0,1.13159,0.936071
White,21,Right,21,Male,No,English,A,756,1,4,8,180.0,1.0,1.0,2003.7,1.0,755.0,23.0,1.10779,0.997326
White,21,Right,21,Male,No,English,A,757,0,8,8,0.0,0.0,1.0,1353.7,1.0,756.0,23.0,1.15101,0.966414
White,21,Right,21,Male,No,English,A,758,1,0,0,0.0,9999.0,0.0,9999.0,1.0,757.0,23.0,1.17658,0.878883
White,21,Right,21,Male,No,English,A,759,0,16,16,180.0,1.0,1.0,1116.81,1.0,758.0,23.0,1.01785,0.917627
White,21,Right,21,Male,No,English,A,760,0,4,4,0.0,0.0,1.0,875.699,1.0,759.0,23.0,1.08929,0.887843
White,21,Right,21,Male,No,English,A,761,0,8,0,0.0,1.0,0.0,876.122,1.0,760.0,23.0,1.06396,0.850035
White,21,Right,21,Male,No,English,A,762,0,4,16,180.0,1.0,1.0,738.98,1.0,761.0,23.0,1.15346,0.985095
White,21,Right,21,Male,No,English,A,763,0,16,4,180.0,1.0,1.0,662.027,1.0,762.0,23.0,1.04455,0.917017
White,21,Right,21,Male,No,English,A,764,0,0,0,0.0,0.0,1.0,735.496,1.0,763.0,23.0,1.12057,0.863851
White,21,Right,21,Male,No,English,A,765,1,8,16,0.0,0.0,1.0,599.522,1.0,764.0,23.0,1.00362,0.920874
White,21,Right,21,Male,No,English,A,766,1,16,16,180.0,1.0,1.0,1076.34,1.0,765.0,23.0,1.00339,0.847698
White,21,Right,21,Male,No,English,A,767,0,4,8,0.0,0.0,1.0,1240.79,1.0,766.0,23.0,1.15467,0.831738
White,21,Right,21,Male,No,English,A,768,1,0,16,0.0,0.0,1.0,877.764,1.0,767.0,23.0,1.02836,0.926096
