Ethnicity,Subject Number,Preferred Hand,Age,Gender,Color blind,First Language,Room,TrialNumber,background,turtles,tortoises,target_id,resp,hit,rt,ran,order,block,iti,fix_duration
Asian,1,Right,18,Male,Yes,English,A,1,1,8,4,180.0,1.0,1.0,970.745,1.0,0.0,0.0,1.11634,0.823914
Asian,1,Right,18,Male,Yes,English,A,2,1,4,4,0.0,0.0,1.0,793.085,1.0,1.0,0.0,1.14734,0.962076
Asian,1,Right,18,Male,Yes,English,A,3,1,0,8,180.0,1.0,1.0,633.759,1.0,2.0,0.0,1.0706,0.832594
Asian,1,Right,18,Male,Yes,English,A,4,0,16,16,0.0,0.0,1.0,1212.03,1.0,3.0,0.0,1.07512,0.962416
Asian,1,Right,18,Male,Yes,English,A,5,0,4,8,0.0,0.0,1.0,1499.48,1.0,4.0,0.0,1.00103,0.916828
Asian,1,Right,18,Male,Yes,English,A,6,0,0,8,180.0,1.0,1.0,927.777,1.0,5.0,0.0,1.02804,0.848341
Asian,1,Right,18,Male,Yes,English,A,7,0,4,4,0.0,0.0,1.0,702.299,1.0,6.0,0.0,1.02043,0.949883
Asian,1,Right,18,Male,Yes,English,A,8,0,8,4,180.0,1.0,1.0,654.166,1.0,7.0,0.0,1.00337,0.913458
Asian,1,Right,18,Male,Yes,English,A,9,1,0,4,0.0,0.0,1.0,994.752,1.0,8.0,0.0,1.0922,0.961639
Asian,1,Right,18,Male,Yes,English,A,10,1,16,16,180.0,1.0,1.0,857.16,1.0,9.0,0.0,1.11559,0.859923
Asian,1,Right,18,Male,Yes,English,A,11,0,4,0,0.0,0.0,1.0,786.17,1.0,10.0,0.0,1.09281,0.861848
Asian,1,Right,18,Male,Yes,English,A,12,1,16,0,0.0,0.0,1.0,872.831,1.0,11.0,0.0,1.14373,0.940885
Asian,1,Right,18,Male,Yes,English,A,13,0,8,0,180.0,1.0,1.0,820.215,1.0,12.0,0.0,1.01382,0.984245
Asian,1,Right,18,Male,Yes,English,A,14,0,8,8,180.0,1.0,1.0,803.553,1.0,13.0,0.0,1.04572,0.91743
Asian,1,Right,18,Male,Yes,English,A,15,0,16,8,0.0,0.0,1.0,598.042,1.0,14.0,0.0,1.02204,0.850906
Asian,1,Right,18,Male,Yes,English,A,16,1,0,0,0.0,0.0,1.0,559.979,1.0,15.0,0.0,1.17964,0.962608
Asian,1,Right,18,Male,Yes,English,A,17,1,0,16,180.0,1.0,1.0,547.601,1.0,16.0,0.0,1.06782,0.922884
Asian,1,Right,18,Male,Yes,English,A,18,0,16,0,0.0,0.0,1.0,635.854,1.0,17.0,0.0,1.14113,0.942996
Asian,1,Right,18,Male,Yes,English,A,19,1,16,4,0.0,0.0,1.0,1020.38,1.0,18.0,0.0,1.03116,0.922821
Asian,1,Right,18,Male,Yes,English,A,20,0,4,16,180.0,1.0,1.0,1227.55,1.0,19.0,0.0,1.13609,0.943545
Asian,1,Right,18,Male,Yes,English,A,21,0,16,4,180.0,1.0,1.0,1135.12,1.0,20.0,0.0,1.18549,0.897025
Asian,1,Right,18,Male,Yes,English,A,22,0,8,16,180.0,1.0,1.0,809.953,1.0,21.0,0.0,1.1447,0.944581
Asian,1,Right,18,Male,Yes,English,A,23,1,8,16,0.0,0.0,1.0,703.708,1.0,22.0,0.0,1.13929,0.947839
Asian,1,Right,18,Male,Yes,English,A,24,0,0,4,180.0,1.0,1.0,697.041,1.0,23.0,0.0,1.17862,0.857975
Asian,1,Right,18,Male,Yes,English,A,25,1,8,0,0.0,0.0,1.0,718.273,1.0,24.0,0.0,1.10501,0.865224
Asian,1,Right,18,Male,Yes,English,A,26,1,8,8,0.0,0.0,1.0,630.26,1.0,25.0,0.0,1.07739,0.953206
Asian,1,Right,18,Male,Yes,English,A,27,1,4,8,180.0,1.0,1.0,743.34,1.0,26.0,0.0,1.03782,0.935347
Asian,1,Right,18,Male,Yes,English,A,28,0,0,0,0.0,0.0,1.0,685.898,1.0,27.0,0.0,1.12168,0.937585
Asian,1,Right,18,Male,Yes,English,A,29,1,4,0,180.0,1.0,1.0,593.583,1.0,28.0,0.0,1.07929,0.818762
Asian,1,Right,18,Male,Yes,English,A,30,1,16,8,180.0,1.0,1.0,593.125,1.0,29.0,0.0,1.15085,0.97752
Asian,1,Right,18,Male,Yes,English,A,31,1,4,16,180.0,1.0,1.0,1288.81,1.0,30.0,0.0,1.14823,0.874981
Asian,1,Right,18,Male,Yes,English,A,32,0,0,16,0.0,0.0,1.0,832.379,1.0,31.0,0.0,1.15692,0.832301
Asian,1,Right,18,Male,Yes,English,A,33,1,4,8,180.0,1.0,1.0,785.771,1.0,32.0,1.0,1.03883,0.816191
Asian,1,Right,18,Male,Yes,English,A,34,0,16,0,180.0,1.0,1.0,590.01,1.0,33.0,1.0,1.00312,0.956833
Asian,1,Right,18,Male,Yes,English,A,35,1,8,16,180.0,1.0,1.0,774.097,1.0,34.0,1.0,1.11143,0.833145
Asian,1,Right,18,Male,Yes,English,A,36,0,8,0,0.0,0.0,1.0,662.472,1.0,35.0,1.0,1.09801,0.96109
Asian,1,Right,18,Male,Yes,English,A,37,0,0,16,0.0,0.0,1.0,900.616,1.0,36.0,1.0,1.17771,0.882365
Asian,1,Right,18,Male,Yes,English,A,38,1,0,16,0.0,0.0,1.0,580.886,1.0,37.0,1.0,1.00641,0.872552
Asian,1,Right,18,Male,Yes,English,A,39,0,8,4,0.0,0.0,1.0,756.008,1.0,38.0,1.0,1.07539,0.805772
Asian,1,Right,18,Male,Yes,English,A,40,1,16,8,180.0,1.0,1.0,876.722,1.0,39.0,1.0,1.01697,0.917638
Asian,1,Right,18,Male,Yes,English,A,41,0,4,8,0.0,0.0,1.0,975.232,1.0,40.0,1.0,1.11336,0.820478
Asian,1,Right,18,Male,Yes,English,A,42,1,8,4,180.0,1.0,1.0,682.818,1.0,41.0,1.0,1.14129,0.873837
Asian,1,Right,18,Male,Yes,English,A,43,0,0,4,180.0,1.0,1.0,674.348,1.0,42.0,1.0,1.0431,0.833816
Asian,1,Right,18,Male,Yes,English,A,44,1,0,8,0.0,0.0,1.0,563.673,1.0,43.0,1.0,1.00013,0.935662
Asian,1,Right,18,Male,Yes,English,A,45,1,16,16,0.0,0.0,1.0,1435.34,1.0,44.0,1.0,1.00695,0.981309
Asian,1,Right,18,Male,Yes,English,A,46,0,8,8,180.0,1.0,1.0,893.029,1.0,45.0,1.0,1.04229,0.817095
Asian,1,Right,18,Male,Yes,English,A,47,0,16,4,180.0,1.0,1.0,666.062,1.0,46.0,1.0,1.02312,0.95337
Asian,1,Right,18,Male,Yes,English,A,48,0,4,16,180.0,1.0,1.0,544.128,1.0,47.0,1.0,1.13103,0.994174
Asian,1,Right,18,Male,Yes,English,A,49,1,8,0,0.0,0.0,1.0,1210.07,1.0,48.0,1.0,1.03101,0.905582
Asian,1,Right,18,Male,Yes,English,A,50,1,4,0,0.0,0.0,1.0,828.658,1.0,49.0,1.0,1.05613,0.826742
Asian,1,Right,18,Male,Yes,English,A,51,1,8,8,180.0,1.0,1.0,622.509,1.0,50.0,1.0,1.06459,0.997043
Asian,1,Right,18,Male,Yes,English,A,52,1,0,0,180.0,1.0,1.0,596.41,1.0,51.0,1.0,1.03023,0.900645
Asian,1,Right,18,Male,Yes,English,A,53,0,16,16,180.0,1.0,1.0,836.548,1.0,52.0,1.0,1.12464,0.957499
Asian,1,Right,18,Male,Yes,English,A,54,0,0,8,180.0,1.0,1.0,984.504,1.0,53.0,1.0,1.01347,0.922225
Asian,1,Right,18,Male,Yes,English,A,55,0,16,8,0.0,0.0,1.0,744.838,1.0,54.0,1.0,1.1188,0.989807
Asian,1,Right,18,Male,Yes,English,A,56,0,0,0,0.0,0.0,1.0,626.817,1.0,55.0,1.0,1.00771,0.918064
Asian,1,Right,18,Male,Yes,English,A,57,1,0,4,0.0,0.0,1.0,582.341,1.0,56.0,1.0,1.16308,0.88211
Asian,1,Right,18,Male,Yes,English,A,58,0,4,4,180.0,1.0,1.0,654.841,1.0,57.0,1.0,1.07571,0.807493
Asian,1,Right,18,Male,Yes,English,A,59,1,16,4,180.0,1.0,1.0,1004.5,1.0,58.0,1.0,1.11373,0.887275
Asian,1,Right,18,Male,Yes,English,A,60,0,8,16,0.0,0.0,1.0,834.303,1.0,59.0,1.0,1.09101,0.948742
Asian,1,Right,18,Male,Yes,English,A,61,1,4,4,0.0,0.0,1.0,709.414,1.0,60.0,1.0,1.06714,0.916157
Asian,1,Right,18,Male,Yes,English,A,62,0,4,0,180.0,1.0,1.0,505.771,1.0,61.0,1.0,1.14393,0.886657
Asian,1,Right,18,Male,Yes,English,A,63,1,4,16,0.0,0.0,1.0,680.277,1.0,62.0,1.0,1.02328,0.902269
Asian,1,Right,18,Male,Yes,English,A,64,1,16,0,0.0,0.0,1.0,582.789,1.0,63.0,1.0,1.10513,0.996917
Asian,1,Right,18,Male,Yes,English,A,65,0,4,16,0.0,0.0,1.0,858.979,1.0,64.0,2.0,1.01797,0.976197
Asian,1,Right,18,Male,Yes,English,A,66,1,0,0,0.0,0.0,1.0,611.168,1.0,65.0,2.0,1.0492,0.801429
Asian,1,Right,18,Male,Yes,English,A,67,0,16,8,180.0,1.0,1.0,1208.76,1.0,66.0,2.0,1.03945,0.824785
Asian,1,Right,18,Male,Yes,English,A,68,1,16,8,0.0,0.0,1.0,722.382,1.0,67.0,2.0,1.0539,0.961819
Asian,1,Right,18,Male,Yes,English,A,69,1,4,0,0.0,0.0,1.0,570.658,1.0,68.0,2.0,1.11155,0.979948
Asian,1,Right,18,Male,Yes,English,A,70,0,0,8,180.0,1.0,1.0,706.927,1.0,69.0,2.0,1.13611,0.870859
Asian,1,Right,18,Male,Yes,English,A,71,1,8,0,180.0,1.0,1.0,858.859,1.0,70.0,2.0,1.07027,0.936578
Asian,1,Right,18,Male,Yes,English,A,72,0,16,0,0.0,0.0,1.0,815.361,1.0,71.0,2.0,1.13974,0.968122
Asian,1,Right,18,Male,Yes,English,A,73,0,4,8,180.0,1.0,1.0,874.89,1.0,72.0,2.0,1.01396,0.813515
Asian,1,Right,18,Male,Yes,English,A,74,0,4,0,0.0,0.0,1.0,591.378,1.0,73.0,2.0,1.17202,0.828839
Asian,1,Right,18,Male,Yes,English,A,75,1,8,8,180.0,1.0,1.0,892.624,1.0,74.0,2.0,1.16485,0.834857
Asian,1,Right,18,Male,Yes,English,A,76,1,16,0,180.0,1.0,1.0,718.75,1.0,75.0,2.0,1.08819,0.92345
Asian,1,Right,18,Male,Yes,English,A,77,0,0,0,180.0,1.0,1.0,539.022,1.0,76.0,2.0,1.11269,0.944815
Asian,1,Right,18,Male,Yes,English,A,78,1,0,8,0.0,0.0,1.0,589.569,1.0,77.0,2.0,1.06733,0.863623
Asian,1,Right,18,Male,Yes,English,A,79,1,8,4,0.0,0.0,1.0,624.538,1.0,78.0,2.0,1.15558,0.881365
Asian,1,Right,18,Male,Yes,English,A,80,1,8,16,180.0,1.0,1.0,854.385,1.0,79.0,2.0,1.07328,0.833961
Asian,1,Right,18,Male,Yes,English,A,81,0,8,16,0.0,0.0,1.0,1027.39,1.0,80.0,2.0,1.00153,0.83769
Asian,1,Right,18,Male,Yes,English,A,82,0,8,8,180.0,1.0,1.0,1271.31,1.0,81.0,2.0,1.15178,0.954826
Asian,1,Right,18,Male,Yes,English,A,83,0,0,16,0.0,0.0,1.0,1014.93,1.0,82.0,2.0,1.17041,0.848479
Asian,1,Right,18,Male,Yes,English,A,84,0,8,0,180.0,1.0,1.0,808.264,1.0,83.0,2.0,1.03272,0.865234
Asian,1,Right,18,Male,Yes,English,A,85,1,4,16,180.0,1.0,1.0,642.153,1.0,84.0,2.0,1.18479,0.947387
Asian,1,Right,18,Male,Yes,English,A,86,1,4,4,0.0,0.0,1.0,851.255,1.0,85.0,2.0,1.16976,0.823501
Asian,1,Right,18,Male,Yes,English,A,87,0,16,16,180.0,1.0,1.0,858.028,1.0,86.0,2.0,1.02748,0.92953
Asian,1,Right,18,Male,Yes,English,A,88,0,0,4,180.0,1.0,1.0,629.469,1.0,87.0,2.0,1.14852,0.91788
Asian,1,Right,18,Male,Yes,English,A,89,0,16,4,180.0,1.0,1.0,850.978,1.0,88.0,2.0,1.18622,0.982364
Asian,1,Right,18,Male,Yes,English,A,90,0,4,4,180.0,1.0,1.0,753.829,1.0,89.0,2.0,1.08489,0.850446
Asian,1,Right,18,Male,Yes,English,A,91,1,16,4,0.0,0.0,1.0,748.121,1.0,90.0,2.0,1.17779,0.958277
Asian,1,Right,18,Male,Yes,English,A,92,1,0,4,0.0,0.0,1.0,518.318,1.0,91.0,2.0,1.00258,0.92175
Asian,1,Right,18,Male,Yes,English,A,93,0,8,4,0.0,0.0,1.0,754.382,1.0,92.0,2.0,1.1012,0.812984
Asian,1,Right,18,Male,Yes,English,A,94,1,16,16,180.0,1.0,1.0,846.723,1.0,93.0,2.0,1.18189,0.981148
Asian,1,Right,18,Male,Yes,English,A,95,1,0,16,0.0,1.0,0.0,406.733,1.0,94.0,2.0,1.03168,0.906223
Asian,1,Right,18,Male,Yes,English,A,96,1,4,8,0.0,0.0,1.0,535.131,1.0,95.0,2.0,1.15702,0.82556
Asian,1,Right,18,Male,Yes,English,A,97,0,8,8,180.0,1.0,1.0,840.178,1.0,96.0,3.0,1.0636,0.974792
Asian,1,Right,18,Male,Yes,English,A,98,0,8,16,0.0,0.0,1.0,787.484,1.0,97.0,3.0,1.00218,0.83432
Asian,1,Right,18,Male,Yes,English,A,99,0,4,16,0.0,0.0,1.0,757.515,1.0,98.0,3.0,1.10437,0.886805
Asian,1,Right,18,Male,Yes,English,A,100,0,4,0,0.0,0.0,1.0,562.707,1.0,99.0,3.0,1.14599,0.942269
Asian,1,Right,18,Male,Yes,English,A,101,0,8,0,180.0,1.0,1.0,779.396,1.0,100.0,3.0,1.06821,0.903517
Asian,1,Right,18,Male,Yes,English,A,102,1,16,0,0.0,0.0,1.0,861.741,1.0,101.0,3.0,1.16244,0.805593
Asian,1,Right,18,Male,Yes,English,A,103,1,16,8,180.0,1.0,1.0,1160.22,1.0,102.0,3.0,1.12943,0.925732
Asian,1,Right,18,Male,Yes,English,A,104,0,0,4,180.0,1.0,1.0,891.323,1.0,103.0,3.0,1.02625,0.959365
Asian,1,Right,18,Male,Yes,English,A,105,0,0,8,180.0,1.0,1.0,609.424,1.0,104.0,3.0,1.13356,0.980077
Asian,1,Right,18,Male,Yes,English,A,106,0,16,0,0.0,0.0,1.0,631.354,1.0,105.0,3.0,1.00887,0.882012
Asian,1,Right,18,Male,Yes,English,A,107,1,0,8,180.0,1.0,1.0,545.424,1.0,106.0,3.0,1.10597,0.962289
Asian,1,Right,18,Male,Yes,English,A,108,0,16,4,0.0,0.0,1.0,1033.5,1.0,107.0,3.0,1.03622,0.831226
Asian,1,Right,18,Male,Yes,English,A,109,0,4,4,180.0,1.0,1.0,1105.29,1.0,108.0,3.0,1.16586,0.896309
Asian,1,Right,18,Male,Yes,English,A,110,1,4,8,0.0,0.0,1.0,766.297,1.0,109.0,3.0,1.0961,0.806015
Asian,1,Right,18,Male,Yes,English,A,111,1,8,16,0.0,0.0,1.0,571.288,1.0,110.0,3.0,1.17692,0.855205
Asian,1,Right,18,Male,Yes,English,A,112,1,0,4,0.0,0.0,1.0,527.424,1.0,111.0,3.0,1.18243,0.892052
Asian,1,Right,18,Male,Yes,English,A,113,1,4,4,0.0,0.0,1.0,710.683,1.0,112.0,3.0,1.06667,0.832658
Asian,1,Right,18,Male,Yes,English,A,114,1,4,0,180.0,1.0,1.0,841.635,1.0,113.0,3.0,1.16722,0.969431
Asian,1,Right,18,Male,Yes,English,A,115,0,0,16,180.0,1.0,1.0,920.38,1.0,114.0,3.0,1.07953,0.957779
Asian,1,Right,18,Male,Yes,English,A,116,1,0,16,0.0,0.0,1.0,623.796,1.0,115.0,3.0,1.07503,0.803514
Asian,1,Right,18,Male,Yes,English,A,117,0,16,8,0.0,0.0,1.0,1404.51,1.0,116.0,3.0,1.1886,0.847835
Asian,1,Right,18,Male,Yes,English,A,118,1,0,0,180.0,1.0,1.0,602.493,1.0,117.0,3.0,1.0274,0.945762
Asian,1,Right,18,Male,Yes,English,A,119,0,8,4,180.0,1.0,1.0,1150.14,1.0,118.0,3.0,1.16357,0.984687
Asian,1,Right,18,Male,Yes,English,A,120,1,8,4,180.0,1.0,1.0,701.243,1.0,119.0,3.0,1.18178,0.982182
Asian,1,Right,18,Male,Yes,English,A,121,0,16,16,180.0,1.0,1.0,1024.77,1.0,120.0,3.0,1.06465,0.9714
Asian,1,Right,18,Male,Yes,English,A,122,0,0,0,0.0,0.0,1.0,704.343,1.0,121.0,3.0,1.01327,0.830656
Asian,1,Right,18,Male,Yes,English,A,123,1,16,4,180.0,1.0,1.0,693.259,1.0,122.0,3.0,1.04804,0.894384
Asian,1,Right,18,Male,Yes,English,A,124,0,4,8,0.0,0.0,1.0,928.525,1.0,123.0,3.0,1.02914,0.947497
Asian,1,Right,18,Male,Yes,English,A,125,1,8,8,180.0,1.0,1.0,722.899,1.0,124.0,3.0,1.18706,0.888688
Asian,1,Right,18,Male,Yes,English,A,126,1,16,16,0.0,0.0,1.0,744.249,1.0,125.0,3.0,1.1565,0.870074
Asian,1,Right,18,Male,Yes,English,A,127,1,4,16,180.0,1.0,1.0,598.607,1.0,126.0,3.0,1.19229,0.997615
Asian,1,Right,18,Male,Yes,English,A,128,1,8,0,0.0,0.0,1.0,544.561,1.0,127.0,3.0,1.14909,0.83727
Asian,1,Right,18,Male,Yes,English,A,129,1,0,8,0.0,0.0,1.0,835.94,1.0,128.0,4.0,1.01754,0.917693
Asian,1,Right,18,Male,Yes,English,A,130,0,4,8,180.0,1.0,1.0,816.821,1.0,129.0,4.0,1.1876,0.827146
Asian,1,Right,18,Male,Yes,English,A,131,0,8,4,0.0,0.0,1.0,765.84,1.0,130.0,4.0,1.14038,0.884395
Asian,1,Right,18,Male,Yes,English,A,132,0,4,0,0.0,0.0,1.0,778.366,1.0,131.0,4.0,1.15658,0.80699
Asian,1,Right,18,Male,Yes,English,A,133,0,8,8,180.0,1.0,1.0,770.533,1.0,132.0,4.0,1.18209,0.854112
Asian,1,Right,18,Male,Yes,English,A,134,0,0,8,180.0,1.0,1.0,644.434,1.0,133.0,4.0,1.04493,0.832658
Asian,1,Right,18,Male,Yes,English,A,135,1,16,0,180.0,1.0,1.0,705.55,1.0,134.0,4.0,1.04256,0.998682
Asian,1,Right,18,Male,Yes,English,A,136,1,0,16,0.0,0.0,1.0,573.471,1.0,135.0,4.0,1.19505,0.88187
Asian,1,Right,18,Male,Yes,English,A,137,0,4,4,0.0,0.0,1.0,520.381,1.0,136.0,4.0,1.14775,0.819862
Asian,1,Right,18,Male,Yes,English,A,138,1,0,0,180.0,1.0,1.0,691.302,1.0,137.0,4.0,1.19157,0.919377
Asian,1,Right,18,Male,Yes,English,A,139,0,16,0,0.0,0.0,1.0,854.149,1.0,138.0,4.0,1.18989,0.943587
Asian,1,Right,18,Male,Yes,English,A,140,1,16,16,0.0,0.0,1.0,627.7,1.0,139.0,4.0,1.00176,0.844494
Asian,1,Right,18,Male,Yes,English,A,141,1,8,8,0.0,0.0,1.0,800.737,1.0,140.0,4.0,1.07851,0.899829
Asian,1,Right,18,Male,Yes,English,A,142,0,16,16,180.0,1.0,1.0,1268.45,1.0,141.0,4.0,1.05335,0.830082
Asian,1,Right,18,Male,Yes,English,A,143,1,4,4,180.0,1.0,1.0,987.15,1.0,142.0,4.0,1.11462,0.894126
Asian,1,Right,18,Male,Yes,English,A,144,1,8,4,180.0,1.0,1.0,1153.62,1.0,143.0,4.0,1.03127,0.852938
Asian,1,Right,18,Male,Yes,English,A,145,0,8,0,0.0,0.0,1.0,816.94,1.0,144.0,4.0,1.06663,0.916816
Asian,1,Right,18,Male,Yes,English,A,146,1,8,0,180.0,1.0,1.0,773.055,1.0,145.0,4.0,1.05192,0.916813
Asian,1,Right,18,Male,Yes,English,A,147,1,16,8,0.0,0.0,1.0,900.694,1.0,146.0,4.0,1.09868,0.82704
Asian,1,Right,18,Male,Yes,English,A,148,0,0,4,0.0,0.0,1.0,822.935,1.0,147.0,4.0,1.0811,0.955122
Asian,1,Right,18,Male,Yes,English,A,149,0,0,0,180.0,1.0,1.0,650.295,1.0,148.0,4.0,1.06553,0.94418
Asian,1,Right,18,Male,Yes,English,A,150,1,8,16,180.0,1.0,1.0,677.972,1.0,149.0,4.0,1.1611,0.891056
Asian,1,Right,18,Male,Yes,English,A,151,0,8,16,180.0,1.0,1.0,950.865,1.0,150.0,4.0,1.15205,0.984701
Asian,1,Right,18,Male,Yes,English,A,152,0,16,4,0.0,0.0,1.0,952.353,1.0,151.0,4.0,1.00055,0.839883
Asian,1,Right,18,Male,Yes,English,A,153,0,0,16,180.0,1.0,1.0,531.029,1.0,152.0,4.0,1.10476,0.962545
Asian,1,Right,18,Male,Yes,English,A,154,1,0,4,0.0,0.0,1.0,575.644,1.0,153.0,4.0,1.11812,0.887191
Asian,1,Right,18,Male,Yes,English,A,155,0,16,8,0.0,0.0,1.0,719.485,1.0,154.0,4.0,1.14626,0.906745
Asian,1,Right,18,Male,Yes,English,A,156,1,4,8,0.0,0.0,1.0,587.617,1.0,155.0,4.0,1.14826,0.974213
Asian,1,Right,18,Male,Yes,English,A,157,0,4,16,180.0,1.0,1.0,773.161,1.0,156.0,4.0,1.12259,0.970426
Asian,1,Right,18,Male,Yes,English,A,158,1,4,16,180.0,1.0,1.0,551.291,1.0,157.0,4.0,1.11382,0.943539
Asian,1,Right,18,Male,Yes,English,A,159,1,16,4,180.0,1.0,1.0,644.058,1.0,158.0,4.0,1.08971,0.851728
Asian,1,Right,18,Male,Yes,English,A,160,1,4,0,0.0,0.0,1.0,794.576,1.0,159.0,4.0,1.16442,0.984613
Asian,1,Right,18,Male,Yes,English,A,161,1,0,8,180.0,1.0,1.0,582.284,1.0,160.0,5.0,1.02343,0.860114
Asian,1,Right,18,Male,Yes,English,A,162,1,4,4,0.0,0.0,1.0,774.208,1.0,161.0,5.0,1.00312,0.825718
Asian,1,Right,18,Male,Yes,English,A,163,1,16,0,0.0,0.0,1.0,898.915,1.0,162.0,5.0,1.09854,0.936008
Asian,1,Right,18,Male,Yes,English,A,164,1,16,4,0.0,0.0,1.0,1271.94,1.0,163.0,5.0,1.05991,0.883745
Asian,1,Right,18,Male,Yes,English,A,165,1,4,0,180.0,1.0,1.0,507.851,1.0,164.0,5.0,1.00327,0.897926
Asian,1,Right,18,Male,Yes,English,A,166,1,4,16,0.0,0.0,1.0,556.089,1.0,165.0,5.0,1.10204,0.825033
Asian,1,Right,18,Male,Yes,English,A,167,1,0,4,0.0,0.0,1.0,409.401,1.0,166.0,5.0,1.04595,0.845504
Asian,1,Right,18,Male,Yes,English,A,168,1,8,8,180.0,1.0,1.0,714.1,1.0,167.0,5.0,1.00238,0.912429
Asian,1,Right,18,Male,Yes,English,A,169,0,4,4,0.0,0.0,1.0,1243.72,1.0,168.0,5.0,1.11468,0.801365
Asian,1,Right,18,Male,Yes,English,A,170,0,8,4,180.0,1.0,1.0,821.17,1.0,169.0,5.0,1.16368,0.957222
Asian,1,Right,18,Male,Yes,English,A,171,0,8,16,180.0,1.0,1.0,630.7,1.0,170.0,5.0,1.11501,0.910439
Asian,1,Right,18,Male,Yes,English,A,172,0,16,16,180.0,1.0,1.0,1162.16,1.0,171.0,5.0,1.14188,0.956379
Asian,1,Right,18,Male,Yes,English,A,173,1,0,0,180.0,1.0,1.0,511.243,1.0,172.0,5.0,1.1988,0.831794
Asian,1,Right,18,Male,Yes,English,A,174,0,4,8,0.0,0.0,1.0,707.86,1.0,173.0,5.0,1.15946,0.957519
Asian,1,Right,18,Male,Yes,English,A,175,0,8,8,180.0,1.0,1.0,628.183,1.0,174.0,5.0,1.09246,0.836417
Asian,1,Right,18,Male,Yes,English,A,176,0,0,16,0.0,0.0,1.0,851.284,1.0,175.0,5.0,1.0999,0.921187
Asian,1,Right,18,Male,Yes,English,A,177,1,16,8,0.0,0.0,1.0,1054.45,1.0,176.0,5.0,1.1321,0.826181
Asian,1,Right,18,Male,Yes,English,A,178,0,4,0,180.0,1.0,1.0,534.251,1.0,177.0,5.0,1.08491,0.897059
Asian,1,Right,18,Male,Yes,English,A,179,0,4,16,180.0,1.0,1.0,956.992,1.0,178.0,5.0,1.16857,0.95067
Asian,1,Right,18,Male,Yes,English,A,180,0,16,8,180.0,1.0,1.0,682.752,1.0,179.0,5.0,1.15188,0.979776
Asian,1,Right,18,Male,Yes,English,A,181,1,4,8,180.0,1.0,1.0,664.501,1.0,180.0,5.0,1.00961,0.891984
Asian,1,Right,18,Male,Yes,English,A,182,0,16,0,180.0,1.0,1.0,493.343,1.0,181.0,5.0,1.14294,0.955594
Asian,1,Right,18,Male,Yes,English,A,183,0,8,0,180.0,1.0,1.0,518.915,1.0,182.0,5.0,1.06598,0.868788
Asian,1,Right,18,Male,Yes,English,A,184,1,16,16,0.0,0.0,1.0,854.672,1.0,183.0,5.0,1.03346,0.924893
Asian,1,Right,18,Male,Yes,English,A,185,0,16,4,0.0,0.0,1.0,983.312,1.0,184.0,5.0,1.0318,0.984541
Asian,1,Right,18,Male,Yes,English,A,186,0,0,8,0.0,0.0,1.0,634.221,1.0,185.0,5.0,1.19937,0.973314
Asian,1,Right,18,Male,Yes,English,A,187,1,8,16,0.0,0.0,1.0,812.768,1.0,186.0,5.0,1.0918,0.854142
Asian,1,Right,18,Male,Yes,English,A,188,0,0,0,180.0,1.0,1.0,602.965,1.0,187.0,5.0,1.17942,0.90218
Asian,1,Right,18,Male,Yes,English,A,189,1,0,16,0.0,0.0,1.0,545.073,1.0,188.0,5.0,1.12716,0.906727
Asian,1,Right,18,Male,Yes,English,A,190,1,8,4,0.0,0.0,1.0,639.12,1.0,189.0,5.0,1.05053,0.925235
Asian,1,Right,18,Male,Yes,English,A,191,1,8,0,180.0,1.0,1.0,751.583,1.0,190.0,5.0,1.19687,0.961132
Asian,1,Right,18,Male,Yes,English,A,192,0,0,4,0.0,0.0,1.0,563.995,1.0,191.0,5.0,1.18288,0.862908
Asian,1,Right,18,Male,Yes,English,A,193,1,4,8,0.0,0.0,1.0,1033.89,1.0,192.0,6.0,1.06386,0.983568
Asian,1,Right,18,Male,Yes,English,A,194,1,0,4,180.0,1.0,1.0,506.0,1.0,193.0,6.0,1.01669,0.945639
Asian,1,Right,18,Male,Yes,English,A,195,0,8,0,180.0,1.0,1.0,750.525,1.0,194.0,6.0,1.01631,0.839706
Asian,1,Right,18,Male,Yes,English,A,196,1,8,4,0.0,0.0,1.0,794.227,1.0,195.0,6.0,1.01674,0.952119
Asian,1,Right,18,Male,Yes,English,A,197,0,16,0,180.0,1.0,1.0,1026.62,1.0,196.0,6.0,1.10046,0.846711
Asian,1,Right,18,Male,Yes,English,A,198,0,4,16,0.0,1.0,0.0,513.775,1.0,197.0,6.0,1.15418,0.865091
Asian,1,Right,18,Male,Yes,English,A,199,1,16,8,180.0,1.0,1.0,936.492,1.0,198.0,6.0,1.19232,0.882564
Asian,1,Right,18,Male,Yes,English,A,200,1,4,4,0.0,0.0,1.0,1030.88,1.0,199.0,6.0,1.08528,0.931526
Asian,1,Right,18,Male,Yes,English,A,201,1,0,8,180.0,1.0,1.0,635.727,1.0,200.0,6.0,1.02321,0.964714
Asian,1,Right,18,Male,Yes,English,A,202,1,16,0,180.0,1.0,1.0,1010.39,1.0,201.0,6.0,1.11242,0.904872
Asian,1,Right,18,Male,Yes,English,A,203,1,0,16,180.0,1.0,1.0,571.885,1.0,202.0,6.0,1.0802,0.987177
Asian,1,Right,18,Male,Yes,English,A,204,0,0,16,0.0,0.0,1.0,881.649,1.0,203.0,6.0,1.10816,0.925126
Asian,1,Right,18,Male,Yes,English,A,205,0,0,8,180.0,1.0,1.0,932.736,1.0,204.0,6.0,1.14851,0.898289
Asian,1,Right,18,Male,Yes,English,A,206,0,4,4,0.0,0.0,1.0,631.254,1.0,205.0,6.0,1.08928,0.984594
Asian,1,Right,18,Male,Yes,English,A,207,1,8,0,0.0,0.0,1.0,687.747,1.0,206.0,6.0,1.04728,0.843407
Asian,1,Right,18,Male,Yes,English,A,208,1,4,0,180.0,1.0,1.0,633.289,1.0,207.0,6.0,1.06896,0.977672
Asian,1,Right,18,Male,Yes,English,A,209,0,16,4,180.0,1.0,1.0,752.113,1.0,208.0,6.0,1.05881,0.922276
Asian,1,Right,18,Male,Yes,English,A,210,0,8,8,180.0,1.0,1.0,627.626,1.0,209.0,6.0,1.19976,0.835483
Asian,1,Right,18,Male,Yes,English,A,211,0,4,0,0.0,0.0,1.0,761.377,1.0,210.0,6.0,1.03162,0.843003
Asian,1,Right,18,Male,Yes,English,A,212,0,0,0,0.0,0.0,1.0,699.511,1.0,211.0,6.0,1.05475,0.819318
Asian,1,Right,18,Male,Yes,English,A,213,1,8,8,180.0,1.0,1.0,596.444,1.0,212.0,6.0,1.11155,0.930018
Asian,1,Right,18,Male,Yes,English,A,214,0,16,8,0.0,0.0,1.0,1050.02,1.0,213.0,6.0,1.18173,0.897654
Asian,1,Right,18,Male,Yes,English,A,215,1,0,0,180.0,1.0,1.0,565.349,1.0,214.0,6.0,1.00256,0.826
Asian,1,Right,18,Male,Yes,English,A,216,0,8,16,0.0,0.0,1.0,985.776,1.0,215.0,6.0,1.19054,0.816569
Asian,1,Right,18,Male,Yes,English,A,217,1,4,16,0.0,0.0,1.0,497.789,1.0,216.0,6.0,1.16395,0.869213
Asian,1,Right,18,Male,Yes,English,A,218,0,4,8,180.0,1.0,1.0,993.667,1.0,217.0,6.0,1.05313,0.907643
Asian,1,Right,18,Male,Yes,English,A,219,1,16,16,180.0,1.0,1.0,754.145,1.0,218.0,6.0,1.12941,0.952626
Asian,1,Right,18,Male,Yes,English,A,220,0,16,16,0.0,0.0,1.0,734.319,1.0,219.0,6.0,1.09264,0.933655
Asian,1,Right,18,Male,Yes,English,A,221,1,16,4,0.0,0.0,1.0,992.999,1.0,220.0,6.0,1.04083,0.839334
Asian,1,Right,18,Male,Yes,English,A,222,0,8,4,0.0,0.0,1.0,724.968,1.0,221.0,6.0,1.02279,0.952496
Asian,1,Right,18,Male,Yes,English,A,223,0,0,4,180.0,1.0,1.0,1267.91,1.0,222.0,6.0,1.0864,0.845307
Asian,1,Right,18,Male,Yes,English,A,224,1,8,16,0.0,0.0,1.0,716.56,1.0,223.0,6.0,1.12368,0.835984
Asian,1,Right,18,Male,Yes,English,A,225,1,8,8,180.0,1.0,1.0,503.623,1.0,224.0,7.0,1.18384,0.995406
Asian,1,Right,18,Male,Yes,English,A,226,0,4,16,0.0,0.0,1.0,742.223,1.0,225.0,7.0,1.08178,0.976841
Asian,1,Right,18,Male,Yes,English,A,227,1,16,16,180.0,1.0,1.0,895.412,1.0,226.0,7.0,1.19963,0.895437
Asian,1,Right,18,Male,Yes,English,A,228,0,16,8,0.0,0.0,1.0,667.555,1.0,227.0,7.0,1.1178,0.972509
Asian,1,Right,18,Male,Yes,English,A,229,0,8,0,180.0,1.0,1.0,611.793,1.0,228.0,7.0,1.10143,0.812768
Asian,1,Right,18,Male,Yes,English,A,230,1,8,0,180.0,1.0,1.0,581.783,1.0,229.0,7.0,1.10375,0.826624
Asian,1,Right,18,Male,Yes,English,A,231,0,16,16,0.0,0.0,1.0,1027.76,1.0,230.0,7.0,1.17812,0.987086
Asian,1,Right,18,Male,Yes,English,A,232,1,8,16,180.0,1.0,1.0,807.151,1.0,231.0,7.0,1.19051,0.832053
Asian,1,Right,18,Male,Yes,English,A,233,1,0,4,0.0,0.0,1.0,739.427,1.0,232.0,7.0,1.01163,0.911743
Asian,1,Right,18,Male,Yes,English,A,234,0,0,4,180.0,1.0,1.0,691.272,1.0,233.0,7.0,1.18299,0.92341
Asian,1,Right,18,Male,Yes,English,A,235,0,16,0,180.0,1.0,1.0,672.25,1.0,234.0,7.0,1.19539,0.867424
Asian,1,Right,18,Male,Yes,English,A,236,1,4,4,0.0,0.0,1.0,843.115,1.0,235.0,7.0,1.16134,0.861392
Asian,1,Right,18,Male,Yes,English,A,237,1,16,4,0.0,0.0,1.0,481.861,1.0,236.0,7.0,1.05242,0.878036
Asian,1,Right,18,Male,Yes,English,A,238,1,8,4,0.0,0.0,1.0,650.804,1.0,237.0,7.0,1.13613,0.84328
Asian,1,Right,18,Male,Yes,English,A,239,0,4,0,180.0,1.0,1.0,846.901,1.0,238.0,7.0,1.04362,0.9072
Asian,1,Right,18,Male,Yes,English,A,240,0,0,8,180.0,1.0,1.0,589.915,1.0,239.0,7.0,1.11312,0.947557
Asian,1,Right,18,Male,Yes,English,A,241,1,0,8,0.0,0.0,1.0,717.253,1.0,240.0,7.0,1.07264,0.896368
Asian,1,Right,18,Male,Yes,English,A,242,1,16,0,0.0,0.0,1.0,1133.67,1.0,241.0,7.0,1.15168,0.96008
Asian,1,Right,18,Male,Yes,English,A,243,0,8,4,0.0,0.0,1.0,744.137,1.0,242.0,7.0,1.01837,0.828063
Asian,1,Right,18,Male,Yes,English,A,244,1,4,0,0.0,0.0,1.0,537.321,1.0,243.0,7.0,1.03952,0.887758
Asian,1,Right,18,Male,Yes,English,A,245,0,0,16,180.0,1.0,1.0,738.298,1.0,244.0,7.0,1.00948,0.811438
Asian,1,Right,18,Male,Yes,English,A,246,1,16,8,180.0,1.0,1.0,867.279,1.0,245.0,7.0,1.03381,0.979165
Asian,1,Right,18,Male,Yes,English,A,247,0,0,0,0.0,0.0,1.0,628.596,1.0,246.0,7.0,1.01906,0.962814
Asian,1,Right,18,Male,Yes,English,A,248,1,4,16,0.0,0.0,1.0,778.076,1.0,247.0,7.0,1.02238,0.908615
Asian,1,Right,18,Male,Yes,English,A,249,0,16,4,180.0,1.0,1.0,708.878,1.0,248.0,7.0,1.09204,0.906753
Asian,1,Right,18,Male,Yes,English,A,250,1,4,8,180.0,1.0,1.0,935.131,1.0,249.0,7.0,1.14909,0.899908
Asian,1,Right,18,Male,Yes,English,A,251,0,4,4,0.0,0.0,1.0,627.547,1.0,250.0,7.0,1.01095,0.976989
Asian,1,Right,18,Male,Yes,English,A,252,0,8,16,180.0,1.0,1.0,631.624,1.0,251.0,7.0,1.03649,0.991815
Asian,1,Right,18,Male,Yes,English,A,253,0,8,8,0.0,0.0,1.0,1091.35,1.0,252.0,7.0,1.18112,0.904187
Asian,1,Right,18,Male,Yes,English,A,254,1,0,0,180.0,1.0,1.0,586.071,1.0,253.0,7.0,1.04524,0.903575
Asian,1,Right,18,Male,Yes,English,A,255,0,4,8,180.0,1.0,1.0,901.58,1.0,254.0,7.0,1.01158,0.97709
Asian,1,Right,18,Male,Yes,English,A,256,1,0,16,0.0,0.0,1.0,722.167,1.0,255.0,7.0,1.09619,0.857681
Asian,1,Right,18,Male,Yes,English,A,257,0,0,8,0.0,0.0,1.0,981.15,1.0,256.0,8.0,1.0966,0.963574
Asian,1,Right,18,Male,Yes,English,A,258,0,16,0,180.0,1.0,1.0,1440.49,1.0,257.0,8.0,1.04075,0.975954
Asian,1,Right,18,Male,Yes,English,A,259,0,0,4,0.0,0.0,1.0,832.314,1.0,258.0,8.0,1.16156,0.851322
Asian,1,Right,18,Male,Yes,English,A,260,0,8,0,0.0,0.0,1.0,694.13,1.0,259.0,8.0,1.09011,0.84465
Asian,1,Right,18,Male,Yes,English,A,261,1,16,4,180.0,1.0,1.0,722.421,1.0,260.0,8.0,1.18954,0.912715
Asian,1,Right,18,Male,Yes,English,A,262,1,0,16,0.0,0.0,1.0,794.369,1.0,261.0,8.0,1.14194,0.861242
Asian,1,Right,18,Male,Yes,English,A,263,0,4,8,180.0,1.0,1.0,778.17,1.0,262.0,8.0,1.14024,0.938255
Asian,1,Right,18,Male,Yes,English,A,264,1,8,0,180.0,1.0,1.0,632.123,1.0,263.0,8.0,1.09052,0.854023
Asian,1,Right,18,Male,Yes,English,A,265,0,16,8,180.0,1.0,1.0,1068.82,1.0,264.0,8.0,1.09508,0.881744
Asian,1,Right,18,Male,Yes,English,A,266,1,16,8,180.0,1.0,1.0,653.411,1.0,265.0,8.0,1.04952,0.875148
Asian,1,Right,18,Male,Yes,English,A,267,0,8,8,0.0,0.0,1.0,801.96,1.0,266.0,8.0,1.0132,0.807213
Asian,1,Right,18,Male,Yes,English,A,268,0,4,0,180.0,1.0,1.0,621.474,1.0,267.0,8.0,1.16522,0.890716
Asian,1,Right,18,Male,Yes,English,A,269,1,4,0,180.0,1.0,1.0,607.472,1.0,268.0,8.0,1.15357,0.938233
Asian,1,Right,18,Male,Yes,English,A,270,1,4,4,0.0,0.0,1.0,1000.84,1.0,269.0,8.0,1.06239,0.89278
Asian,1,Right,18,Male,Yes,English,A,271,0,16,4,180.0,1.0,1.0,2123.55,1.0,270.0,8.0,1.13927,0.906055
Asian,1,Right,18,Male,Yes,English,A,272,1,16,0,180.0,1.0,1.0,1195.97,1.0,271.0,8.0,1.17068,0.944256
Asian,1,Right,18,Male,Yes,English,A,273,0,8,16,180.0,1.0,1.0,797.984,1.0,272.0,8.0,1.14054,0.956403
Asian,1,Right,18,Male,Yes,English,A,274,1,16,16,0.0,0.0,1.0,755.363,1.0,273.0,8.0,1.15062,0.839864
Asian,1,Right,18,Male,Yes,English,A,275,1,8,8,0.0,0.0,1.0,639.78,1.0,274.0,8.0,1.16111,0.903041
Asian,1,Right,18,Male,Yes,English,A,276,1,8,16,0.0,0.0,1.0,665.97,1.0,275.0,8.0,1.16751,0.982454
Asian,1,Right,18,Male,Yes,English,A,277,0,4,4,0.0,0.0,1.0,1155.96,1.0,276.0,8.0,1.14981,0.904472
Asian,1,Right,18,Male,Yes,English,A,278,1,0,8,180.0,1.0,1.0,907.848,1.0,277.0,8.0,1.07167,0.981642
Asian,1,Right,18,Male,Yes,English,A,279,0,8,4,180.0,1.0,1.0,924.579,1.0,278.0,8.0,1.05539,0.940871
Asian,1,Right,18,Male,Yes,English,A,280,1,0,0,0.0,0.0,1.0,692.327,1.0,279.0,8.0,1.199,0.9578
Asian,1,Right,18,Male,Yes,English,A,281,1,0,4,180.0,1.0,1.0,540.847,1.0,280.0,8.0,1.02338,0.857573
Asian,1,Right,18,Male,Yes,English,A,282,0,0,0,0.0,0.0,1.0,847.42,1.0,281.0,8.0,1.02505,0.89648
Asian,1,Right,18,Male,Yes,English,A,283,1,4,8,180.0,1.0,1.0,692.12,1.0,282.0,8.0,1.16644,0.88926
Asian,1,Right,18,Male,Yes,English,A,284,0,4,16,180.0,1.0,1.0,754.614,1.0,283.0,8.0,1.13427,0.883309
Asian,1,Right,18,Male,Yes,English,A,285,1,8,4,0.0,0.0,1.0,741.838,1.0,284.0,8.0,1.04804,0.908253
Asian,1,Right,18,Male,Yes,English,A,286,0,16,16,0.0,0.0,1.0,969.594,1.0,285.0,8.0,1.10515,0.864138
Asian,1,Right,18,Male,Yes,English,A,287,1,4,16,0.0,0.0,1.0,556.53,1.0,286.0,8.0,1.03411,0.948079
Asian,1,Right,18,Male,Yes,English,A,288,0,0,16,0.0,0.0,1.0,726.288,1.0,287.0,8.0,1.09844,0.928987
Asian,1,Right,18,Male,Yes,English,A,289,1,16,8,0.0,0.0,1.0,2159.96,1.0,288.0,9.0,1.05563,0.973279
Asian,1,Right,18,Male,Yes,English,A,290,0,16,4,0.0,0.0,1.0,1751.03,1.0,289.0,9.0,1.1073,0.876657
Asian,1,Right,18,Male,Yes,English,A,291,0,0,16,0.0,0.0,1.0,564.504,1.0,290.0,9.0,1.09377,0.941952
Asian,1,Right,18,Male,Yes,English,A,292,1,16,0,180.0,1.0,1.0,663.966,1.0,291.0,9.0,1.00428,0.89441
Asian,1,Right,18,Male,Yes,English,A,293,0,8,8,180.0,1.0,1.0,831.388,1.0,292.0,9.0,1.09466,0.888493
Asian,1,Right,18,Male,Yes,English,A,294,1,0,0,0.0,0.0,1.0,707.245,1.0,293.0,9.0,1.12173,0.961899
Asian,1,Right,18,Male,Yes,English,A,295,0,8,0,180.0,1.0,1.0,1277.37,1.0,294.0,9.0,1.10513,0.96187
Asian,1,Right,18,Male,Yes,English,A,296,1,16,4,180.0,1.0,1.0,1149.97,1.0,295.0,9.0,1.13493,0.882122
Asian,1,Right,18,Male,Yes,English,A,297,1,4,16,0.0,0.0,1.0,597.09,1.0,296.0,9.0,1.06902,0.963454
Asian,1,Right,18,Male,Yes,English,A,298,1,8,8,180.0,1.0,1.0,835.891,1.0,297.0,9.0,1.13933,0.861625
Asian,1,Right,18,Male,Yes,English,A,299,0,0,4,180.0,1.0,1.0,723.484,1.0,298.0,9.0,1.09337,0.899722
Asian,1,Right,18,Male,Yes,English,A,300,1,4,4,180.0,1.0,1.0,1013.03,1.0,299.0,9.0,1.13271,0.944998
Asian,1,Right,18,Male,Yes,English,A,301,0,8,4,180.0,1.0,1.0,960.048,1.0,300.0,9.0,1.18028,0.984097
Asian,1,Right,18,Male,Yes,English,A,302,1,0,8,0.0,0.0,1.0,652.616,1.0,301.0,9.0,1.03751,0.877571
Asian,1,Right,18,Male,Yes,English,A,303,0,0,8,0.0,0.0,1.0,697.031,1.0,302.0,9.0,1.1474,0.914582
Asian,1,Right,18,Male,Yes,English,A,304,1,4,0,180.0,1.0,1.0,851.89,1.0,303.0,9.0,1.1403,0.847277
Asian,1,Right,18,Male,Yes,English,A,305,0,4,16,0.0,0.0,1.0,864.736,1.0,304.0,9.0,1.18826,0.816319
Asian,1,Right,18,Male,Yes,English,A,306,0,4,0,0.0,0.0,1.0,745.964,1.0,305.0,9.0,1.00809,0.946452
Asian,1,Right,18,Male,Yes,English,A,307,1,8,0,0.0,0.0,1.0,817.864,1.0,306.0,9.0,1.01487,0.831883
Asian,1,Right,18,Male,Yes,English,A,308,0,16,0,180.0,1.0,1.0,758.831,1.0,307.0,9.0,1.19148,0.949817
Asian,1,Right,18,Male,Yes,English,A,309,1,8,4,180.0,1.0,1.0,775.582,1.0,308.0,9.0,1.00998,0.825471
Asian,1,Right,18,Male,Yes,English,A,310,1,8,16,0.0,0.0,1.0,740.045,1.0,309.0,9.0,1.0504,0.915151
Asian,1,Right,18,Male,Yes,English,A,311,0,16,8,0.0,0.0,1.0,1277.48,1.0,310.0,9.0,1.0752,0.947439
Asian,1,Right,18,Male,Yes,English,A,312,0,4,8,0.0,0.0,1.0,1127.55,1.0,311.0,9.0,1.15924,0.985432
Asian,1,Right,18,Male,Yes,English,A,313,1,0,4,180.0,1.0,1.0,545.814,1.0,312.0,9.0,1.09391,0.810896
Asian,1,Right,18,Male,Yes,English,A,314,1,0,16,180.0,1.0,1.0,589.663,1.0,313.0,9.0,1.11088,0.828772
Asian,1,Right,18,Male,Yes,English,A,315,0,0,0,180.0,1.0,1.0,544.179,1.0,314.0,9.0,1.01972,0.814751
Asian,1,Right,18,Male,Yes,English,A,316,0,4,4,180.0,1.0,1.0,503.498,1.0,315.0,9.0,1.19534,0.993212
Asian,1,Right,18,Male,Yes,English,A,317,0,8,16,0.0,0.0,1.0,834.907,1.0,316.0,9.0,1.12206,0.840748
Asian,1,Right,18,Male,Yes,English,A,318,1,16,16,0.0,0.0,1.0,679.495,1.0,317.0,9.0,1.18784,0.838419
Asian,1,Right,18,Male,Yes,English,A,319,0,16,16,180.0,1.0,1.0,1012.69,1.0,318.0,9.0,1.00459,0.908381
Asian,1,Right,18,Male,Yes,English,A,320,1,4,8,0.0,0.0,1.0,950.537,1.0,319.0,9.0,1.02186,0.851668
Asian,1,Right,18,Male,Yes,English,A,321,0,4,4,180.0,1.0,1.0,757.556,1.0,320.0,10.0,1.07581,0.964117
Asian,1,Right,18,Male,Yes,English,A,322,0,16,0,180.0,1.0,1.0,727.146,1.0,321.0,10.0,1.07003,0.832893
Asian,1,Right,18,Male,Yes,English,A,323,1,4,16,180.0,1.0,1.0,692.005,1.0,322.0,10.0,1.08891,0.868874
Asian,1,Right,18,Male,Yes,English,A,324,1,16,4,180.0,1.0,1.0,570.99,1.0,323.0,10.0,1.03686,0.947056
Asian,1,Right,18,Male,Yes,English,A,325,1,0,16,180.0,1.0,1.0,551.979,1.0,324.0,10.0,1.11391,0.924531
Asian,1,Right,18,Male,Yes,English,A,326,0,8,8,180.0,1.0,1.0,933.058,1.0,325.0,10.0,1.13443,0.819481
Asian,1,Right,18,Male,Yes,English,A,327,1,8,0,0.0,0.0,1.0,548.933,1.0,326.0,10.0,1.02523,0.81513
Asian,1,Right,18,Male,Yes,English,A,328,0,8,4,0.0,0.0,1.0,1008.58,1.0,327.0,10.0,1.01345,0.848889
Asian,1,Right,18,Male,Yes,English,A,329,0,0,0,180.0,1.0,1.0,535.679,1.0,328.0,10.0,1.17116,0.822863
Asian,1,Right,18,Male,Yes,English,A,330,0,16,4,180.0,1.0,1.0,968.543,1.0,329.0,10.0,1.06398,0.920471
Asian,1,Right,18,Male,Yes,English,A,331,1,8,8,180.0,1.0,1.0,705.841,1.0,330.0,10.0,1.15381,0.919243
Asian,1,Right,18,Male,Yes,English,A,332,1,4,8,0.0,0.0,1.0,711.913,1.0,331.0,10.0,1.06006,0.825673
Asian,1,Right,18,Male,Yes,English,A,333,0,0,16,0.0,0.0,1.0,665.555,1.0,332.0,10.0,1.05717,0.993502
Asian,1,Right,18,Male,Yes,English,A,334,1,4,0,0.0,0.0,1.0,515.387,1.0,333.0,10.0,1.0932,0.958458
Asian,1,Right,18,Male,Yes,English,A,335,0,16,16,0.0,0.0,1.0,1010.03,1.0,334.0,10.0,1.14644,0.931975
Asian,1,Right,18,Male,Yes,English,A,336,1,8,4,180.0,1.0,1.0,846.68,1.0,335.0,10.0,1.11846,0.903625
Asian,1,Right,18,Male,Yes,English,A,337,0,16,8,0.0,0.0,1.0,1128.4,1.0,336.0,10.0,1.0762,0.977593
Asian,1,Right,18,Male,Yes,English,A,338,1,0,0,180.0,1.0,1.0,485.142,1.0,337.0,10.0,1.15863,0.918233
Asian,1,Right,18,Male,Yes,English,A,339,0,8,0,180.0,1.0,1.0,635.228,1.0,338.0,10.0,1.16287,0.847777
Asian,1,Right,18,Male,Yes,English,A,340,0,8,16,180.0,1.0,1.0,725.467,1.0,339.0,10.0,1.03455,0.932594
Asian,1,Right,18,Male,Yes,English,A,341,1,16,0,0.0,0.0,1.0,721.959,1.0,340.0,10.0,1.00157,0.860068
Asian,1,Right,18,Male,Yes,English,A,342,1,0,4,0.0,0.0,1.0,500.607,1.0,341.0,10.0,1.11374,0.853955
Asian,1,Right,18,Male,Yes,English,A,343,1,0,8,0.0,0.0,1.0,498.771,1.0,342.0,10.0,1.08884,0.982344
Asian,1,Right,18,Male,Yes,English,A,344,1,16,16,180.0,1.0,1.0,450.53,1.0,343.0,10.0,1.16493,0.869967
Asian,1,Right,18,Male,Yes,English,A,345,0,4,16,180.0,1.0,1.0,1202.98,1.0,344.0,10.0,1.11322,0.980701
Asian,1,Right,18,Male,Yes,English,A,346,1,8,16,0.0,0.0,1.0,702.293,1.0,345.0,10.0,1.06635,0.972647
Asian,1,Right,18,Male,Yes,English,A,347,0,0,8,0.0,0.0,1.0,697.368,1.0,346.0,10.0,1.01036,0.926703
Asian,1,Right,18,Male,Yes,English,A,348,1,16,8,0.0,0.0,1.0,564.803,1.0,347.0,10.0,1.08335,0.886548
Asian,1,Right,18,Male,Yes,English,A,349,0,4,0,180.0,1.0,1.0,591.415,1.0,348.0,10.0,1.17022,0.967838
Asian,1,Right,18,Male,Yes,English,A,350,0,4,8,0.0,0.0,1.0,527.121,1.0,349.0,10.0,1.15782,0.805235
Asian,1,Right,18,Male,Yes,English,A,351,0,0,4,0.0,0.0,1.0,640.67,1.0,350.0,10.0,1.15078,0.826384
Asian,1,Right,18,Male,Yes,English,A,352,1,4,4,0.0,0.0,1.0,1111.56,1.0,351.0,10.0,1.12224,0.896324
Asian,1,Right,18,Male,Yes,English,A,353,0,16,8,0.0,0.0,1.0,1456.91,1.0,352.0,11.0,1.1944,0.953025
Asian,1,Right,18,Male,Yes,English,A,354,0,4,16,180.0,1.0,1.0,900.578,1.0,353.0,11.0,1.0074,0.906494
Asian,1,Right,18,Male,Yes,English,A,355,1,16,8,180.0,1.0,1.0,470.722,1.0,354.0,11.0,1.03568,0.811501
Asian,1,Right,18,Male,Yes,English,A,356,0,16,16,180.0,1.0,1.0,786.282,1.0,355.0,11.0,1.01629,0.839293
Asian,1,Right,18,Male,Yes,English,A,357,1,8,4,0.0,0.0,1.0,800.109,1.0,356.0,11.0,1.03665,0.915343
Asian,1,Right,18,Male,Yes,English,A,358,1,8,16,0.0,0.0,1.0,629.791,1.0,357.0,11.0,1.10647,0.961506
Asian,1,Right,18,Male,Yes,English,A,359,0,4,0,0.0,0.0,1.0,695.087,1.0,358.0,11.0,1.09116,0.961056
Asian,1,Right,18,Male,Yes,English,A,360,0,4,4,180.0,1.0,1.0,752.885,1.0,359.0,11.0,1.03304,0.88937
Asian,1,Right,18,Male,Yes,English,A,361,0,16,4,0.0,0.0,1.0,853.538,1.0,360.0,11.0,1.02098,0.826612
Asian,1,Right,18,Male,Yes,English,A,362,0,8,0,180.0,1.0,1.0,705.362,1.0,361.0,11.0,1.14763,0.805532
Asian,1,Right,18,Male,Yes,English,A,363,0,0,0,180.0,1.0,1.0,561.418,1.0,362.0,11.0,1.12345,0.835631
Asian,1,Right,18,Male,Yes,English,A,364,1,16,4,180.0,1.0,1.0,829.976,1.0,363.0,11.0,1.05768,0.800888
Asian,1,Right,18,Male,Yes,English,A,365,0,8,4,180.0,1.0,1.0,529.064,1.0,364.0,11.0,1.05939,0.984427
Asian,1,Right,18,Male,Yes,English,A,366,1,16,16,180.0,1.0,1.0,566.336,1.0,365.0,11.0,1.04617,0.88359
Asian,1,Right,18,Male,Yes,English,A,367,0,8,16,180.0,1.0,1.0,712.716,1.0,366.0,11.0,1.12359,0.82185
Asian,1,Right,18,Male,Yes,English,A,368,1,4,0,0.0,0.0,1.0,621.773,1.0,367.0,11.0,1.08289,0.857926
Asian,1,Right,18,Male,Yes,English,A,369,1,0,16,180.0,1.0,1.0,548.963,1.0,368.0,11.0,1.02014,0.874568
Asian,1,Right,18,Male,Yes,English,A,370,0,0,16,0.0,0.0,1.0,802.314,1.0,369.0,11.0,1.09582,0.886202
Asian,1,Right,18,Male,Yes,English,A,371,1,0,0,0.0,0.0,1.0,555.938,1.0,370.0,11.0,1.0889,0.9672
Asian,1,Right,18,Male,Yes,English,A,372,0,4,8,180.0,1.0,1.0,621.945,1.0,371.0,11.0,1.05935,0.94309
Asian,1,Right,18,Male,Yes,English,A,373,1,0,4,0.0,0.0,1.0,772.529,1.0,372.0,11.0,1.02931,0.932261
Asian,1,Right,18,Male,Yes,English,A,374,0,0,8,180.0,1.0,1.0,715.678,1.0,373.0,11.0,1.01669,0.850761
Asian,1,Right,18,Male,Yes,English,A,375,1,8,8,0.0,0.0,1.0,835.636,1.0,374.0,11.0,1.19378,0.992618
Asian,1,Right,18,Male,Yes,English,A,376,1,4,8,0.0,0.0,1.0,701.458,1.0,375.0,11.0,1.01628,0.897616
Asian,1,Right,18,Male,Yes,English,A,377,1,0,8,0.0,0.0,1.0,848.358,1.0,376.0,11.0,1.12064,0.922359
Asian,1,Right,18,Male,Yes,English,A,378,0,16,0,0.0,0.0,1.0,935.98,1.0,377.0,11.0,1.0293,0.994725
Asian,1,Right,18,Male,Yes,English,A,379,1,8,0,0.0,0.0,1.0,575.038,1.0,378.0,11.0,1.11749,0.976669
Asian,1,Right,18,Male,Yes,English,A,380,1,4,4,0.0,0.0,1.0,514.51,1.0,379.0,11.0,1.05331,0.85974
Asian,1,Right,18,Male,Yes,English,A,381,0,8,8,0.0,0.0,1.0,633.591,1.0,380.0,11.0,1.10516,0.929623
Asian,1,Right,18,Male,Yes,English,A,382,1,16,0,180.0,1.0,1.0,655.072,1.0,381.0,11.0,1.19842,0.961403
Asian,1,Right,18,Male,Yes,English,A,383,0,0,4,180.0,1.0,1.0,684.663,1.0,382.0,11.0,1.18309,0.826273
Asian,1,Right,18,Male,Yes,English,A,384,1,4,16,180.0,1.0,1.0,1027.51,1.0,383.0,11.0,1.14006,0.806843
Asian,1,Right,18,Male,Yes,English,A,385,0,0,8,180.0,1.0,1.0,674.028,1.0,384.0,12.0,1.18277,0.875211
Asian,1,Right,18,Male,Yes,English,A,386,1,4,8,0.0,0.0,1.0,842.613,1.0,385.0,12.0,1.0428,0.963739
Asian,1,Right,18,Male,Yes,English,A,387,1,16,16,180.0,1.0,1.0,544.459,1.0,386.0,12.0,1.16117,0.927724
Asian,1,Right,18,Male,Yes,English,A,388,0,8,4,0.0,0.0,1.0,854.661,1.0,387.0,12.0,1.11496,0.936162
Asian,1,Right,18,Male,Yes,English,A,389,0,8,8,180.0,1.0,1.0,672.891,1.0,388.0,12.0,1.0248,0.981514
Asian,1,Right,18,Male,Yes,English,A,390,1,16,0,0.0,0.0,1.0,728.927,1.0,389.0,12.0,1.12691,0.984676
Asian,1,Right,18,Male,Yes,English,A,391,0,4,16,180.0,1.0,1.0,1246.26,1.0,390.0,12.0,1.17159,0.990307
Asian,1,Right,18,Male,Yes,English,A,392,1,16,4,180.0,1.0,1.0,1035.27,1.0,391.0,12.0,1.06248,0.915448
Asian,1,Right,18,Male,Yes,English,A,393,1,4,16,0.0,0.0,1.0,531.41,1.0,392.0,12.0,1.1241,0.935084
Asian,1,Right,18,Male,Yes,English,A,394,1,4,4,0.0,0.0,1.0,741.944,1.0,393.0,12.0,1.04254,0.907872
Asian,1,Right,18,Male,Yes,English,A,395,0,4,4,0.0,0.0,1.0,894.128,1.0,394.0,12.0,1.08226,0.815438
Asian,1,Right,18,Male,Yes,English,A,396,1,8,16,0.0,0.0,1.0,619.095,1.0,395.0,12.0,1.14631,0.886493
Asian,1,Right,18,Male,Yes,English,A,397,1,0,16,180.0,1.0,1.0,565.803,1.0,396.0,12.0,1.19893,0.854565
Asian,1,Right,18,Male,Yes,English,A,398,0,16,16,0.0,0.0,1.0,1175.16,1.0,397.0,12.0,1.15109,0.977475
Asian,1,Right,18,Male,Yes,English,A,399,0,0,4,180.0,1.0,1.0,926.88,1.0,398.0,12.0,1.16963,0.890984
Asian,1,Right,18,Male,Yes,English,A,400,0,16,4,180.0,1.0,1.0,1258.09,1.0,399.0,12.0,1.16813,0.883849
Asian,1,Right,18,Male,Yes,English,A,401,0,16,0,0.0,0.0,1.0,688.112,1.0,400.0,12.0,1.03948,0.908487
Asian,1,Right,18,Male,Yes,English,A,402,1,8,0,180.0,1.0,1.0,650.399,1.0,401.0,12.0,1.10211,0.975762
Asian,1,Right,18,Male,Yes,English,A,403,0,8,0,0.0,0.0,1.0,828.876,1.0,402.0,12.0,1.01536,0.859416
Asian,1,Right,18,Male,Yes,English,A,404,1,16,8,180.0,1.0,1.0,935.597,1.0,403.0,12.0,1.00893,0.866083
Asian,1,Right,18,Male,Yes,English,A,405,1,0,4,0.0,0.0,1.0,510.739,1.0,404.0,12.0,1.1916,0.861807
Asian,1,Right,18,Male,Yes,English,A,406,0,16,8,0.0,0.0,1.0,701.381,1.0,405.0,12.0,1.13177,0.894691
Asian,1,Right,18,Male,Yes,English,A,407,1,4,0,0.0,0.0,1.0,829.069,1.0,406.0,12.0,1.16617,0.986196
Asian,1,Right,18,Male,Yes,English,A,408,0,8,16,0.0,0.0,1.0,1057.82,1.0,407.0,12.0,1.19423,0.914945
Asian,1,Right,18,Male,Yes,English,A,409,0,0,16,180.0,1.0,1.0,856.252,1.0,408.0,12.0,1.03413,0.947156
Asian,1,Right,18,Male,Yes,English,A,410,1,8,8,180.0,1.0,1.0,562.409,1.0,409.0,12.0,1.09457,0.889244
Asian,1,Right,18,Male,Yes,English,A,411,0,4,0,180.0,1.0,1.0,819.583,1.0,410.0,12.0,1.1136,0.927586
Asian,1,Right,18,Male,Yes,English,A,412,1,0,8,0.0,0.0,1.0,576.08,1.0,411.0,12.0,1.04939,0.837669
Asian,1,Right,18,Male,Yes,English,A,413,0,4,8,180.0,1.0,1.0,876.878,1.0,412.0,12.0,1.01771,0.841474
Asian,1,Right,18,Male,Yes,English,A,414,1,8,4,180.0,1.0,1.0,491.099,1.0,413.0,12.0,1.18611,0.956918
Asian,1,Right,18,Male,Yes,English,A,415,1,0,0,180.0,1.0,1.0,816.569,1.0,414.0,12.0,1.18863,0.845913
Asian,1,Right,18,Male,Yes,English,A,416,0,0,0,0.0,0.0,1.0,617.636,1.0,415.0,12.0,1.00132,0.837003
Asian,1,Right,18,Male,Yes,English,A,417,0,0,0,180.0,1.0,1.0,613.784,1.0,416.0,13.0,1.07934,0.824027
Asian,1,Right,18,Male,Yes,English,A,418,0,0,8,0.0,0.0,1.0,529.379,1.0,417.0,13.0,1.19493,0.825576
Asian,1,Right,18,Male,Yes,English,A,419,0,16,16,180.0,1.0,1.0,810.274,1.0,418.0,13.0,1.1328,0.990767
Asian,1,Right,18,Male,Yes,English,A,420,0,16,8,0.0,0.0,1.0,886.127,1.0,419.0,13.0,1.19921,0.915426
Asian,1,Right,18,Male,Yes,English,A,421,1,8,16,180.0,1.0,1.0,640.299,1.0,420.0,13.0,1.11433,0.89141
Asian,1,Right,18,Male,Yes,English,A,422,1,4,0,0.0,0.0,1.0,743.513,1.0,421.0,13.0,1.14469,0.846225
Asian,1,Right,18,Male,Yes,English,A,423,0,4,0,180.0,1.0,1.0,733.984,1.0,422.0,13.0,1.0849,0.867394
Asian,1,Right,18,Male,Yes,English,A,424,1,0,16,180.0,1.0,1.0,677.321,1.0,423.0,13.0,1.14345,0.833267
Asian,1,Right,18,Male,Yes,English,A,425,0,16,4,0.0,0.0,1.0,997.049,1.0,424.0,13.0,1.02942,0.904856
Asian,1,Right,18,Male,Yes,English,A,426,1,0,8,180.0,1.0,1.0,640.672,1.0,425.0,13.0,1.14246,0.88892
Asian,1,Right,18,Male,Yes,English,A,427,1,8,8,0.0,0.0,1.0,707.937,1.0,426.0,13.0,1.13165,0.966974
Asian,1,Right,18,Male,Yes,English,A,428,1,16,16,0.0,0.0,1.0,651.656,1.0,427.0,13.0,1.12061,0.810317
Asian,1,Right,18,Male,Yes,English,A,429,1,4,16,0.0,0.0,1.0,626.091,1.0,428.0,13.0,1.11647,0.87251
Asian,1,Right,18,Male,Yes,English,A,430,0,0,16,180.0,1.0,1.0,906.294,1.0,429.0,13.0,1.13485,0.860269
Asian,1,Right,18,Male,Yes,English,A,431,1,0,4,0.0,0.0,1.0,572.347,1.0,430.0,13.0,1.1173,0.80025
Asian,1,Right,18,Male,Yes,English,A,432,0,0,4,0.0,0.0,1.0,664.542,1.0,431.0,13.0,1.0803,0.907567
Asian,1,Right,18,Male,Yes,English,A,433,1,16,8,180.0,1.0,1.0,596.955,1.0,432.0,13.0,1.19397,0.850158
Asian,1,Right,18,Male,Yes,English,A,434,0,16,0,0.0,0.0,1.0,1416.98,1.0,433.0,13.0,1.16308,0.945823
Asian,1,Right,18,Male,Yes,English,A,435,1,4,4,0.0,0.0,1.0,945.745,1.0,434.0,13.0,1.12495,0.951223
Asian,1,Right,18,Male,Yes,English,A,436,0,8,8,180.0,1.0,1.0,756.207,1.0,435.0,13.0,1.10859,0.942879
Asian,1,Right,18,Male,Yes,English,A,437,1,8,0,180.0,1.0,1.0,680.497,1.0,436.0,13.0,1.04625,0.837913
Asian,1,Right,18,Male,Yes,English,A,438,0,8,0,180.0,1.0,1.0,781.974,1.0,437.0,13.0,1.04585,0.92282
Asian,1,Right,18,Male,Yes,English,A,439,0,4,8,180.0,1.0,1.0,700.745,1.0,438.0,13.0,1.12667,0.812745
Asian,1,Right,18,Male,Yes,English,A,440,1,4,8,180.0,1.0,1.0,693.246,1.0,439.0,13.0,1.19667,0.841175
Asian,1,Right,18,Male,Yes,English,A,441,0,4,16,0.0,0.0,1.0,661.832,1.0,440.0,13.0,1.16128,0.966561
Asian,1,Right,18,Male,Yes,English,A,442,0,8,16,180.0,1.0,1.0,1234.87,1.0,441.0,13.0,1.09881,0.903792
Asian,1,Right,18,Male,Yes,English,A,443,1,16,4,0.0,0.0,1.0,1244.28,1.0,442.0,13.0,1.01774,0.862926
Asian,1,Right,18,Male,Yes,English,A,444,1,0,0,0.0,0.0,1.0,514.551,1.0,443.0,13.0,1.11626,0.886741
Asian,1,Right,18,Male,Yes,English,A,445,0,8,4,180.0,1.0,1.0,656.125,1.0,444.0,13.0,1.0653,0.884497
Asian,1,Right,18,Male,Yes,English,A,446,1,8,4,180.0,1.0,1.0,545.727,1.0,445.0,13.0,1.03751,0.952093
Asian,1,Right,18,Male,Yes,English,A,447,0,4,4,0.0,0.0,1.0,775.694,1.0,446.0,13.0,1.05253,0.952402
Asian,1,Right,18,Male,Yes,English,A,448,1,16,0,0.0,0.0,1.0,695.687,1.0,447.0,13.0,1.0809,0.906986
Asian,1,Right,18,Male,Yes,English,A,449,0,8,4,0.0,0.0,1.0,697.869,1.0,448.0,14.0,1.02517,0.825479
Asian,1,Right,18,Male,Yes,English,A,450,1,8,4,180.0,1.0,1.0,825.235,1.0,449.0,14.0,1.14813,0.877727
Asian,1,Right,18,Male,Yes,English,A,451,0,8,8,180.0,1.0,1.0,1144.67,1.0,450.0,14.0,1.14645,0.833127
Asian,1,Right,18,Male,Yes,English,A,452,1,16,4,180.0,1.0,1.0,660.476,1.0,451.0,14.0,1.13564,0.828379
Asian,1,Right,18,Male,Yes,English,A,453,0,0,4,180.0,1.0,1.0,680.036,1.0,452.0,14.0,1.09202,0.977845
Asian,1,Right,18,Male,Yes,English,A,454,0,4,0,0.0,0.0,1.0,669.793,1.0,453.0,14.0,1.00813,0.850686
Asian,1,Right,18,Male,Yes,English,A,455,1,4,16,0.0,0.0,1.0,1079.04,1.0,454.0,14.0,1.1315,0.860435
Asian,1,Right,18,Male,Yes,English,A,456,0,4,4,180.0,1.0,1.0,1105.59,1.0,455.0,14.0,1.09615,0.956769
Asian,1,Right,18,Male,Yes,English,A,457,1,0,0,0.0,0.0,1.0,589.566,1.0,456.0,14.0,1.12345,0.888839
Asian,1,Right,18,Male,Yes,English,A,458,1,16,8,0.0,0.0,1.0,690.987,1.0,457.0,14.0,1.16593,0.874408
Asian,1,Right,18,Male,Yes,English,A,459,0,16,0,180.0,1.0,1.0,818.099,1.0,458.0,14.0,1.13945,0.98118
Asian,1,Right,18,Male,Yes,English,A,460,0,4,16,0.0,0.0,1.0,635.507,1.0,459.0,14.0,1.14455,0.850014
Asian,1,Right,18,Male,Yes,English,A,461,0,0,16,0.0,0.0,1.0,682.283,1.0,460.0,14.0,1.15584,0.938245
Asian,1,Right,18,Male,Yes,English,A,462,0,0,8,180.0,1.0,1.0,668.462,1.0,461.0,14.0,1.08562,0.805601
Asian,1,Right,18,Male,Yes,English,A,463,0,4,8,180.0,1.0,1.0,637.666,1.0,462.0,14.0,1.09347,0.983343
Asian,1,Right,18,Male,Yes,English,A,464,1,0,8,0.0,0.0,1.0,688.541,1.0,463.0,14.0,1.01782,0.892479
Asian,1,Right,18,Male,Yes,English,A,465,1,4,4,180.0,1.0,1.0,721.572,1.0,464.0,14.0,1.12398,0.987769
Asian,1,Right,18,Male,Yes,English,A,466,0,8,16,0.0,0.0,1.0,954.818,1.0,465.0,14.0,1.19598,0.888114
Asian,1,Right,18,Male,Yes,English,A,467,0,0,0,0.0,0.0,1.0,595.623,1.0,466.0,14.0,1.03156,0.977647
Asian,1,Right,18,Male,Yes,English,A,468,1,8,0,0.0,0.0,1.0,919.037,1.0,467.0,14.0,1.17068,0.987188
Asian,1,Right,18,Male,Yes,English,A,469,1,16,0,180.0,1.0,1.0,502.338,1.0,468.0,14.0,1.17739,0.8078
Asian,1,Right,18,Male,Yes,English,A,470,1,8,16,180.0,1.0,1.0,720.431,1.0,469.0,14.0,1.10902,0.942415
Asian,1,Right,18,Male,Yes,English,A,471,1,0,4,180.0,1.0,1.0,750.507,1.0,470.0,14.0,1.17042,0.855201
Asian,1,Right,18,Male,Yes,English,A,472,1,0,16,0.0,0.0,1.0,560.143,1.0,471.0,14.0,1.07338,0.887064
Asian,1,Right,18,Male,Yes,English,A,473,0,8,0,0.0,0.0,1.0,583.088,1.0,472.0,14.0,1.15945,0.951286
Asian,1,Right,18,Male,Yes,English,A,474,1,4,0,180.0,1.0,1.0,602.906,1.0,473.0,14.0,1.10701,0.94118
Asian,1,Right,18,Male,Yes,English,A,475,1,4,8,180.0,1.0,1.0,775.471,1.0,474.0,14.0,1.0808,0.947144
Asian,1,Right,18,Male,Yes,English,A,476,1,8,8,0.0,0.0,1.0,601.784,1.0,475.0,14.0,1.16092,0.839289
Asian,1,Right,18,Male,Yes,English,A,477,0,16,4,180.0,1.0,1.0,820.335,1.0,476.0,14.0,1.04911,0.942758
Asian,1,Right,18,Male,Yes,English,A,478,1,16,16,180.0,1.0,1.0,831.11,1.0,477.0,14.0,1.02418,0.93737
Asian,1,Right,18,Male,Yes,English,A,479,0,16,16,0.0,0.0,1.0,1032.6,1.0,478.0,14.0,1.00226,0.930494
Asian,1,Right,18,Male,Yes,English,A,480,0,16,8,0.0,0.0,1.0,766.838,1.0,479.0,14.0,1.10799,0.935005
Asian,1,Right,18,Male,Yes,English,A,481,1,16,4,180.0,1.0,1.0,1060.25,1.0,480.0,15.0,1.06049,0.815129
Asian,1,Right,18,Male,Yes,English,A,482,0,16,4,0.0,0.0,1.0,1135.99,1.0,481.0,15.0,1.16746,0.991932
Asian,1,Right,18,Male,Yes,English,A,483,1,0,4,0.0,0.0,1.0,483.241,1.0,482.0,15.0,1.14438,0.848002
Asian,1,Right,18,Male,Yes,English,A,484,0,8,0,0.0,0.0,1.0,762.573,1.0,483.0,15.0,1.01896,0.817012
Asian,1,Right,18,Male,Yes,English,A,485,1,0,8,180.0,1.0,1.0,652.241,1.0,484.0,15.0,1.13965,0.885494
Asian,1,Right,18,Male,Yes,English,A,486,1,8,16,0.0,0.0,1.0,740.282,1.0,485.0,15.0,1.16935,0.838071
Asian,1,Right,18,Male,Yes,English,A,487,1,4,4,180.0,1.0,1.0,645.129,1.0,486.0,15.0,1.08883,0.966666
Asian,1,Right,18,Male,Yes,English,A,488,1,8,8,0.0,0.0,1.0,455.9,1.0,487.0,15.0,1.1425,0.836628
Asian,1,Right,18,Male,Yes,English,A,489,1,16,0,0.0,0.0,1.0,1034.12,1.0,488.0,15.0,1.07806,0.99207
Asian,1,Right,18,Male,Yes,English,A,490,1,4,16,180.0,1.0,1.0,851.683,1.0,489.0,15.0,1.0912,0.903089
Asian,1,Right,18,Male,Yes,English,A,491,0,4,8,0.0,0.0,1.0,701.385,1.0,490.0,15.0,1.06942,0.883616
Asian,1,Right,18,Male,Yes,English,A,492,1,0,16,0.0,0.0,1.0,465.559,1.0,491.0,15.0,1.08858,0.971097
Asian,1,Right,18,Male,Yes,English,A,493,0,16,16,0.0,0.0,1.0,1212.54,1.0,492.0,15.0,1.1117,0.914784
Asian,1,Right,18,Male,Yes,English,A,494,0,0,16,0.0,0.0,1.0,626.983,1.0,493.0,15.0,1.01968,0.92155
Asian,1,Right,18,Male,Yes,English,A,495,1,8,4,180.0,1.0,1.0,660.015,1.0,494.0,15.0,1.18953,0.889063
Asian,1,Right,18,Male,Yes,English,A,496,1,16,8,0.0,0.0,1.0,583.623,1.0,495.0,15.0,1.1332,0.944197
Asian,1,Right,18,Male,Yes,English,A,497,0,8,4,180.0,1.0,1.0,1007.86,1.0,496.0,15.0,1.11572,0.834778
Asian,1,Right,18,Male,Yes,English,A,498,0,8,16,180.0,1.0,1.0,736.632,1.0,497.0,15.0,1.13574,0.988912
Asian,1,Right,18,Male,Yes,English,A,499,0,4,0,180.0,1.0,1.0,774.254,1.0,498.0,15.0,1.01338,0.80565
Asian,1,Right,18,Male,Yes,English,A,500,0,0,0,180.0,1.0,1.0,624.581,1.0,499.0,15.0,1.05854,0.856583
Asian,1,Right,18,Male,Yes,English,A,501,0,16,8,0.0,0.0,1.0,688.341,1.0,500.0,15.0,1.14065,0.867594
Asian,1,Right,18,Male,Yes,English,A,502,0,0,4,180.0,1.0,1.0,635.6,1.0,501.0,15.0,1.15592,0.869154
Asian,1,Right,18,Male,Yes,English,A,503,1,8,0,180.0,1.0,1.0,594.594,1.0,502.0,15.0,1.13773,0.93842
Asian,1,Right,18,Male,Yes,English,A,504,1,16,16,180.0,1.0,1.0,660.596,1.0,503.0,15.0,1.07119,0.938212
Asian,1,Right,18,Male,Yes,English,A,505,1,0,0,180.0,1.0,1.0,688.99,1.0,504.0,15.0,1.11672,0.918789
Asian,1,Right,18,Male,Yes,English,A,506,1,4,8,0.0,0.0,1.0,511.87,1.0,505.0,15.0,1.04575,0.920784
Asian,1,Right,18,Male,Yes,English,A,507,0,8,8,0.0,0.0,1.0,1101.95,1.0,506.0,15.0,1.11757,0.938621
Asian,1,Right,18,Male,Yes,English,A,508,0,16,0,0.0,0.0,1.0,1212.57,1.0,507.0,15.0,1.071,0.934821
Asian,1,Right,18,Male,Yes,English,A,509,0,4,16,180.0,1.0,1.0,987.667,1.0,508.0,15.0,1.06978,0.950503
Asian,1,Right,18,Male,Yes,English,A,510,1,4,0,180.0,1.0,1.0,625.323,1.0,509.0,15.0,1.13483,0.968049
Asian,1,Right,18,Male,Yes,English,A,511,0,4,4,180.0,1.0,1.0,892.029,1.0,510.0,15.0,1.17556,0.806545
Asian,1,Right,18,Male,Yes,English,A,512,0,0,8,0.0,0.0,1.0,972.002,1.0,511.0,15.0,1.18842,0.89979
Asian,1,Right,18,Male,Yes,English,A,513,1,4,4,180.0,1.0,1.0,983.991,1.0,512.0,16.0,1.12815,0.973061
Asian,1,Right,18,Male,Yes,English,A,514,0,4,0,0.0,0.0,1.0,746.011,1.0,513.0,16.0,1.10107,0.827775
Asian,1,Right,18,Male,Yes,English,A,515,1,8,16,180.0,1.0,1.0,652.037,1.0,514.0,16.0,1.03642,0.825866
Asian,1,Right,18,Male,Yes,English,A,516,1,0,4,0.0,0.0,1.0,1405.82,1.0,515.0,16.0,1.1002,0.87737
Asian,1,Right,18,Male,Yes,English,A,517,0,4,8,180.0,1.0,1.0,1101.44,1.0,516.0,16.0,1.02915,0.917523
Asian,1,Right,18,Male,Yes,English,A,518,0,4,4,180.0,1.0,1.0,680.898,1.0,517.0,16.0,1.0686,0.835878
Asian,1,Right,18,Male,Yes,English,A,519,1,16,4,180.0,1.0,1.0,1075.66,1.0,518.0,16.0,1.09636,0.97439
Asian,1,Right,18,Male,Yes,English,A,520,0,8,8,180.0,1.0,1.0,1395.85,1.0,519.0,16.0,1.07514,0.971509
Asian,1,Right,18,Male,Yes,English,A,521,1,8,0,0.0,0.0,1.0,700.941,1.0,520.0,16.0,1.04489,0.81937
Asian,1,Right,18,Male,Yes,English,A,522,1,4,8,0.0,0.0,1.0,700.858,1.0,521.0,16.0,1.0653,0.89267
Asian,1,Right,18,Male,Yes,English,A,523,1,0,0,180.0,1.0,1.0,703.794,1.0,522.0,16.0,1.13791,0.821533
Asian,1,Right,18,Male,Yes,English,A,524,0,16,4,0.0,0.0,1.0,781.672,1.0,523.0,16.0,1.10136,0.977866
Asian,1,Right,18,Male,Yes,English,A,525,0,8,16,0.0,0.0,1.0,793.625,1.0,524.0,16.0,1.08309,0.887814
Asian,1,Right,18,Male,Yes,English,A,526,0,8,0,180.0,1.0,1.0,702.467,1.0,525.0,16.0,1.07024,0.947241
Asian,1,Right,18,Male,Yes,English,A,527,1,8,8,0.0,0.0,1.0,613.546,1.0,526.0,16.0,1.14692,0.964728
Asian,1,Right,18,Male,Yes,English,A,528,1,4,0,180.0,1.0,1.0,615.897,1.0,527.0,16.0,1.00278,0.844986
Asian,1,Right,18,Male,Yes,English,A,529,1,0,16,180.0,1.0,1.0,710.136,1.0,528.0,16.0,1.0252,0.878972
Asian,1,Right,18,Male,Yes,English,A,530,1,16,16,0.0,0.0,1.0,702.934,1.0,529.0,16.0,1.15469,0.961016
Asian,1,Right,18,Male,Yes,English,A,531,1,16,8,0.0,0.0,1.0,967.668,1.0,530.0,16.0,1.14498,0.943056
Asian,1,Right,18,Male,Yes,English,A,532,0,0,16,0.0,0.0,1.0,554.767,1.0,531.0,16.0,1.10033,0.924299
Asian,1,Right,18,Male,Yes,English,A,533,1,4,16,0.0,0.0,1.0,1085.09,1.0,532.0,16.0,1.12722,0.988552
Asian,1,Right,18,Male,Yes,English,A,534,0,16,8,180.0,1.0,1.0,608.581,1.0,533.0,16.0,1.16558,0.933367
Asian,1,Right,18,Male,Yes,English,A,535,0,16,16,0.0,0.0,1.0,469.52,1.0,534.0,16.0,1.09429,0.944607
Asian,1,Right,18,Male,Yes,English,A,536,1,16,0,180.0,1.0,1.0,873.954,1.0,535.0,16.0,1.14257,0.931715
Asian,1,Right,18,Male,Yes,English,A,537,0,0,0,180.0,1.0,1.0,825.331,1.0,536.0,16.0,1.14925,0.939159
Asian,1,Right,18,Male,Yes,English,A,538,0,8,4,180.0,1.0,1.0,894.222,1.0,537.0,16.0,1.00036,0.854796
Asian,1,Right,18,Male,Yes,English,A,539,0,4,16,180.0,1.0,1.0,720.815,1.0,538.0,16.0,1.01503,0.959062
Asian,1,Right,18,Male,Yes,English,A,540,0,0,4,180.0,1.0,1.0,654.722,1.0,539.0,16.0,1.1183,0.890899
Asian,1,Right,18,Male,Yes,English,A,541,1,0,8,0.0,0.0,1.0,1260.87,1.0,540.0,16.0,1.16444,0.82202
Asian,1,Right,18,Male,Yes,English,A,542,1,8,4,0.0,0.0,1.0,599.203,1.0,541.0,16.0,1.05381,0.86628
Asian,1,Right,18,Male,Yes,English,A,543,0,16,0,0.0,0.0,1.0,1051.45,1.0,542.0,16.0,1.15556,0.886702
Asian,1,Right,18,Male,Yes,English,A,544,0,0,8,0.0,0.0,1.0,862.372,1.0,543.0,16.0,1.02618,0.824136
Asian,1,Right,18,Male,Yes,English,A,545,1,16,16,180.0,1.0,1.0,840.045,1.0,544.0,17.0,1.17569,0.817695
Asian,1,Right,18,Male,Yes,English,A,546,0,4,16,180.0,1.0,1.0,712.346,1.0,545.0,17.0,1.00366,0.941824
Asian,1,Right,18,Male,Yes,English,A,547,0,4,8,0.0,0.0,1.0,676.978,1.0,546.0,17.0,1.10354,0.953744
Asian,1,Right,18,Male,Yes,English,A,548,1,0,4,0.0,0.0,1.0,618.297,1.0,547.0,17.0,1.09311,0.883068
Asian,1,Right,18,Male,Yes,English,A,549,1,8,16,0.0,0.0,1.0,1242.88,1.0,548.0,17.0,1.18143,0.888303
Asian,1,Right,18,Male,Yes,English,A,550,0,8,8,0.0,0.0,1.0,1014.65,1.0,549.0,17.0,1.02303,0.800583
Asian,1,Right,18,Male,Yes,English,A,551,0,8,0,0.0,0.0,1.0,625.915,1.0,550.0,17.0,1.00474,0.864537
Asian,1,Right,18,Male,Yes,English,A,552,1,16,0,180.0,1.0,1.0,1028.78,1.0,551.0,17.0,1.1361,0.999218
Asian,1,Right,18,Male,Yes,English,A,553,1,8,8,0.0,0.0,1.0,531.02,1.0,552.0,17.0,1.04974,0.935973
Asian,1,Right,18,Male,Yes,English,A,554,0,4,0,0.0,0.0,1.0,743.653,1.0,553.0,17.0,1.03482,0.888909
Asian,1,Right,18,Male,Yes,English,A,555,1,0,0,180.0,1.0,1.0,558.003,1.0,554.0,17.0,1.00285,0.925621
Asian,1,Right,18,Male,Yes,English,A,556,0,16,8,180.0,1.0,1.0,1275.29,1.0,555.0,17.0,1.02398,0.875201
Asian,1,Right,18,Male,Yes,English,A,557,0,16,0,0.0,0.0,1.0,660.139,1.0,556.0,17.0,1.17879,0.97605
Asian,1,Right,18,Male,Yes,English,A,558,1,0,16,180.0,1.0,1.0,502.823,1.0,557.0,17.0,1.04824,0.922248
Asian,1,Right,18,Male,Yes,English,A,559,1,0,8,0.0,0.0,1.0,621.464,1.0,558.0,17.0,1.0906,0.875507
Asian,1,Right,18,Male,Yes,English,A,560,0,4,4,0.0,0.0,1.0,713.184,1.0,559.0,17.0,1.11645,0.856623
Asian,1,Right,18,Male,Yes,English,A,561,0,16,16,0.0,0.0,1.0,669.84,1.0,560.0,17.0,1.06769,0.977975
Asian,1,Right,18,Male,Yes,English,A,562,0,16,4,180.0,1.0,1.0,1075.74,1.0,561.0,17.0,1.03389,0.883174
Asian,1,Right,18,Male,Yes,English,A,563,1,16,8,180.0,1.0,1.0,699.203,1.0,562.0,17.0,1.09836,0.838838
Asian,1,Right,18,Male,Yes,English,A,564,0,8,4,0.0,0.0,1.0,752.655,1.0,563.0,17.0,1.0972,0.814019
Asian,1,Right,18,Male,Yes,English,A,565,1,4,8,180.0,1.0,1.0,540.831,1.0,564.0,17.0,1.02269,0.939584
Asian,1,Right,18,Male,Yes,English,A,566,1,16,4,180.0,1.0,1.0,478.124,1.0,565.0,17.0,1.17156,0.839513
Asian,1,Right,18,Male,Yes,English,A,567,1,8,4,180.0,1.0,1.0,527.071,1.0,566.0,17.0,1.15935,0.831284
Asian,1,Right,18,Male,Yes,English,A,568,1,4,4,180.0,1.0,1.0,530.185,1.0,567.0,17.0,1.19443,0.958188
Asian,1,Right,18,Male,Yes,English,A,569,1,8,0,0.0,0.0,1.0,786.558,1.0,568.0,17.0,1.15811,0.879854
Asian,1,Right,18,Male,Yes,English,A,570,1,4,0,0.0,0.0,1.0,611.382,1.0,569.0,17.0,1.17277,0.92698
Asian,1,Right,18,Male,Yes,English,A,571,1,4,16,180.0,1.0,1.0,706.905,1.0,570.0,17.0,1.17855,0.964622
Asian,1,Right,18,Male,Yes,English,A,572,0,0,8,180.0,1.0,1.0,1034.51,1.0,571.0,17.0,1.11889,0.979154
Asian,1,Right,18,Male,Yes,English,A,573,0,8,16,0.0,0.0,1.0,1310.1,1.0,572.0,17.0,1.08743,0.836358
Asian,1,Right,18,Male,Yes,English,A,574,0,0,16,0.0,0.0,1.0,877.002,1.0,573.0,17.0,1.11516,0.830187
Asian,1,Right,18,Male,Yes,English,A,575,0,0,4,180.0,1.0,1.0,935.856,1.0,574.0,17.0,1.08012,0.894967
Asian,1,Right,18,Male,Yes,English,A,576,0,0,0,180.0,1.0,1.0,578.512,1.0,575.0,17.0,1.03294,0.972292
Asian,1,Right,18,Male,Yes,English,A,577,0,8,0,0.0,0.0,1.0,550.427,1.0,576.0,18.0,1.01821,0.902346
Asian,1,Right,18,Male,Yes,English,A,578,1,8,4,180.0,1.0,1.0,1125.6,1.0,577.0,18.0,1.08813,0.871189
Asian,1,Right,18,Male,Yes,English,A,579,0,0,4,180.0,1.0,1.0,700.988,1.0,578.0,18.0,1.08922,0.999538
Asian,1,Right,18,Male,Yes,English,A,580,0,0,16,180.0,1.0,1.0,830.502,1.0,579.0,18.0,1.12584,0.920912
Asian,1,Right,18,Male,Yes,English,A,581,1,0,8,0.0,0.0,1.0,643.467,1.0,580.0,18.0,1.05849,0.884797
Asian,1,Right,18,Male,Yes,English,A,582,1,4,8,0.0,0.0,1.0,984.612,1.0,581.0,18.0,1.06013,0.897792
Asian,1,Right,18,Male,Yes,English,A,583,0,4,8,180.0,1.0,1.0,996.618,1.0,582.0,18.0,1.18305,0.895563
Asian,1,Right,18,Male,Yes,English,A,584,0,8,16,180.0,1.0,1.0,838.46,1.0,583.0,18.0,1.12068,0.839343
Asian,1,Right,18,Male,Yes,English,A,585,1,8,16,180.0,1.0,1.0,697.652,1.0,584.0,18.0,1.18373,0.972589
Asian,1,Right,18,Male,Yes,English,A,586,1,4,16,180.0,1.0,1.0,605.336,1.0,585.0,18.0,1.09724,0.932997
Asian,1,Right,18,Male,Yes,English,A,587,0,16,16,180.0,1.0,1.0,1022.15,1.0,586.0,18.0,1.09089,0.904557
Asian,1,Right,18,Male,Yes,English,A,588,1,16,8,180.0,1.0,1.0,828.611,1.0,587.0,18.0,1.12918,0.874643
Asian,1,Right,18,Male,Yes,English,A,589,1,8,0,180.0,1.0,1.0,720.345,1.0,588.0,18.0,1.01018,0.862073
Asian,1,Right,18,Male,Yes,English,A,590,0,4,16,0.0,0.0,1.0,731.115,1.0,589.0,18.0,1.09042,0.903281
Asian,1,Right,18,Male,Yes,English,A,591,0,4,0,0.0,0.0,1.0,826.709,1.0,590.0,18.0,1.04512,0.900822
Asian,1,Right,18,Male,Yes,English,A,592,1,0,16,180.0,1.0,1.0,789.734,1.0,591.0,18.0,1.02792,0.864606
Asian,1,Right,18,Male,Yes,English,A,593,0,16,8,0.0,0.0,1.0,833.013,1.0,592.0,18.0,1.02999,0.859358
Asian,1,Right,18,Male,Yes,English,A,594,0,0,0,0.0,0.0,1.0,683.829,1.0,593.0,18.0,1.0194,0.972837
Asian,1,Right,18,Male,Yes,English,A,595,0,8,8,0.0,0.0,1.0,755.081,1.0,594.0,18.0,1.04261,0.942962
Asian,1,Right,18,Male,Yes,English,A,596,1,8,8,180.0,1.0,1.0,730.422,1.0,595.0,18.0,1.12305,0.855085
Asian,1,Right,18,Male,Yes,English,A,597,1,0,0,180.0,1.0,1.0,468.358,1.0,596.0,18.0,1.01878,0.885235
Asian,1,Right,18,Male,Yes,English,A,598,0,4,4,180.0,1.0,1.0,1087.12,1.0,597.0,18.0,1.04024,0.834353
Asian,1,Right,18,Male,Yes,English,A,599,0,0,8,0.0,0.0,1.0,665.609,1.0,598.0,18.0,1.0362,0.834269
Asian,1,Right,18,Male,Yes,English,A,600,1,16,0,180.0,1.0,1.0,576.846,1.0,599.0,18.0,1.15246,0.842863
Asian,1,Right,18,Male,Yes,English,A,601,1,16,16,0.0,0.0,1.0,804.196,1.0,600.0,18.0,1.14429,0.85292
Asian,1,Right,18,Male,Yes,English,A,602,1,0,4,0.0,0.0,1.0,710.478,1.0,601.0,18.0,1.02603,0.801031
Asian,1,Right,18,Male,Yes,English,A,603,0,8,4,0.0,1.0,0.0,982.265,1.0,602.0,18.0,1.08289,0.981412
Asian,1,Right,18,Male,Yes,English,A,604,0,16,4,0.0,0.0,1.0,499.187,1.0,603.0,18.0,1.05606,0.91453
Asian,1,Right,18,Male,Yes,English,A,605,1,4,0,0.0,0.0,1.0,524.376,1.0,604.0,18.0,1.08102,0.848716
Asian,1,Right,18,Male,Yes,English,A,606,0,16,0,0.0,0.0,1.0,995.628,1.0,605.0,18.0,1.01118,0.9443
Asian,1,Right,18,Male,Yes,English,A,607,1,16,4,0.0,0.0,1.0,530.664,1.0,606.0,18.0,1.10919,0.922096
Asian,1,Right,18,Male,Yes,English,A,608,1,4,4,180.0,1.0,1.0,502.73,1.0,607.0,18.0,1.08252,0.99627
Asian,1,Right,18,Male,Yes,English,A,609,0,4,4,0.0,0.0,1.0,786.663,1.0,608.0,19.0,1.07515,0.842869
Asian,1,Right,18,Male,Yes,English,A,610,1,16,0,0.0,0.0,1.0,820.977,1.0,609.0,19.0,1.15119,0.837395
Asian,1,Right,18,Male,Yes,English,A,611,0,16,8,180.0,1.0,1.0,673.134,1.0,610.0,19.0,1.19374,0.95599
Asian,1,Right,18,Male,Yes,English,A,612,1,0,16,180.0,1.0,1.0,575.072,1.0,611.0,19.0,1.05856,0.915746
Asian,1,Right,18,Male,Yes,English,A,613,1,16,4,180.0,1.0,1.0,979.487,1.0,612.0,19.0,1.12248,0.803734
Asian,1,Right,18,Male,Yes,English,A,614,0,0,8,0.0,0.0,1.0,802.801,1.0,613.0,19.0,1.11932,0.802911
Asian,1,Right,18,Male,Yes,English,A,615,0,8,4,0.0,0.0,1.0,659.254,1.0,614.0,19.0,1.16935,0.832983
Asian,1,Right,18,Male,Yes,English,A,616,0,16,0,0.0,0.0,1.0,1210.18,1.0,615.0,19.0,1.0471,0.948581
Asian,1,Right,18,Male,Yes,English,A,617,0,16,16,180.0,1.0,1.0,1006.02,1.0,616.0,19.0,1.1737,0.939978
Asian,1,Right,18,Male,Yes,English,A,618,1,4,0,180.0,1.0,1.0,571.31,1.0,617.0,19.0,1.125,0.978414
Asian,1,Right,18,Male,Yes,English,A,619,1,4,8,0.0,0.0,1.0,490.077,1.0,618.0,19.0,1.176,0.882835
Asian,1,Right,18,Male,Yes,English,A,620,0,0,16,180.0,1.0,1.0,612.165,1.0,619.0,19.0,1.16747,0.970501
Asian,1,Right,18,Male,Yes,English,A,621,1,8,4,180.0,1.0,1.0,753.47,1.0,620.0,19.0,1.13206,0.913634
Asian,1,Right,18,Male,Yes,English,A,622,1,8,16,0.0,0.0,1.0,817.0,1.0,621.0,19.0,1.02894,0.8095
Asian,1,Right,18,Male,Yes,English,A,623,0,8,16,0.0,0.0,1.0,565.954,1.0,622.0,19.0,1.00024,0.873417
Asian,1,Right,18,Male,Yes,English,A,624,1,16,16,180.0,1.0,1.0,655.36,1.0,623.0,19.0,1.055,0.81138
Asian,1,Right,18,Male,Yes,English,A,625,0,8,8,180.0,1.0,1.0,1387.4,1.0,624.0,19.0,1.14022,0.834327
Asian,1,Right,18,Male,Yes,English,A,626,1,16,8,180.0,1.0,1.0,690.063,1.0,625.0,19.0,1.05269,0.86152
Asian,1,Right,18,Male,Yes,English,A,627,0,4,16,0.0,0.0,1.0,682.214,1.0,626.0,19.0,1.04912,0.85753
Asian,1,Right,18,Male,Yes,English,A,628,0,4,8,0.0,0.0,1.0,701.471,1.0,627.0,19.0,1.03972,0.807924
Asian,1,Right,18,Male,Yes,English,A,629,1,0,4,0.0,0.0,1.0,779.046,1.0,628.0,19.0,1.19052,0.926084
Asian,1,Right,18,Male,Yes,English,A,630,1,4,16,0.0,0.0,1.0,599.29,1.0,629.0,19.0,1.128,0.972565
Asian,1,Right,18,Male,Yes,English,A,631,1,8,8,0.0,0.0,1.0,654.721,1.0,630.0,19.0,1.01096,0.867942
Asian,1,Right,18,Male,Yes,English,A,632,1,0,0,180.0,1.0,1.0,582.931,1.0,631.0,19.0,1.17833,0.89321
Asian,1,Right,18,Male,Yes,English,A,633,0,4,0,180.0,1.0,1.0,1095.66,1.0,632.0,19.0,1.17731,0.813915
Asian,1,Right,18,Male,Yes,English,A,634,0,0,0,0.0,0.0,1.0,677.289,1.0,633.0,19.0,1.14082,0.949672
Asian,1,Right,18,Male,Yes,English,A,635,1,8,0,180.0,1.0,1.0,966.394,1.0,634.0,19.0,1.15788,0.872951
Asian,1,Right,18,Male,Yes,English,A,636,0,0,4,0.0,0.0,1.0,787.808,1.0,635.0,19.0,1.18285,0.840281
Asian,1,Right,18,Male,Yes,English,A,637,0,16,4,180.0,1.0,1.0,695.067,1.0,636.0,19.0,1.1192,0.973818
Asian,1,Right,18,Male,Yes,English,A,638,0,8,0,180.0,1.0,1.0,650.461,1.0,637.0,19.0,1.12521,0.835901
Asian,1,Right,18,Male,Yes,English,A,639,1,4,4,0.0,0.0,1.0,960.164,1.0,638.0,19.0,1.19785,0.951818
Asian,1,Right,18,Male,Yes,English,A,640,1,0,8,180.0,1.0,1.0,739.032,1.0,639.0,19.0,1.03019,0.927825
Asian,1,Right,18,Male,Yes,English,A,641,0,4,4,0.0,0.0,1.0,1747.16,1.0,640.0,20.0,1.10347,0.864298
Asian,1,Right,18,Male,Yes,English,A,642,1,16,16,0.0,0.0,1.0,831.004,1.0,641.0,20.0,1.16853,0.963553
Asian,1,Right,18,Male,Yes,English,A,643,1,8,4,180.0,1.0,1.0,594.998,1.0,642.0,20.0,1.03014,0.838417
Asian,1,Right,18,Male,Yes,English,A,644,0,16,8,180.0,1.0,1.0,1039.38,1.0,643.0,20.0,1.0335,0.925396
Asian,1,Right,18,Male,Yes,English,A,645,0,16,4,180.0,1.0,1.0,631.395,1.0,644.0,20.0,1.01337,0.868357
Asian,1,Right,18,Male,Yes,English,A,646,0,8,4,0.0,0.0,1.0,1350.9,1.0,645.0,20.0,1.18821,0.914263
Asian,1,Right,18,Male,Yes,English,A,647,0,16,16,180.0,1.0,1.0,618.623,1.0,646.0,20.0,1.09219,0.952648
Asian,1,Right,18,Male,Yes,English,A,648,1,4,16,180.0,1.0,1.0,531.687,1.0,647.0,20.0,1.14702,0.979406
Asian,1,Right,18,Male,Yes,English,A,649,0,8,8,0.0,0.0,1.0,939.557,1.0,648.0,20.0,1.14435,0.848981
Asian,1,Right,18,Male,Yes,English,A,650,1,8,0,0.0,0.0,1.0,954.189,1.0,649.0,20.0,1.11678,0.825397
Asian,1,Right,18,Male,Yes,English,A,651,1,8,16,180.0,1.0,1.0,774.691,1.0,650.0,20.0,1.04668,0.878673
Asian,1,Right,18,Male,Yes,English,A,652,0,0,4,0.0,0.0,1.0,682.491,1.0,651.0,20.0,1.19954,0.896668
Asian,1,Right,18,Male,Yes,English,A,653,1,0,4,0.0,0.0,1.0,508.84,1.0,652.0,20.0,1.09705,0.961701
Asian,1,Right,18,Male,Yes,English,A,654,0,8,0,0.0,0.0,1.0,907.438,1.0,653.0,20.0,1.00574,0.855987
Asian,1,Right,18,Male,Yes,English,A,655,0,0,16,180.0,1.0,1.0,764.522,1.0,654.0,20.0,1.08605,0.970063
Asian,1,Right,18,Male,Yes,English,A,656,1,8,8,180.0,1.0,1.0,681.675,1.0,655.0,20.0,1.01036,0.934012
Asian,1,Right,18,Male,Yes,English,A,657,1,4,0,180.0,1.0,1.0,938.322,1.0,656.0,20.0,1.17217,0.914531
Asian,1,Right,18,Male,Yes,English,A,658,1,16,0,0.0,0.0,1.0,631.955,1.0,657.0,20.0,1.02205,0.914966
Asian,1,Right,18,Male,Yes,English,A,659,0,16,0,0.0,0.0,1.0,888.913,1.0,658.0,20.0,1.07499,0.935945
Asian,1,Right,18,Male,Yes,English,A,660,0,4,8,0.0,0.0,1.0,766.783,1.0,659.0,20.0,1.09882,0.866754
Asian,1,Right,18,Male,Yes,English,A,661,1,0,0,180.0,1.0,1.0,495.864,1.0,660.0,20.0,1.04619,0.825854
Asian,1,Right,18,Male,Yes,English,A,662,1,4,8,180.0,1.0,1.0,635.949,1.0,661.0,20.0,1.09779,0.933411
Asian,1,Right,18,Male,Yes,English,A,663,1,0,8,0.0,0.0,1.0,541.5,1.0,662.0,20.0,1.08424,0.981604
Asian,1,Right,18,Male,Yes,English,A,664,0,4,0,180.0,1.0,1.0,647.408,1.0,663.0,20.0,1.03318,0.95876
Asian,1,Right,18,Male,Yes,English,A,665,0,0,8,180.0,1.0,1.0,692.511,1.0,664.0,20.0,1.041,0.814022
Asian,1,Right,18,Male,Yes,English,A,666,1,16,4,0.0,0.0,1.0,760.916,1.0,665.0,20.0,1.05993,0.859918
Asian,1,Right,18,Male,Yes,English,A,667,1,4,4,180.0,1.0,1.0,749.076,1.0,666.0,20.0,1.17275,0.971306
Asian,1,Right,18,Male,Yes,English,A,668,0,0,0,180.0,1.0,1.0,536.118,1.0,667.0,20.0,1.12198,0.981533
Asian,1,Right,18,Male,Yes,English,A,669,1,16,8,180.0,1.0,1.0,662.137,1.0,668.0,20.0,1.03233,0.858382
Asian,1,Right,18,Male,Yes,English,A,670,0,8,16,0.0,1.0,0.0,470.546,1.0,669.0,20.0,1.12663,0.896206
Asian,1,Right,18,Male,Yes,English,A,671,0,4,16,0.0,0.0,1.0,633.016,1.0,670.0,20.0,1.17123,0.963172
Asian,1,Right,18,Male,Yes,English,A,672,1,0,16,0.0,0.0,1.0,599.373,1.0,671.0,20.0,1.02571,0.839637
Asian,1,Right,18,Male,Yes,English,A,673,0,4,0,0.0,0.0,1.0,830.051,1.0,672.0,21.0,1.06064,0.87463
Asian,1,Right,18,Male,Yes,English,A,674,0,0,4,180.0,9999.0,0.0,9999.0,1.0,673.0,21.0,1.01051,0.997055
Asian,1,Right,18,Male,Yes,English,A,675,1,8,0,0.0,0.0,1.0,811.794,1.0,674.0,21.0,1.04593,0.921889
Asian,1,Right,18,Male,Yes,English,A,676,1,16,16,0.0,0.0,1.0,781.557,1.0,675.0,21.0,1.08241,0.957153
Asian,1,Right,18,Male,Yes,English,A,677,0,4,16,180.0,1.0,1.0,593.522,1.0,676.0,21.0,1.02719,0.963905
Asian,1,Right,18,Male,Yes,English,A,678,0,8,4,180.0,1.0,1.0,766.015,1.0,677.0,21.0,1.10817,0.939404
Asian,1,Right,18,Male,Yes,English,A,679,0,4,4,180.0,1.0,1.0,789.039,1.0,678.0,21.0,1.08516,0.861462
Asian,1,Right,18,Male,Yes,English,A,680,0,16,16,0.0,0.0,1.0,875.851,1.0,679.0,21.0,1.13227,0.881469
Asian,1,Right,18,Male,Yes,English,A,681,1,8,16,180.0,1.0,1.0,624.989,1.0,680.0,21.0,1.19641,0.866025
Asian,1,Right,18,Male,Yes,English,A,682,0,8,0,180.0,1.0,1.0,660.077,1.0,681.0,21.0,1.1286,0.869967
Asian,1,Right,18,Male,Yes,English,A,683,0,0,0,0.0,0.0,1.0,522.718,1.0,682.0,21.0,1.06727,0.991613
Asian,1,Right,18,Male,Yes,English,A,684,1,8,4,0.0,1.0,0.0,547.259,1.0,683.0,21.0,1.18074,0.880178
Asian,1,Right,18,Male,Yes,English,A,685,0,0,8,180.0,1.0,1.0,767.426,1.0,684.0,21.0,1.00191,0.813897
Asian,1,Right,18,Male,Yes,English,A,686,1,0,0,0.0,0.0,1.0,561.054,1.0,685.0,21.0,1.00908,0.801442
Asian,1,Right,18,Male,Yes,English,A,687,0,4,8,180.0,1.0,1.0,736.79,1.0,686.0,21.0,1.19604,0.807278
Asian,1,Right,18,Male,Yes,English,A,688,0,0,16,0.0,0.0,1.0,688.426,1.0,687.0,21.0,1.12574,0.890004
Asian,1,Right,18,Male,Yes,English,A,689,0,16,8,180.0,1.0,1.0,876.745,1.0,688.0,21.0,1.07709,0.876671
Asian,1,Right,18,Male,Yes,English,A,690,1,4,4,0.0,0.0,1.0,530.078,1.0,689.0,21.0,1.15767,0.905698
Asian,1,Right,18,Male,Yes,English,A,691,0,16,4,180.0,1.0,1.0,620.618,1.0,690.0,21.0,1.01144,0.819796
Asian,1,Right,18,Male,Yes,English,A,692,1,16,8,0.0,0.0,1.0,1007.46,1.0,691.0,21.0,1.03464,0.825638
Asian,1,Right,18,Male,Yes,English,A,693,1,16,0,180.0,1.0,1.0,456.893,1.0,692.0,21.0,1.18987,0.964594
Asian,1,Right,18,Male,Yes,English,A,694,1,0,4,0.0,0.0,1.0,402.288,1.0,693.0,21.0,1.17151,0.958022
Asian,1,Right,18,Male,Yes,English,A,695,1,4,16,0.0,0.0,1.0,610.477,1.0,694.0,21.0,1.1274,0.818845
Asian,1,Right,18,Male,Yes,English,A,696,0,8,8,180.0,1.0,1.0,923.742,1.0,695.0,21.0,1.17534,0.957514
Asian,1,Right,18,Male,Yes,English,A,697,1,4,0,180.0,1.0,1.0,773.198,1.0,696.0,21.0,1.0335,0.876279
Asian,1,Right,18,Male,Yes,English,A,698,0,8,16,180.0,1.0,1.0,851.046,1.0,697.0,21.0,1.16843,0.866488
Asian,1,Right,18,Male,Yes,English,A,699,1,16,4,180.0,1.0,1.0,921.134,1.0,698.0,21.0,1.01635,0.817295
Asian,1,Right,18,Male,Yes,English,A,700,1,0,16,180.0,1.0,1.0,498.565,1.0,699.0,21.0,1.10152,0.919197
Asian,1,Right,18,Male,Yes,English,A,701,1,0,8,0.0,0.0,1.0,546.883,1.0,700.0,21.0,1.01518,0.907357
Asian,1,Right,18,Male,Yes,English,A,702,1,8,8,0.0,0.0,1.0,655.461,1.0,701.0,21.0,1.14567,0.85066
Asian,1,Right,18,Male,Yes,English,A,703,1,4,8,0.0,0.0,1.0,601.155,1.0,702.0,21.0,1.08657,0.976424
Asian,1,Right,18,Male,Yes,English,A,704,0,16,0,0.0,0.0,1.0,1005.37,1.0,703.0,21.0,1.07464,0.898709
Asian,1,Right,18,Male,Yes,English,A,705,0,8,4,0.0,0.0,1.0,884.077,1.0,704.0,22.0,1.06667,0.842602
Asian,1,Right,18,Male,Yes,English,A,706,1,8,4,0.0,0.0,1.0,663.121,1.0,705.0,22.0,1.11644,0.987342
Asian,1,Right,18,Male,Yes,English,A,707,1,16,4,180.0,1.0,1.0,682.893,1.0,706.0,22.0,1.08165,0.93462
Asian,1,Right,18,Male,Yes,English,A,708,0,0,0,180.0,1.0,1.0,595.595,1.0,707.0,22.0,1.15749,0.804028
Asian,1,Right,18,Male,Yes,English,A,709,1,4,8,180.0,1.0,1.0,776.779,1.0,708.0,22.0,1.01067,0.842883
Asian,1,Right,18,Male,Yes,English,A,710,1,0,0,180.0,1.0,1.0,508.269,1.0,709.0,22.0,1.00053,0.973696
Asian,1,Right,18,Male,Yes,English,A,711,0,4,8,0.0,0.0,1.0,1099.37,1.0,710.0,22.0,1.09069,0.924738
Asian,1,Right,18,Male,Yes,English,A,712,1,16,0,0.0,0.0,1.0,865.856,1.0,711.0,22.0,1.19633,0.921342
Asian,1,Right,18,Male,Yes,English,A,713,0,4,16,0.0,0.0,1.0,592.377,1.0,712.0,22.0,1.17461,0.903413
Asian,1,Right,18,Male,Yes,English,A,714,0,0,8,180.0,1.0,1.0,574.931,1.0,713.0,22.0,1.0137,0.950494
Asian,1,Right,18,Male,Yes,English,A,715,1,16,16,180.0,1.0,1.0,782.454,1.0,714.0,22.0,1.08212,0.851872
Asian,1,Right,18,Male,Yes,English,A,716,1,4,16,0.0,0.0,1.0,569.454,1.0,715.0,22.0,1.12909,0.914657
Asian,1,Right,18,Male,Yes,English,A,717,1,8,0,180.0,1.0,1.0,453.006,1.0,716.0,22.0,1.18715,0.863284
Asian,1,Right,18,Male,Yes,English,A,718,1,8,8,0.0,0.0,1.0,1009.14,1.0,717.0,22.0,1.12293,0.899531
Asian,1,Right,18,Male,Yes,English,A,719,1,0,4,180.0,1.0,1.0,685.073,1.0,718.0,22.0,1.03564,0.846997
Asian,1,Right,18,Male,Yes,English,A,720,1,0,8,180.0,1.0,1.0,584.76,1.0,719.0,22.0,1.08141,0.946729
Asian,1,Right,18,Male,Yes,English,A,721,1,16,8,0.0,0.0,1.0,450.142,1.0,720.0,22.0,1.14053,0.843686
Asian,1,Right,18,Male,Yes,English,A,722,0,16,16,180.0,1.0,1.0,1050.94,1.0,721.0,22.0,1.13394,0.908282
Asian,1,Right,18,Male,Yes,English,A,723,0,16,4,180.0,1.0,1.0,1199.87,1.0,722.0,22.0,1.13662,0.842616
Asian,1,Right,18,Male,Yes,English,A,724,1,4,4,180.0,1.0,1.0,568.22,1.0,723.0,22.0,1.18005,0.917347
Asian,1,Right,18,Male,Yes,English,A,725,0,4,4,180.0,1.0,1.0,546.214,1.0,724.0,22.0,1.19867,0.985066
Asian,1,Right,18,Male,Yes,English,A,726,1,4,0,0.0,0.0,1.0,560.277,1.0,725.0,22.0,1.1671,0.960199
Asian,1,Right,18,Male,Yes,English,A,727,0,4,0,0.0,0.0,1.0,743.297,1.0,726.0,22.0,1.11963,0.81066
Asian,1,Right,18,Male,Yes,English,A,728,0,0,16,180.0,1.0,1.0,1110.38,1.0,727.0,22.0,1.07012,0.815487
Asian,1,Right,18,Male,Yes,English,A,729,0,0,4,180.0,1.0,1.0,514.109,1.0,728.0,22.0,1.02555,0.989779
Asian,1,Right,18,Male,Yes,English,A,730,0,8,16,0.0,0.0,1.0,840.25,1.0,729.0,22.0,1.17039,0.83921
Asian,1,Right,18,Male,Yes,English,A,731,0,8,0,0.0,0.0,1.0,901.806,1.0,730.0,22.0,1.19438,0.956722
Asian,1,Right,18,Male,Yes,English,A,732,0,16,8,0.0,0.0,1.0,674.286,1.0,731.0,22.0,1.13194,0.809776
Asian,1,Right,18,Male,Yes,English,A,733,1,0,16,0.0,0.0,1.0,835.683,1.0,732.0,22.0,1.11162,0.992576
Asian,1,Right,18,Male,Yes,English,A,734,0,16,0,0.0,0.0,1.0,984.122,1.0,733.0,22.0,1.17323,0.803007
Asian,1,Right,18,Male,Yes,English,A,735,0,8,8,180.0,1.0,1.0,872.327,1.0,734.0,22.0,1.03328,0.992824
Asian,1,Right,18,Male,Yes,English,A,736,1,8,16,0.0,0.0,1.0,888.796,1.0,735.0,22.0,1.01495,0.842675
Asian,1,Right,18,Male,Yes,English,A,737,0,4,16,180.0,1.0,1.0,766.142,1.0,736.0,23.0,1.01805,0.858715
Asian,1,Right,18,Male,Yes,English,A,738,1,16,0,180.0,1.0,1.0,914.936,1.0,737.0,23.0,1.16931,0.881474
Asian,1,Right,18,Male,Yes,English,A,739,1,4,16,0.0,0.0,1.0,863.555,1.0,738.0,23.0,1.17494,0.92628
Asian,1,Right,18,Male,Yes,English,A,740,1,4,8,180.0,1.0,1.0,539.672,1.0,739.0,23.0,1.01658,0.808177
Asian,1,Right,18,Male,Yes,English,A,741,0,8,16,0.0,0.0,1.0,1090.65,1.0,740.0,23.0,1.1163,0.807955
Asian,1,Right,18,Male,Yes,English,A,742,0,16,0,0.0,0.0,1.0,903.699,1.0,741.0,23.0,1.09956,0.885367
Asian,1,Right,18,Male,Yes,English,A,743,1,8,16,180.0,1.0,1.0,649.148,1.0,742.0,23.0,1.16606,0.928791
Asian,1,Right,18,Male,Yes,English,A,744,1,8,4,180.0,1.0,1.0,593.012,1.0,743.0,23.0,1.07159,0.907063
Asian,1,Right,18,Male,Yes,English,A,745,0,8,8,0.0,0.0,1.0,892.299,1.0,744.0,23.0,1.15317,0.837386
Asian,1,Right,18,Male,Yes,English,A,746,1,16,8,0.0,0.0,1.0,664.136,1.0,745.0,23.0,1.00946,0.913126
Asian,1,Right,18,Male,Yes,English,A,747,0,16,16,0.0,0.0,1.0,997.896,1.0,746.0,23.0,1.09412,0.833502
Asian,1,Right,18,Male,Yes,English,A,748,0,4,0,0.0,0.0,1.0,792.713,1.0,747.0,23.0,1.09386,0.830297
Asian,1,Right,18,Male,Yes,English,A,749,1,4,4,0.0,0.0,1.0,682.006,1.0,748.0,23.0,1.04722,0.808525
Asian,1,Right,18,Male,Yes,English,A,750,1,4,0,180.0,1.0,1.0,566.712,1.0,749.0,23.0,1.14341,0.834405
Asian,1,Right,18,Male,Yes,English,A,751,0,16,8,0.0,0.0,1.0,1010.04,1.0,750.0,23.0,1.05443,0.965298
Asian,1,Right,18,Male,Yes,English,A,752,0,4,8,0.0,0.0,1.0,1293.56,1.0,751.0,23.0,1.19202,0.895259
Asian,1,Right,18,Male,Yes,English,A,753,1,16,4,180.0,1.0,1.0,539.145,1.0,752.0,23.0,1.05066,0.921828
Asian,1,Right,18,Male,Yes,English,A,754,0,0,16,180.0,1.0,1.0,828.331,1.0,753.0,23.0,1.02017,0.998021
Asian,1,Right,18,Male,Yes,English,A,755,0,8,0,0.0,0.0,1.0,575.14,1.0,754.0,23.0,1.19999,0.831539
Asian,1,Right,18,Male,Yes,English,A,756,1,8,8,180.0,1.0,1.0,615.877,1.0,755.0,23.0,1.07115,0.983075
Asian,1,Right,18,Male,Yes,English,A,757,1,0,4,180.0,1.0,1.0,560.217,1.0,756.0,23.0,1.14613,0.966665
Asian,1,Right,18,Male,Yes,English,A,758,1,0,0,0.0,0.0,1.0,456.995,1.0,757.0,23.0,1.10248,0.824933
Asian,1,Right,18,Male,Yes,English,A,759,0,8,4,180.0,1.0,1.0,1011.12,1.0,758.0,23.0,1.11749,0.931678
Asian,1,Right,18,Male,Yes,English,A,760,0,0,0,180.0,1.0,1.0,567.473,1.0,759.0,23.0,1.14016,0.872343
Asian,1,Right,18,Male,Yes,English,A,761,1,0,8,0.0,0.0,1.0,778.411,1.0,760.0,23.0,1.02976,0.881446
Asian,1,Right,18,Male,Yes,English,A,762,0,4,4,180.0,1.0,1.0,607.47,1.0,761.0,23.0,1.07821,0.880069
Asian,1,Right,18,Male,Yes,English,A,763,0,16,4,0.0,0.0,1.0,1227.95,1.0,762.0,23.0,1.05649,0.87665
Asian,1,Right,18,Male,Yes,English,A,764,1,0,16,180.0,1.0,1.0,466.648,1.0,763.0,23.0,1.15281,0.884324
Asian,1,Right,18,Male,Yes,English,A,765,1,8,0,180.0,1.0,1.0,780.328,1.0,764.0,23.0,1.0313,0.849799
Asian,1,Right,18,Male,Yes,English,A,766,0,0,4,180.0,1.0,1.0,760.359,1.0,765.0,23.0,1.09706,0.832317
Asian,1,Right,18,Male,Yes,English,A,767,0,0,8,0.0,0.0,1.0,1135.37,1.0,766.0,23.0,1.15551,0.877199
Asian,1,Right,18,Male,Yes,English,A,768,1,16,16,0.0,0.0,1.0,533.389,1.0,767.0,23.0,1.19054,0.973368
