Ethnicity,Subject Number,Preferred Hand,Age,Gender,Color blind,First Language,Room,TrialNumber,background,turtles,tortoises,target_id,resp,hit,rt,ran,order,block,iti,fix_duration
Asian,6,Right,18,Male,Yes,Mandarin,D,1,1,8,4,180.0,1.0,1.0,749.706,1.0,0.0,0.0,1.06993,0.933855
Asian,6,Right,18,Male,Yes,Mandarin,D,2,1,0,4,180.0,1.0,1.0,629.775,1.0,1.0,0.0,1.14801,0.951867
Asian,6,Right,18,Male,Yes,Mandarin,D,3,1,4,0,180.0,1.0,1.0,823.739,1.0,2.0,0.0,1.01216,0.810652
Asian,6,Right,18,Male,Yes,Mandarin,D,4,0,4,8,180.0,1.0,1.0,845.131,1.0,3.0,0.0,1.00287,0.855796
Asian,6,Right,18,Male,Yes,Mandarin,D,5,1,16,0,180.0,1.0,1.0,805.51,1.0,4.0,0.0,1.15627,0.840193
Asian,6,Right,18,Male,Yes,Mandarin,D,6,0,0,4,0.0,0.0,1.0,731.879,1.0,5.0,0.0,1.13468,0.899977
Asian,6,Right,18,Male,Yes,Mandarin,D,7,0,8,0,180.0,1.0,1.0,834.679,1.0,6.0,0.0,1.00614,0.853417
Asian,6,Right,18,Male,Yes,Mandarin,D,8,0,16,4,180.0,1.0,1.0,1511.74,1.0,7.0,0.0,1.06004,0.88208
Asian,6,Right,18,Male,Yes,Mandarin,D,9,0,8,8,0.0,0.0,1.0,779.837,1.0,8.0,0.0,1.02941,0.965824
Asian,6,Right,18,Male,Yes,Mandarin,D,10,1,16,4,0.0,0.0,1.0,1050.24,1.0,9.0,0.0,1.03091,0.870755
Asian,6,Right,18,Male,Yes,Mandarin,D,11,0,4,4,180.0,1.0,1.0,718.915,1.0,10.0,0.0,1.05609,0.922567
Asian,6,Right,18,Male,Yes,Mandarin,D,12,1,0,8,180.0,1.0,1.0,957.12,1.0,11.0,0.0,1.12989,0.820108
Asian,6,Right,18,Male,Yes,Mandarin,D,13,1,8,0,180.0,1.0,1.0,759.751,1.0,12.0,0.0,1.0997,0.974405
Asian,6,Right,18,Male,Yes,Mandarin,D,14,0,4,16,180.0,1.0,1.0,729.106,1.0,13.0,0.0,1.10268,0.839459
Asian,6,Right,18,Male,Yes,Mandarin,D,15,0,0,0,0.0,0.0,1.0,741.492,1.0,14.0,0.0,1.18066,0.870116
Asian,6,Right,18,Male,Yes,Mandarin,D,16,0,0,8,0.0,0.0,1.0,617.145,1.0,15.0,0.0,1.09078,0.891708
Asian,6,Right,18,Male,Yes,Mandarin,D,17,0,4,0,180.0,1.0,1.0,743.581,1.0,16.0,0.0,1.13684,0.958677
Asian,6,Right,18,Male,Yes,Mandarin,D,18,0,8,16,180.0,1.0,1.0,952.283,1.0,17.0,0.0,1.16763,0.918466
Asian,6,Right,18,Male,Yes,Mandarin,D,19,0,16,16,0.0,0.0,1.0,929.703,1.0,18.0,0.0,1.17471,0.874096
Asian,6,Right,18,Male,Yes,Mandarin,D,20,0,16,8,0.0,0.0,1.0,783.144,1.0,19.0,0.0,1.16331,0.916876
Asian,6,Right,18,Male,Yes,Mandarin,D,21,1,8,8,180.0,1.0,1.0,947.436,1.0,20.0,0.0,1.02743,0.848457
Asian,6,Right,18,Male,Yes,Mandarin,D,22,1,0,16,0.0,0.0,1.0,1450.03,1.0,21.0,0.0,1.11149,0.932454
Asian,6,Right,18,Male,Yes,Mandarin,D,23,0,16,0,0.0,0.0,1.0,1047.74,1.0,22.0,0.0,1.03608,0.809883
Asian,6,Right,18,Male,Yes,Mandarin,D,24,0,0,16,0.0,0.0,1.0,1032.06,1.0,23.0,0.0,1.17895,0.850071
Asian,6,Right,18,Male,Yes,Mandarin,D,25,1,0,0,0.0,0.0,1.0,500.618,1.0,24.0,0.0,1.10565,0.913021
Asian,6,Right,18,Male,Yes,Mandarin,D,26,1,4,8,0.0,0.0,1.0,578.326,1.0,25.0,0.0,1.11267,0.808336
Asian,6,Right,18,Male,Yes,Mandarin,D,27,1,16,16,0.0,0.0,1.0,839.961,1.0,26.0,0.0,1.15029,0.907222
Asian,6,Right,18,Male,Yes,Mandarin,D,28,1,16,8,180.0,1.0,1.0,561.355,1.0,27.0,0.0,1.18683,0.899115
Asian,6,Right,18,Male,Yes,Mandarin,D,29,0,8,4,0.0,0.0,1.0,753.072,1.0,28.0,0.0,1.15725,0.833427
Asian,6,Right,18,Male,Yes,Mandarin,D,30,1,4,4,180.0,1.0,1.0,835.293,1.0,29.0,0.0,1.03697,0.981445
Asian,6,Right,18,Male,Yes,Mandarin,D,31,1,4,16,0.0,0.0,1.0,681.3,1.0,30.0,0.0,1.18118,0.851937
Asian,6,Right,18,Male,Yes,Mandarin,D,32,1,8,16,0.0,0.0,1.0,769.145,1.0,31.0,0.0,1.15528,0.942717
Asian,6,Right,18,Male,Yes,Mandarin,D,33,0,16,8,180.0,1.0,1.0,621.946,1.0,32.0,1.0,1.02811,0.831771
Asian,6,Right,18,Male,Yes,Mandarin,D,34,0,16,16,180.0,1.0,1.0,1102.37,1.0,33.0,1.0,1.02396,0.927556
Asian,6,Right,18,Male,Yes,Mandarin,D,35,0,4,16,0.0,1.0,0.0,551.91,1.0,34.0,1.0,1.12922,0.871089
Asian,6,Right,18,Male,Yes,Mandarin,D,36,1,16,0,180.0,1.0,1.0,911.7,1.0,35.0,1.0,1.13195,0.883094
Asian,6,Right,18,Male,Yes,Mandarin,D,37,0,0,4,0.0,0.0,1.0,636.545,1.0,36.0,1.0,1.03683,0.836507
Asian,6,Right,18,Male,Yes,Mandarin,D,38,1,4,16,0.0,0.0,1.0,1523.24,1.0,37.0,1.0,1.12718,0.938644
Asian,6,Right,18,Male,Yes,Mandarin,D,39,0,4,8,180.0,1.0,1.0,989.194,1.0,38.0,1.0,1.13588,0.893335
Asian,6,Right,18,Male,Yes,Mandarin,D,40,1,0,4,180.0,1.0,1.0,794.352,1.0,39.0,1.0,1.10808,0.971949
Asian,6,Right,18,Male,Yes,Mandarin,D,41,1,4,4,0.0,0.0,1.0,840.135,1.0,40.0,1.0,1.16186,0.864975
Asian,6,Right,18,Male,Yes,Mandarin,D,42,0,8,4,0.0,0.0,1.0,565.261,1.0,41.0,1.0,1.16858,0.940848
Asian,6,Right,18,Male,Yes,Mandarin,D,43,1,4,8,180.0,1.0,1.0,1170.04,1.0,42.0,1.0,1.01821,0.985327
Asian,6,Right,18,Male,Yes,Mandarin,D,44,0,16,0,180.0,1.0,1.0,545.118,1.0,43.0,1.0,1.11326,0.844237
Asian,6,Right,18,Male,Yes,Mandarin,D,45,0,8,8,0.0,0.0,1.0,1053.99,1.0,44.0,1.0,1.17064,0.922435
Asian,6,Right,18,Male,Yes,Mandarin,D,46,1,8,16,180.0,1.0,1.0,1800.98,1.0,45.0,1.0,1.05515,0.947249
Asian,6,Right,18,Male,Yes,Mandarin,D,47,1,8,4,180.0,1.0,1.0,638.825,1.0,46.0,1.0,1.17418,0.866997
Asian,6,Right,18,Male,Yes,Mandarin,D,48,0,0,8,180.0,1.0,1.0,1056.49,1.0,47.0,1.0,1.077,0.856689
Asian,6,Right,18,Male,Yes,Mandarin,D,49,0,16,4,0.0,0.0,1.0,1573.41,1.0,48.0,1.0,1.18315,0.888291
Asian,6,Right,18,Male,Yes,Mandarin,D,50,1,0,0,0.0,0.0,1.0,740.105,1.0,49.0,1.0,1.005,0.905213
Asian,6,Right,18,Male,Yes,Mandarin,D,51,1,4,0,0.0,0.0,1.0,499.594,1.0,50.0,1.0,1.01581,0.816468
Asian,6,Right,18,Male,Yes,Mandarin,D,52,1,0,8,0.0,0.0,1.0,1029.65,1.0,51.0,1.0,1.1746,0.826637
Asian,6,Right,18,Male,Yes,Mandarin,D,53,0,8,0,0.0,0.0,1.0,1083.99,1.0,52.0,1.0,1.18889,0.954298
Asian,6,Right,18,Male,Yes,Mandarin,D,54,1,16,4,0.0,0.0,1.0,1113.24,1.0,53.0,1.0,1.03136,0.861128
Asian,6,Right,18,Male,Yes,Mandarin,D,55,0,4,0,180.0,1.0,1.0,788.883,1.0,54.0,1.0,1.02223,0.928659
Asian,6,Right,18,Male,Yes,Mandarin,D,56,0,8,16,180.0,1.0,1.0,1523.66,1.0,55.0,1.0,1.16456,0.936452
Asian,6,Right,18,Male,Yes,Mandarin,D,57,1,16,16,180.0,1.0,1.0,701.155,1.0,56.0,1.0,1.15004,0.804924
Asian,6,Right,18,Male,Yes,Mandarin,D,58,1,8,8,180.0,1.0,1.0,892.192,1.0,57.0,1.0,1.07768,0.939571
Asian,6,Right,18,Male,Yes,Mandarin,D,59,0,0,16,0.0,0.0,1.0,782.768,1.0,58.0,1.0,1.08968,0.937204
Asian,6,Right,18,Male,Yes,Mandarin,D,60,0,4,4,0.0,0.0,1.0,699.157,1.0,59.0,1.0,1.01762,0.832053
Asian,6,Right,18,Male,Yes,Mandarin,D,61,0,0,0,0.0,0.0,1.0,731.533,1.0,60.0,1.0,1.06867,0.945535
Asian,6,Right,18,Male,Yes,Mandarin,D,62,1,0,16,0.0,0.0,1.0,800.266,1.0,61.0,1.0,1.02852,0.821611
Asian,6,Right,18,Male,Yes,Mandarin,D,63,1,8,0,180.0,1.0,1.0,723.314,1.0,62.0,1.0,1.05358,0.900019
Asian,6,Right,18,Male,Yes,Mandarin,D,64,1,16,8,180.0,1.0,1.0,744.35,1.0,63.0,1.0,1.03335,0.947482
Asian,6,Right,18,Male,Yes,Mandarin,D,65,1,16,16,0.0,0.0,1.0,594.896,1.0,64.0,2.0,1.02666,0.92289
Asian,6,Right,18,Male,Yes,Mandarin,D,66,0,16,8,180.0,1.0,1.0,702.981,1.0,65.0,2.0,1.19772,0.894566
Asian,6,Right,18,Male,Yes,Mandarin,D,67,0,4,8,180.0,1.0,1.0,663.805,1.0,66.0,2.0,1.12879,0.883022
Asian,6,Right,18,Male,Yes,Mandarin,D,68,0,4,16,180.0,1.0,1.0,713.77,1.0,67.0,2.0,1.00783,0.919602
Asian,6,Right,18,Male,Yes,Mandarin,D,69,0,0,4,0.0,0.0,1.0,865.341,1.0,68.0,2.0,1.0868,0.842153
Asian,6,Right,18,Male,Yes,Mandarin,D,70,1,0,16,180.0,1.0,1.0,888.153,1.0,69.0,2.0,1.07037,0.967595
Asian,6,Right,18,Male,Yes,Mandarin,D,71,1,4,4,0.0,0.0,1.0,1270.22,1.0,70.0,2.0,1.05699,0.924868
Asian,6,Right,18,Male,Yes,Mandarin,D,72,1,0,4,180.0,1.0,1.0,682.652,1.0,71.0,2.0,1.13942,0.93324
Asian,6,Right,18,Male,Yes,Mandarin,D,73,0,16,0,180.0,1.0,1.0,723.601,1.0,72.0,2.0,1.18227,0.803863
Asian,6,Right,18,Male,Yes,Mandarin,D,74,1,8,16,0.0,0.0,1.0,973.449,1.0,73.0,2.0,1.19412,0.801923
Asian,6,Right,18,Male,Yes,Mandarin,D,75,1,4,8,0.0,0.0,1.0,1262.39,1.0,74.0,2.0,1.0524,0.873976
Asian,6,Right,18,Male,Yes,Mandarin,D,76,0,0,8,180.0,1.0,1.0,509.546,1.0,75.0,2.0,1.11214,0.977123
Asian,6,Right,18,Male,Yes,Mandarin,D,77,1,0,8,0.0,0.0,1.0,853.059,1.0,76.0,2.0,1.09293,0.892417
Asian,6,Right,18,Male,Yes,Mandarin,D,78,1,0,0,180.0,1.0,1.0,591.948,1.0,77.0,2.0,1.11978,0.943662
Asian,6,Right,18,Male,Yes,Mandarin,D,79,0,0,0,180.0,1.0,1.0,601.141,1.0,78.0,2.0,1.12915,0.890271
Asian,6,Right,18,Male,Yes,Mandarin,D,80,0,16,4,0.0,0.0,1.0,862.998,1.0,79.0,2.0,1.08084,0.91058
Asian,6,Right,18,Male,Yes,Mandarin,D,81,1,16,4,180.0,1.0,1.0,1090.07,1.0,80.0,2.0,1.05072,0.804513
Asian,6,Right,18,Male,Yes,Mandarin,D,82,0,8,4,0.0,0.0,1.0,650.311,1.0,81.0,2.0,1.02411,0.906061
Asian,6,Right,18,Male,Yes,Mandarin,D,83,1,4,0,180.0,1.0,1.0,729.048,1.0,82.0,2.0,1.05929,0.889922
Asian,6,Right,18,Male,Yes,Mandarin,D,84,0,4,0,180.0,1.0,1.0,766.306,1.0,83.0,2.0,1.02354,0.954517
Asian,6,Right,18,Male,Yes,Mandarin,D,85,0,8,8,0.0,0.0,1.0,1147.6,1.0,84.0,2.0,1.12342,0.951251
Asian,6,Right,18,Male,Yes,Mandarin,D,86,0,16,16,180.0,1.0,1.0,878.47,1.0,85.0,2.0,1.05469,0.947802
Asian,6,Right,18,Male,Yes,Mandarin,D,87,1,4,16,180.0,1.0,1.0,897.729,1.0,86.0,2.0,1.18583,0.911152
Asian,6,Right,18,Male,Yes,Mandarin,D,88,1,16,8,0.0,0.0,1.0,2165.11,1.0,87.0,2.0,1.19595,0.961572
Asian,6,Right,18,Male,Yes,Mandarin,D,89,1,16,0,0.0,0.0,1.0,800.603,1.0,88.0,2.0,1.14835,0.89437
Asian,6,Right,18,Male,Yes,Mandarin,D,90,0,8,0,180.0,1.0,1.0,905.74,1.0,89.0,2.0,1.05741,0.887639
Asian,6,Right,18,Male,Yes,Mandarin,D,91,0,4,4,0.0,0.0,1.0,697.135,1.0,90.0,2.0,1.09607,0.885968
Asian,6,Right,18,Male,Yes,Mandarin,D,92,0,8,16,180.0,1.0,1.0,1076.31,1.0,91.0,2.0,1.08714,0.822585
Asian,6,Right,18,Male,Yes,Mandarin,D,93,1,8,4,0.0,0.0,1.0,1428.25,1.0,92.0,2.0,1.02308,0.810168
Asian,6,Right,18,Male,Yes,Mandarin,D,94,0,0,16,0.0,0.0,1.0,504.476,1.0,93.0,2.0,1.15946,0.835597
Asian,6,Right,18,Male,Yes,Mandarin,D,95,1,8,0,0.0,0.0,1.0,878.538,1.0,94.0,2.0,1.17593,0.871188
Asian,6,Right,18,Male,Yes,Mandarin,D,96,1,8,8,0.0,0.0,1.0,1134.85,1.0,95.0,2.0,1.15689,0.84129
Asian,6,Right,18,Male,Yes,Mandarin,D,97,1,8,0,0.0,0.0,1.0,730.331,1.0,96.0,3.0,1.18966,0.851244
Asian,6,Right,18,Male,Yes,Mandarin,D,98,1,8,8,180.0,1.0,1.0,1151.28,1.0,97.0,3.0,1.04309,0.856703
Asian,6,Right,18,Male,Yes,Mandarin,D,99,0,4,0,180.0,1.0,1.0,871.335,1.0,98.0,3.0,1.17718,0.938384
Asian,6,Right,18,Male,Yes,Mandarin,D,100,0,16,0,0.0,0.0,1.0,1111.9,1.0,99.0,3.0,1.10666,0.905259
Asian,6,Right,18,Male,Yes,Mandarin,D,101,0,8,0,0.0,0.0,1.0,1021.31,1.0,100.0,3.0,1.05726,0.987182
Asian,6,Right,18,Male,Yes,Mandarin,D,102,0,16,4,180.0,1.0,1.0,747.516,1.0,101.0,3.0,1.19531,0.929575
Asian,6,Right,18,Male,Yes,Mandarin,D,103,1,4,4,180.0,1.0,1.0,876.434,1.0,102.0,3.0,1.03435,0.892746
Asian,6,Right,18,Male,Yes,Mandarin,D,104,0,0,8,0.0,0.0,1.0,2079.05,1.0,103.0,3.0,1.15596,0.995048
Asian,6,Right,18,Male,Yes,Mandarin,D,105,0,0,16,180.0,1.0,1.0,1052.74,1.0,104.0,3.0,1.01338,0.981206
Asian,6,Right,18,Male,Yes,Mandarin,D,106,1,4,8,180.0,1.0,1.0,631.503,1.0,105.0,3.0,1.02335,0.902077
Asian,6,Right,18,Male,Yes,Mandarin,D,107,1,0,8,180.0,1.0,1.0,548.648,1.0,106.0,3.0,1.11677,0.989425
Asian,6,Right,18,Male,Yes,Mandarin,D,108,1,0,0,0.0,0.0,1.0,702.072,1.0,107.0,3.0,1.17822,0.992125
Asian,6,Right,18,Male,Yes,Mandarin,D,109,1,16,0,0.0,0.0,1.0,834.073,1.0,108.0,3.0,1.17395,0.800768
Asian,6,Right,18,Male,Yes,Mandarin,D,110,0,16,16,180.0,1.0,1.0,1452.9,1.0,109.0,3.0,1.06283,0.957329
Asian,6,Right,18,Male,Yes,Mandarin,D,111,0,4,8,0.0,0.0,1.0,1132.07,1.0,110.0,3.0,1.05763,0.826951
Asian,6,Right,18,Male,Yes,Mandarin,D,112,0,8,8,180.0,1.0,1.0,743.948,1.0,111.0,3.0,1.05834,0.839815
Asian,6,Right,18,Male,Yes,Mandarin,D,113,0,8,4,180.0,1.0,1.0,979.912,1.0,112.0,3.0,1.02459,0.873429
Asian,6,Right,18,Male,Yes,Mandarin,D,114,1,8,4,180.0,1.0,1.0,779.869,1.0,113.0,3.0,1.02548,0.977803
Asian,6,Right,18,Male,Yes,Mandarin,D,115,1,16,16,0.0,0.0,1.0,1156.71,1.0,114.0,3.0,1.03117,0.803964
Asian,6,Right,18,Male,Yes,Mandarin,D,116,1,0,16,0.0,0.0,1.0,763.416,1.0,115.0,3.0,1.17067,0.876909
Asian,6,Right,18,Male,Yes,Mandarin,D,117,1,4,16,0.0,0.0,1.0,1042.51,1.0,116.0,3.0,1.14725,0.889213
Asian,6,Right,18,Male,Yes,Mandarin,D,118,0,4,16,0.0,0.0,1.0,804.808,1.0,117.0,3.0,1.16461,0.941107
Asian,6,Right,18,Male,Yes,Mandarin,D,119,0,0,4,0.0,0.0,1.0,789.385,1.0,118.0,3.0,1.18746,0.832487
Asian,6,Right,18,Male,Yes,Mandarin,D,120,1,16,8,0.0,0.0,1.0,1762.12,1.0,119.0,3.0,1.0312,0.96317
Asian,6,Right,18,Male,Yes,Mandarin,D,121,1,0,4,180.0,1.0,1.0,800.809,1.0,120.0,3.0,1.01888,0.82161
Asian,6,Right,18,Male,Yes,Mandarin,D,122,1,8,16,180.0,1.0,1.0,930.942,1.0,121.0,3.0,1.00971,0.851204
Asian,6,Right,18,Male,Yes,Mandarin,D,123,1,16,4,0.0,0.0,1.0,1340.43,1.0,122.0,3.0,1.10271,0.861438
Asian,6,Right,18,Male,Yes,Mandarin,D,124,0,0,0,180.0,1.0,1.0,704.355,1.0,123.0,3.0,1.02057,0.989313
Asian,6,Right,18,Male,Yes,Mandarin,D,125,0,4,4,0.0,0.0,1.0,862.512,1.0,124.0,3.0,1.03534,0.968829
Asian,6,Right,18,Male,Yes,Mandarin,D,126,0,16,8,0.0,0.0,1.0,1034.58,1.0,125.0,3.0,1.06758,0.964651
Asian,6,Right,18,Male,Yes,Mandarin,D,127,1,4,0,180.0,1.0,1.0,612.078,1.0,126.0,3.0,1.19621,0.901404
Asian,6,Right,18,Male,Yes,Mandarin,D,128,0,8,16,180.0,1.0,1.0,691.52,1.0,127.0,3.0,1.19017,0.98339
Asian,6,Right,18,Male,Yes,Mandarin,D,129,1,8,0,180.0,1.0,1.0,751.208,1.0,128.0,4.0,1.01792,0.979835
Asian,6,Right,18,Male,Yes,Mandarin,D,130,0,4,4,0.0,0.0,1.0,1072.56,1.0,129.0,4.0,1.06005,0.885071
Asian,6,Right,18,Male,Yes,Mandarin,D,131,0,0,0,180.0,1.0,1.0,795.813,1.0,130.0,4.0,1.14332,0.859911
Asian,6,Right,18,Male,Yes,Mandarin,D,132,1,16,4,0.0,0.0,1.0,1175.04,1.0,131.0,4.0,1.13456,0.852426
Asian,6,Right,18,Male,Yes,Mandarin,D,133,1,0,16,180.0,1.0,1.0,1053.32,1.0,132.0,4.0,1.17209,0.833382
Asian,6,Right,18,Male,Yes,Mandarin,D,134,1,0,0,0.0,0.0,1.0,656.158,1.0,133.0,4.0,1.16246,0.862577
Asian,6,Right,18,Male,Yes,Mandarin,D,135,1,4,0,180.0,1.0,1.0,918.701,1.0,134.0,4.0,1.02063,0.946736
Asian,6,Right,18,Male,Yes,Mandarin,D,136,0,0,4,0.0,0.0,1.0,665.528,1.0,135.0,4.0,1.10526,0.984189
Asian,6,Right,18,Male,Yes,Mandarin,D,137,1,16,0,180.0,1.0,1.0,1513.16,1.0,136.0,4.0,1.15954,0.885158
Asian,6,Right,18,Male,Yes,Mandarin,D,138,1,8,4,0.0,0.0,1.0,915.951,1.0,137.0,4.0,1.12154,0.899523
Asian,6,Right,18,Male,Yes,Mandarin,D,139,0,4,16,180.0,1.0,1.0,1053.35,1.0,138.0,4.0,1.10208,0.942353
Asian,6,Right,18,Male,Yes,Mandarin,D,140,0,8,4,180.0,1.0,1.0,800.027,1.0,139.0,4.0,1.18496,0.960076
Asian,6,Right,18,Male,Yes,Mandarin,D,141,0,16,4,180.0,1.0,1.0,1416.03,1.0,140.0,4.0,1.07212,0.941572
Asian,6,Right,18,Male,Yes,Mandarin,D,142,1,4,16,180.0,1.0,1.0,682.691,1.0,141.0,4.0,1.0183,0.852835
Asian,6,Right,18,Male,Yes,Mandarin,D,143,0,4,0,0.0,0.0,1.0,782.213,1.0,142.0,4.0,1.07082,0.967483
Asian,6,Right,18,Male,Yes,Mandarin,D,144,1,0,4,180.0,1.0,1.0,818.051,1.0,143.0,4.0,1.09989,0.824686
Asian,6,Right,18,Male,Yes,Mandarin,D,145,0,16,0,0.0,0.0,1.0,1398.6,1.0,144.0,4.0,1.05315,0.942047
Asian,6,Right,18,Male,Yes,Mandarin,D,146,0,0,16,0.0,0.0,1.0,1527.05,1.0,145.0,4.0,1.09758,0.901661
Asian,6,Right,18,Male,Yes,Mandarin,D,147,0,16,8,0.0,0.0,1.0,1280.91,1.0,146.0,4.0,1.07414,0.833931
Asian,6,Right,18,Male,Yes,Mandarin,D,148,0,4,8,0.0,0.0,1.0,992.619,1.0,147.0,4.0,1.14277,0.903336
Asian,6,Right,18,Male,Yes,Mandarin,D,149,0,0,8,0.0,0.0,1.0,864.057,1.0,148.0,4.0,1.11123,0.918375
Asian,6,Right,18,Male,Yes,Mandarin,D,150,0,8,8,0.0,0.0,1.0,978.813,1.0,149.0,4.0,1.16018,0.999171
Asian,6,Right,18,Male,Yes,Mandarin,D,151,1,16,8,0.0,0.0,1.0,769.907,1.0,150.0,4.0,1.12061,0.939793
Asian,6,Right,18,Male,Yes,Mandarin,D,152,1,16,16,180.0,1.0,1.0,995.111,1.0,151.0,4.0,1.06605,0.993627
Asian,6,Right,18,Male,Yes,Mandarin,D,153,1,8,8,0.0,0.0,1.0,729.856,1.0,152.0,4.0,1.08208,0.855594
Asian,6,Right,18,Male,Yes,Mandarin,D,154,0,8,0,0.0,0.0,1.0,719.943,1.0,153.0,4.0,1.10713,0.922134
Asian,6,Right,18,Male,Yes,Mandarin,D,155,1,4,4,180.0,1.0,1.0,1162.05,1.0,154.0,4.0,1.17289,0.959766
Asian,6,Right,18,Male,Yes,Mandarin,D,156,0,16,16,180.0,1.0,1.0,941.567,1.0,155.0,4.0,1.00387,0.843368
Asian,6,Right,18,Male,Yes,Mandarin,D,157,1,8,16,180.0,1.0,1.0,803.636,1.0,156.0,4.0,1.13219,0.921683
Asian,6,Right,18,Male,Yes,Mandarin,D,158,0,8,16,180.0,1.0,1.0,1109.05,1.0,157.0,4.0,1.13145,0.854235
Asian,6,Right,18,Male,Yes,Mandarin,D,159,1,4,8,0.0,0.0,1.0,1294.58,1.0,158.0,4.0,1.06014,0.807343
Asian,6,Right,18,Male,Yes,Mandarin,D,160,1,0,8,180.0,1.0,1.0,551.996,1.0,159.0,4.0,1.11046,0.891725
Asian,6,Right,18,Male,Yes,Mandarin,D,161,0,8,8,180.0,1.0,1.0,1841.46,1.0,160.0,5.0,1.07567,0.932864
Asian,6,Right,18,Male,Yes,Mandarin,D,162,1,4,4,180.0,1.0,1.0,1318.69,1.0,161.0,5.0,1.11747,0.835606
Asian,6,Right,18,Male,Yes,Mandarin,D,163,1,4,16,0.0,0.0,1.0,872.224,1.0,162.0,5.0,1.10803,0.958402
Asian,6,Right,18,Male,Yes,Mandarin,D,164,1,0,16,0.0,0.0,1.0,661.801,1.0,163.0,5.0,1.03858,0.97766
Asian,6,Right,18,Male,Yes,Mandarin,D,165,0,16,16,180.0,1.0,1.0,982.982,1.0,164.0,5.0,1.05239,0.868522
Asian,6,Right,18,Male,Yes,Mandarin,D,166,0,16,0,0.0,0.0,1.0,1014.43,1.0,165.0,5.0,1.01142,0.821325
Asian,6,Right,18,Male,Yes,Mandarin,D,167,1,8,0,0.0,0.0,1.0,954.921,1.0,166.0,5.0,1.00804,0.981517
Asian,6,Right,18,Male,Yes,Mandarin,D,168,0,8,0,180.0,1.0,1.0,1516.86,1.0,167.0,5.0,1.19707,0.823695
Asian,6,Right,18,Male,Yes,Mandarin,D,169,1,16,0,0.0,0.0,1.0,798.063,1.0,168.0,5.0,1.15615,0.880233
Asian,6,Right,18,Male,Yes,Mandarin,D,170,1,8,16,0.0,0.0,1.0,1160.33,1.0,169.0,5.0,1.11088,0.818197
Asian,6,Right,18,Male,Yes,Mandarin,D,171,0,4,8,180.0,1.0,1.0,1182.81,1.0,170.0,5.0,1.13897,0.988155
Asian,6,Right,18,Male,Yes,Mandarin,D,172,0,16,8,0.0,0.0,1.0,1539.24,1.0,171.0,5.0,1.06431,0.826105
Asian,6,Right,18,Male,Yes,Mandarin,D,173,0,4,0,180.0,1.0,1.0,1018.34,1.0,172.0,5.0,1.06224,0.930377
Asian,6,Right,18,Male,Yes,Mandarin,D,174,1,4,0,180.0,1.0,1.0,692.783,1.0,173.0,5.0,1.11109,0.887395
Asian,6,Right,18,Male,Yes,Mandarin,D,175,1,0,8,180.0,1.0,1.0,535.036,1.0,174.0,5.0,1.11927,0.83235
Asian,6,Right,18,Male,Yes,Mandarin,D,176,1,16,4,0.0,0.0,1.0,844.505,1.0,175.0,5.0,1.03176,0.946528
Asian,6,Right,18,Male,Yes,Mandarin,D,177,1,0,4,180.0,1.0,1.0,917.697,1.0,176.0,5.0,1.14399,0.966954
Asian,6,Right,18,Male,Yes,Mandarin,D,178,0,4,16,180.0,1.0,1.0,833.375,1.0,177.0,5.0,1.02086,0.947023
Asian,6,Right,18,Male,Yes,Mandarin,D,179,1,16,8,180.0,1.0,1.0,778.4,1.0,178.0,5.0,1.04365,0.913228
Asian,6,Right,18,Male,Yes,Mandarin,D,180,0,4,4,0.0,0.0,1.0,673.922,1.0,179.0,5.0,1.12415,0.936832
Asian,6,Right,18,Male,Yes,Mandarin,D,181,0,0,0,180.0,1.0,1.0,903.093,1.0,180.0,5.0,1.13957,0.807133
Asian,6,Right,18,Male,Yes,Mandarin,D,182,0,8,4,0.0,0.0,1.0,926.089,1.0,181.0,5.0,1.01568,0.93372
Asian,6,Right,18,Male,Yes,Mandarin,D,183,1,8,4,180.0,1.0,1.0,833.129,1.0,182.0,5.0,1.19675,0.994904
Asian,6,Right,18,Male,Yes,Mandarin,D,184,1,0,0,0.0,0.0,1.0,614.2,1.0,183.0,5.0,1.09524,0.950823
Asian,6,Right,18,Male,Yes,Mandarin,D,185,1,16,16,0.0,0.0,1.0,955.707,1.0,184.0,5.0,1.02398,0.975346
Asian,6,Right,18,Male,Yes,Mandarin,D,186,0,8,16,180.0,1.0,1.0,1107.57,1.0,185.0,5.0,1.0688,0.916878
Asian,6,Right,18,Male,Yes,Mandarin,D,187,1,8,8,180.0,9999.0,0.0,9999.0,1.0,186.0,5.0,1.06659,0.993458
Asian,6,Right,18,Male,Yes,Mandarin,D,188,0,0,4,0.0,0.0,1.0,654.262,1.0,187.0,5.0,1.00547,0.91689
Asian,6,Right,18,Male,Yes,Mandarin,D,189,0,16,4,180.0,1.0,1.0,728.303,1.0,188.0,5.0,1.18637,0.880415
Asian,6,Right,18,Male,Yes,Mandarin,D,190,1,4,8,0.0,0.0,1.0,1046.21,1.0,189.0,5.0,1.19843,0.918568
Asian,6,Right,18,Male,Yes,Mandarin,D,191,0,0,8,0.0,0.0,1.0,1334.47,1.0,190.0,5.0,1.19913,0.988965
Asian,6,Right,18,Male,Yes,Mandarin,D,192,0,0,16,0.0,0.0,1.0,868.198,1.0,191.0,5.0,1.08575,0.828469
Asian,6,Right,18,Male,Yes,Mandarin,D,193,1,8,4,0.0,0.0,1.0,741.241,1.0,192.0,6.0,1.18384,0.816733
Asian,6,Right,18,Male,Yes,Mandarin,D,194,1,4,8,0.0,0.0,1.0,802.163,1.0,193.0,6.0,1.02656,0.975729
Asian,6,Right,18,Male,Yes,Mandarin,D,195,0,0,8,180.0,1.0,1.0,699.964,1.0,194.0,6.0,1.1275,0.890121
Asian,6,Right,18,Male,Yes,Mandarin,D,196,1,8,16,180.0,1.0,1.0,956.055,1.0,195.0,6.0,1.16352,0.854311
Asian,6,Right,18,Male,Yes,Mandarin,D,197,0,8,8,0.0,0.0,1.0,817.959,1.0,196.0,6.0,1.06045,0.801882
Asian,6,Right,18,Male,Yes,Mandarin,D,198,0,8,4,0.0,0.0,1.0,1261.68,1.0,197.0,6.0,1.13529,0.84695
Asian,6,Right,18,Male,Yes,Mandarin,D,199,0,16,16,0.0,0.0,1.0,1075.94,1.0,198.0,6.0,1.07272,0.85322
Asian,6,Right,18,Male,Yes,Mandarin,D,200,1,0,4,0.0,0.0,1.0,830.797,1.0,199.0,6.0,1.01233,0.907913
Asian,6,Right,18,Male,Yes,Mandarin,D,201,1,0,0,0.0,0.0,1.0,502.067,1.0,200.0,6.0,1.12292,0.912964
Asian,6,Right,18,Male,Yes,Mandarin,D,202,0,4,0,180.0,1.0,1.0,747.183,1.0,201.0,6.0,1.14536,0.822466
Asian,6,Right,18,Male,Yes,Mandarin,D,203,1,8,0,180.0,1.0,1.0,706.653,1.0,202.0,6.0,1.06263,0.963256
Asian,6,Right,18,Male,Yes,Mandarin,D,204,1,16,16,180.0,1.0,1.0,1311.47,1.0,203.0,6.0,1.04392,0.882682
Asian,6,Right,18,Male,Yes,Mandarin,D,205,1,8,8,180.0,1.0,1.0,715.41,1.0,204.0,6.0,1.04104,0.926666
Asian,6,Right,18,Male,Yes,Mandarin,D,206,1,16,8,180.0,1.0,1.0,791.557,1.0,205.0,6.0,1.03846,0.908835
Asian,6,Right,18,Male,Yes,Mandarin,D,207,1,4,16,180.0,1.0,1.0,882.192,1.0,206.0,6.0,1.14283,0.977813
Asian,6,Right,18,Male,Yes,Mandarin,D,208,0,0,0,180.0,1.0,1.0,859.032,1.0,207.0,6.0,1.15389,0.895733
Asian,6,Right,18,Male,Yes,Mandarin,D,209,1,16,0,0.0,0.0,1.0,925.592,1.0,208.0,6.0,1.15428,0.942465
Asian,6,Right,18,Male,Yes,Mandarin,D,210,0,0,4,0.0,0.0,1.0,827.69,1.0,209.0,6.0,1.11232,0.808169
Asian,6,Right,18,Male,Yes,Mandarin,D,211,0,16,4,180.0,1.0,1.0,1306.92,1.0,210.0,6.0,1.00619,0.849838
Asian,6,Right,18,Male,Yes,Mandarin,D,212,0,0,16,0.0,0.0,1.0,844.783,1.0,211.0,6.0,1.1593,0.956542
Asian,6,Right,18,Male,Yes,Mandarin,D,213,0,4,8,180.0,1.0,1.0,915.736,1.0,212.0,6.0,1.05891,0.96938
Asian,6,Right,18,Male,Yes,Mandarin,D,214,1,0,8,0.0,0.0,1.0,796.271,1.0,213.0,6.0,1.13218,0.872867
Asian,6,Right,18,Male,Yes,Mandarin,D,215,1,4,4,0.0,0.0,1.0,593.105,1.0,214.0,6.0,1.15049,0.956288
Asian,6,Right,18,Male,Yes,Mandarin,D,216,1,0,16,180.0,1.0,1.0,787.124,1.0,215.0,6.0,1.04588,0.95265
Asian,6,Right,18,Male,Yes,Mandarin,D,217,0,4,4,180.0,1.0,1.0,771.101,1.0,216.0,6.0,1.00269,0.84712
Asian,6,Right,18,Male,Yes,Mandarin,D,218,0,16,8,0.0,0.0,1.0,961.438,1.0,217.0,6.0,1.07081,0.9698
Asian,6,Right,18,Male,Yes,Mandarin,D,219,0,8,0,0.0,0.0,1.0,723.3,1.0,218.0,6.0,1.08826,0.984082
Asian,6,Right,18,Male,Yes,Mandarin,D,220,1,4,0,0.0,0.0,1.0,803.817,1.0,219.0,6.0,1.08034,0.957287
Asian,6,Right,18,Male,Yes,Mandarin,D,221,0,4,16,180.0,1.0,1.0,609.678,1.0,220.0,6.0,1.18534,0.917606
Asian,6,Right,18,Male,Yes,Mandarin,D,222,0,16,0,0.0,0.0,1.0,1138.92,1.0,221.0,6.0,1.05914,0.930125
Asian,6,Right,18,Male,Yes,Mandarin,D,223,1,16,4,180.0,1.0,1.0,724.917,1.0,222.0,6.0,1.0913,0.918533
Asian,6,Right,18,Male,Yes,Mandarin,D,224,0,8,16,180.0,1.0,1.0,707.136,1.0,223.0,6.0,1.19912,0.965597
Asian,6,Right,18,Male,Yes,Mandarin,D,225,1,8,8,0.0,0.0,1.0,1167.06,1.0,224.0,7.0,1.102,0.91023
Asian,6,Right,18,Male,Yes,Mandarin,D,226,0,8,16,180.0,1.0,1.0,624.618,1.0,225.0,7.0,1.02184,0.869119
Asian,6,Right,18,Male,Yes,Mandarin,D,227,0,4,8,0.0,0.0,1.0,557.949,1.0,226.0,7.0,1.10377,0.855044
Asian,6,Right,18,Male,Yes,Mandarin,D,228,0,16,0,180.0,1.0,1.0,984.87,1.0,227.0,7.0,1.11163,0.818002
Asian,6,Right,18,Male,Yes,Mandarin,D,229,0,4,16,180.0,1.0,1.0,798.475,1.0,228.0,7.0,1.10221,0.973364
Asian,6,Right,18,Male,Yes,Mandarin,D,230,0,16,4,180.0,1.0,1.0,1546.37,1.0,229.0,7.0,1.03359,0.973671
Asian,6,Right,18,Male,Yes,Mandarin,D,231,1,0,16,0.0,0.0,1.0,839.532,1.0,230.0,7.0,1.14321,0.864923
Asian,6,Right,18,Male,Yes,Mandarin,D,232,1,16,16,0.0,0.0,1.0,1168.9,1.0,231.0,7.0,1.19185,0.845433
Asian,6,Right,18,Male,Yes,Mandarin,D,233,1,4,16,0.0,0.0,1.0,855.536,1.0,232.0,7.0,1.08901,0.953466
Asian,6,Right,18,Male,Yes,Mandarin,D,234,0,16,8,180.0,1.0,1.0,951.648,1.0,233.0,7.0,1.07027,0.939385
Asian,6,Right,18,Male,Yes,Mandarin,D,235,0,0,0,180.0,1.0,1.0,678.491,1.0,234.0,7.0,1.10847,0.901407
Asian,6,Right,18,Male,Yes,Mandarin,D,236,1,4,8,180.0,1.0,1.0,1400.66,1.0,235.0,7.0,1.08493,0.861391
Asian,6,Right,18,Male,Yes,Mandarin,D,237,0,8,4,180.0,1.0,1.0,696.585,1.0,236.0,7.0,1.05193,0.990564
Asian,6,Right,18,Male,Yes,Mandarin,D,238,1,8,16,180.0,1.0,1.0,590.051,1.0,237.0,7.0,1.04395,0.946234
Asian,6,Right,18,Male,Yes,Mandarin,D,239,1,16,8,0.0,0.0,1.0,1635.68,1.0,238.0,7.0,1.01301,0.859417
Asian,6,Right,18,Male,Yes,Mandarin,D,240,1,0,8,0.0,0.0,1.0,580.657,1.0,239.0,7.0,1.09407,0.973236
Asian,6,Right,18,Male,Yes,Mandarin,D,241,1,8,0,0.0,0.0,1.0,1081.26,1.0,240.0,7.0,1.04415,0.838932
Asian,6,Right,18,Male,Yes,Mandarin,D,242,1,0,0,180.0,1.0,1.0,992.503,1.0,241.0,7.0,1.10244,0.825288
Asian,6,Right,18,Male,Yes,Mandarin,D,243,1,0,4,0.0,0.0,1.0,573.432,1.0,242.0,7.0,1.11712,0.942103
Asian,6,Right,18,Male,Yes,Mandarin,D,244,1,16,4,180.0,1.0,1.0,725.445,1.0,243.0,7.0,1.03388,0.894779
Asian,6,Right,18,Male,Yes,Mandarin,D,245,0,0,16,0.0,0.0,1.0,818.405,1.0,244.0,7.0,1.04927,0.826569
Asian,6,Right,18,Male,Yes,Mandarin,D,246,1,4,4,0.0,0.0,1.0,620.763,1.0,245.0,7.0,1.17991,0.88209
Asian,6,Right,18,Male,Yes,Mandarin,D,247,0,16,16,180.0,1.0,1.0,1251.67,1.0,246.0,7.0,1.16611,0.970368
Asian,6,Right,18,Male,Yes,Mandarin,D,248,0,8,8,180.0,1.0,1.0,687.067,1.0,247.0,7.0,1.00304,0.873603
Asian,6,Right,18,Male,Yes,Mandarin,D,249,1,4,0,0.0,0.0,1.0,760.887,1.0,248.0,7.0,1.1181,0.830638
Asian,6,Right,18,Male,Yes,Mandarin,D,250,1,8,4,180.0,1.0,1.0,1768.11,1.0,249.0,7.0,1.0965,0.911772
Asian,6,Right,18,Male,Yes,Mandarin,D,251,0,0,4,0.0,0.0,1.0,863.923,1.0,250.0,7.0,1.06355,0.816506
Asian,6,Right,18,Male,Yes,Mandarin,D,252,1,16,0,180.0,1.0,1.0,914.644,1.0,251.0,7.0,1.10715,0.988388
Asian,6,Right,18,Male,Yes,Mandarin,D,253,0,4,0,0.0,0.0,1.0,637.133,1.0,252.0,7.0,1.12515,0.896443
Asian,6,Right,18,Male,Yes,Mandarin,D,254,0,8,0,0.0,0.0,1.0,681.862,1.0,253.0,7.0,1.1584,0.909955
Asian,6,Right,18,Male,Yes,Mandarin,D,255,0,0,8,0.0,0.0,1.0,717.99,1.0,254.0,7.0,1.07222,0.851484
Asian,6,Right,18,Male,Yes,Mandarin,D,256,0,4,4,180.0,1.0,1.0,1097.33,1.0,255.0,7.0,1.04414,0.906948
Asian,6,Right,18,Male,Yes,Mandarin,D,257,0,16,16,0.0,0.0,1.0,866.927,1.0,256.0,8.0,1.03917,0.860421
Asian,6,Right,18,Male,Yes,Mandarin,D,258,1,16,4,0.0,0.0,1.0,1720.25,1.0,257.0,8.0,1.06351,0.83668
Asian,6,Right,18,Male,Yes,Mandarin,D,259,1,16,16,180.0,1.0,1.0,1804.38,1.0,258.0,8.0,1.106,0.839146
Asian,6,Right,18,Male,Yes,Mandarin,D,260,1,0,8,0.0,0.0,1.0,572.814,1.0,259.0,8.0,1.1168,0.986781
Asian,6,Right,18,Male,Yes,Mandarin,D,261,0,8,0,180.0,1.0,1.0,885.544,1.0,260.0,8.0,1.01883,0.930613
Asian,6,Right,18,Male,Yes,Mandarin,D,262,0,16,8,0.0,0.0,1.0,1603.13,1.0,261.0,8.0,1.18171,0.948313
Asian,6,Right,18,Male,Yes,Mandarin,D,263,0,0,0,180.0,1.0,1.0,748.051,1.0,262.0,8.0,1.0192,0.902503
Asian,6,Right,18,Male,Yes,Mandarin,D,264,0,8,4,0.0,0.0,1.0,1571.53,1.0,263.0,8.0,1.1159,0.941471
Asian,6,Right,18,Male,Yes,Mandarin,D,265,0,4,0,180.0,1.0,1.0,771.016,1.0,264.0,8.0,1.10107,0.837147
Asian,6,Right,18,Male,Yes,Mandarin,D,266,0,0,4,0.0,0.0,1.0,1312.27,1.0,265.0,8.0,1.00538,0.885154
Asian,6,Right,18,Male,Yes,Mandarin,D,267,0,4,8,180.0,1.0,1.0,911.153,1.0,266.0,8.0,1.08751,0.958999
Asian,6,Right,18,Male,Yes,Mandarin,D,268,1,8,4,0.0,0.0,1.0,806.018,1.0,267.0,8.0,1.10662,0.921265
Asian,6,Right,18,Male,Yes,Mandarin,D,269,1,4,4,180.0,1.0,1.0,1003.58,1.0,268.0,8.0,1.1169,0.848705
Asian,6,Right,18,Male,Yes,Mandarin,D,270,0,8,16,0.0,0.0,1.0,681.141,1.0,269.0,8.0,1.10377,0.875327
Asian,6,Right,18,Male,Yes,Mandarin,D,271,0,0,8,180.0,1.0,1.0,668.018,1.0,270.0,8.0,1.11619,0.937388
Asian,6,Right,18,Male,Yes,Mandarin,D,272,0,4,4,0.0,0.0,1.0,1217.44,1.0,271.0,8.0,1.13241,0.866263
Asian,6,Right,18,Male,Yes,Mandarin,D,273,1,8,0,180.0,1.0,1.0,675.388,1.0,272.0,8.0,1.0951,0.88255
Asian,6,Right,18,Male,Yes,Mandarin,D,274,1,0,16,0.0,0.0,1.0,884.629,1.0,273.0,8.0,1.15142,0.969732
Asian,6,Right,18,Male,Yes,Mandarin,D,275,0,16,0,0.0,0.0,1.0,819.998,1.0,274.0,8.0,1.00528,0.86227
Asian,6,Right,18,Male,Yes,Mandarin,D,276,1,16,0,180.0,1.0,1.0,907.813,1.0,275.0,8.0,1.03428,0.903169
Asian,6,Right,18,Male,Yes,Mandarin,D,277,1,0,4,180.0,1.0,1.0,632.352,1.0,276.0,8.0,1.18511,0.818259
Asian,6,Right,18,Male,Yes,Mandarin,D,278,0,8,8,0.0,0.0,1.0,791.991,1.0,277.0,8.0,1.17579,0.855819
Asian,6,Right,18,Male,Yes,Mandarin,D,279,0,16,4,180.0,1.0,1.0,1278.75,1.0,278.0,8.0,1.08896,0.996888
Asian,6,Right,18,Male,Yes,Mandarin,D,280,0,4,16,0.0,0.0,1.0,796.652,1.0,279.0,8.0,1.14565,0.91305
Asian,6,Right,18,Male,Yes,Mandarin,D,281,1,4,16,180.0,1.0,1.0,974.612,1.0,280.0,8.0,1.18713,0.892181
Asian,6,Right,18,Male,Yes,Mandarin,D,282,1,8,8,0.0,0.0,1.0,655.068,1.0,281.0,8.0,1.05047,0.985146
Asian,6,Right,18,Male,Yes,Mandarin,D,283,1,8,16,0.0,0.0,1.0,1033.04,1.0,282.0,8.0,1.04302,0.912889
Asian,6,Right,18,Male,Yes,Mandarin,D,284,1,4,0,180.0,1.0,1.0,719.014,1.0,283.0,8.0,1.02515,0.955263
Asian,6,Right,18,Male,Yes,Mandarin,D,285,1,4,8,180.0,1.0,1.0,889.127,1.0,284.0,8.0,1.18051,0.892834
Asian,6,Right,18,Male,Yes,Mandarin,D,286,1,0,0,180.0,1.0,1.0,658.401,1.0,285.0,8.0,1.04261,0.927465
Asian,6,Right,18,Male,Yes,Mandarin,D,287,1,16,8,0.0,0.0,1.0,887.244,1.0,286.0,8.0,1.12791,0.962171
Asian,6,Right,18,Male,Yes,Mandarin,D,288,0,0,16,180.0,1.0,1.0,615.415,1.0,287.0,8.0,1.12348,0.883878
Asian,6,Right,18,Male,Yes,Mandarin,D,289,0,8,8,0.0,0.0,1.0,856.257,1.0,288.0,9.0,1.00663,0.902693
Asian,6,Right,18,Male,Yes,Mandarin,D,290,1,4,8,0.0,0.0,1.0,688.641,1.0,289.0,9.0,1.19424,0.836176
Asian,6,Right,18,Male,Yes,Mandarin,D,291,0,4,4,180.0,1.0,1.0,797.316,1.0,290.0,9.0,1.0176,0.941503
Asian,6,Right,18,Male,Yes,Mandarin,D,292,1,8,0,0.0,0.0,1.0,932.936,1.0,291.0,9.0,1.0185,0.84557
Asian,6,Right,18,Male,Yes,Mandarin,D,293,0,0,4,180.0,1.0,1.0,688.619,1.0,292.0,9.0,1.19405,0.87449
Asian,6,Right,18,Male,Yes,Mandarin,D,294,0,8,4,0.0,0.0,1.0,1064.85,1.0,293.0,9.0,1.06372,0.916553
Asian,6,Right,18,Male,Yes,Mandarin,D,295,1,16,16,180.0,1.0,1.0,727.616,1.0,294.0,9.0,1.13367,0.978895
Asian,6,Right,18,Male,Yes,Mandarin,D,296,1,16,0,0.0,0.0,1.0,626.564,1.0,295.0,9.0,1.02538,0.805351
Asian,6,Right,18,Male,Yes,Mandarin,D,297,0,16,8,0.0,0.0,1.0,720.581,1.0,296.0,9.0,1.03318,0.862737
Asian,6,Right,18,Male,Yes,Mandarin,D,298,0,0,8,180.0,1.0,1.0,739.755,1.0,297.0,9.0,1.03015,0.891465
Asian,6,Right,18,Male,Yes,Mandarin,D,299,1,0,8,0.0,0.0,1.0,790.915,1.0,298.0,9.0,1.15288,0.922759
Asian,6,Right,18,Male,Yes,Mandarin,D,300,1,0,0,180.0,1.0,1.0,666.058,1.0,299.0,9.0,1.19027,0.851718
Asian,6,Right,18,Male,Yes,Mandarin,D,301,0,4,0,0.0,0.0,1.0,643.13,1.0,300.0,9.0,1.16806,0.877294
Asian,6,Right,18,Male,Yes,Mandarin,D,302,1,4,0,0.0,0.0,1.0,741.14,1.0,301.0,9.0,1.17176,0.976305
Asian,6,Right,18,Male,Yes,Mandarin,D,303,0,4,8,180.0,1.0,1.0,763.123,1.0,302.0,9.0,1.05089,0.868838
Asian,6,Right,18,Male,Yes,Mandarin,D,304,1,4,4,180.0,1.0,1.0,957.848,1.0,303.0,9.0,1.07805,0.800611
Asian,6,Right,18,Male,Yes,Mandarin,D,305,1,0,16,0.0,0.0,1.0,1291.24,1.0,304.0,9.0,1.01053,0.819208
Asian,6,Right,18,Male,Yes,Mandarin,D,306,0,16,16,180.0,1.0,1.0,1046.78,1.0,305.0,9.0,1.17701,0.984312
Asian,6,Right,18,Male,Yes,Mandarin,D,307,0,16,0,180.0,1.0,1.0,931.255,1.0,306.0,9.0,1.07122,0.872567
Asian,6,Right,18,Male,Yes,Mandarin,D,308,0,16,4,180.0,1.0,1.0,617.218,1.0,307.0,9.0,1.13706,0.974964
Asian,6,Right,18,Male,Yes,Mandarin,D,309,1,8,8,0.0,0.0,1.0,998.633,1.0,308.0,9.0,1.15851,0.85204
Asian,6,Right,18,Male,Yes,Mandarin,D,310,0,0,16,0.0,0.0,1.0,722.642,1.0,309.0,9.0,1.17907,0.864699
Asian,6,Right,18,Male,Yes,Mandarin,D,311,1,16,4,180.0,1.0,1.0,1103.7,1.0,310.0,9.0,1.12103,0.98353
Asian,6,Right,18,Male,Yes,Mandarin,D,312,0,4,16,0.0,0.0,1.0,1226.59,1.0,311.0,9.0,1.02714,0.937505
Asian,6,Right,18,Male,Yes,Mandarin,D,313,1,8,4,180.0,1.0,1.0,1458.61,1.0,312.0,9.0,1.11818,0.819742
Asian,6,Right,18,Male,Yes,Mandarin,D,314,0,8,0,180.0,1.0,1.0,650.068,1.0,313.0,9.0,1.17671,0.822721
Asian,6,Right,18,Male,Yes,Mandarin,D,315,0,8,16,0.0,0.0,1.0,795.802,1.0,314.0,9.0,1.06816,0.873798
Asian,6,Right,18,Male,Yes,Mandarin,D,316,1,16,8,0.0,0.0,1.0,791.744,1.0,315.0,9.0,1.05152,0.999027
Asian,6,Right,18,Male,Yes,Mandarin,D,317,0,0,0,180.0,1.0,1.0,734.757,1.0,316.0,9.0,1.05035,0.995983
Asian,6,Right,18,Male,Yes,Mandarin,D,318,1,8,16,0.0,0.0,1.0,762.293,1.0,317.0,9.0,1.14638,0.86343
Asian,6,Right,18,Male,Yes,Mandarin,D,319,1,0,4,180.0,1.0,1.0,1057.86,1.0,318.0,9.0,1.05878,0.851652
Asian,6,Right,18,Male,Yes,Mandarin,D,320,1,4,16,180.0,1.0,1.0,917.35,1.0,319.0,9.0,1.10448,0.846606
Asian,6,Right,18,Male,Yes,Mandarin,D,321,1,8,8,0.0,1.0,0.0,752.618,1.0,320.0,10.0,1.14577,0.949495
Asian,6,Right,18,Male,Yes,Mandarin,D,322,0,0,16,0.0,0.0,1.0,745.127,1.0,321.0,10.0,1.03145,0.907633
Asian,6,Right,18,Male,Yes,Mandarin,D,323,1,4,8,180.0,1.0,1.0,609.227,1.0,322.0,10.0,1.01817,0.912298
Asian,6,Right,18,Male,Yes,Mandarin,D,324,1,16,8,180.0,1.0,1.0,1046.75,1.0,323.0,10.0,1.1058,0.86296
Asian,6,Right,18,Male,Yes,Mandarin,D,325,0,4,0,0.0,0.0,1.0,900.073,1.0,324.0,10.0,1.12703,0.987132
Asian,6,Right,18,Male,Yes,Mandarin,D,326,0,16,8,180.0,1.0,1.0,919.124,1.0,325.0,10.0,1.13551,0.846802
Asian,6,Right,18,Male,Yes,Mandarin,D,327,1,4,0,180.0,1.0,1.0,711.245,1.0,326.0,10.0,1.16548,0.882253
Asian,6,Right,18,Male,Yes,Mandarin,D,328,0,4,8,180.0,1.0,1.0,796.112,1.0,327.0,10.0,1.11755,0.942674
Asian,6,Right,18,Male,Yes,Mandarin,D,329,1,0,4,0.0,0.0,1.0,681.166,1.0,328.0,10.0,1.00656,0.88731
Asian,6,Right,18,Male,Yes,Mandarin,D,330,0,16,4,180.0,1.0,1.0,1183.11,1.0,329.0,10.0,1.09645,0.885413
Asian,6,Right,18,Male,Yes,Mandarin,D,331,0,8,4,0.0,0.0,1.0,1086.43,1.0,330.0,10.0,1.19525,0.862305
Asian,6,Right,18,Male,Yes,Mandarin,D,332,1,4,16,180.0,1.0,1.0,1464.88,1.0,331.0,10.0,1.14994,0.975543
Asian,6,Right,18,Male,Yes,Mandarin,D,333,1,16,16,180.0,1.0,1.0,1205.17,1.0,332.0,10.0,1.16356,0.920961
Asian,6,Right,18,Male,Yes,Mandarin,D,334,0,16,0,180.0,1.0,1.0,1416.6,1.0,333.0,10.0,1.17242,0.889485
Asian,6,Right,18,Male,Yes,Mandarin,D,335,0,0,4,180.0,1.0,1.0,1579.4,1.0,334.0,10.0,1.12463,0.896462
Asian,6,Right,18,Male,Yes,Mandarin,D,336,1,0,16,0.0,0.0,1.0,772.405,1.0,335.0,10.0,1.02761,0.922497
Asian,6,Right,18,Male,Yes,Mandarin,D,337,1,4,4,0.0,0.0,1.0,1105.86,1.0,336.0,10.0,1.00847,0.85884
Asian,6,Right,18,Male,Yes,Mandarin,D,338,1,16,0,0.0,0.0,1.0,1080.11,1.0,337.0,10.0,1.02192,0.828767
Asian,6,Right,18,Male,Yes,Mandarin,D,339,0,4,16,0.0,0.0,1.0,970.703,1.0,338.0,10.0,1.10037,0.853859
Asian,6,Right,18,Male,Yes,Mandarin,D,340,1,16,4,0.0,0.0,1.0,1036.13,1.0,339.0,10.0,1.07189,0.811593
Asian,6,Right,18,Male,Yes,Mandarin,D,341,0,8,8,180.0,1.0,1.0,1245.77,1.0,340.0,10.0,1.1428,0.928328
Asian,6,Right,18,Male,Yes,Mandarin,D,342,1,8,0,180.0,1.0,1.0,1175.12,1.0,341.0,10.0,1.07751,0.859044
Asian,6,Right,18,Male,Yes,Mandarin,D,343,0,16,16,180.0,1.0,1.0,1088.85,1.0,342.0,10.0,1.17079,0.899815
Asian,6,Right,18,Male,Yes,Mandarin,D,344,1,8,16,180.0,1.0,1.0,889.49,1.0,343.0,10.0,1.10208,0.834306
Asian,6,Right,18,Male,Yes,Mandarin,D,345,1,0,0,0.0,0.0,1.0,820.59,1.0,344.0,10.0,1.14204,0.910555
Asian,6,Right,18,Male,Yes,Mandarin,D,346,0,8,16,180.0,1.0,1.0,878.605,1.0,345.0,10.0,1.01624,0.801393
Asian,6,Right,18,Male,Yes,Mandarin,D,347,0,0,8,180.0,1.0,1.0,610.588,1.0,346.0,10.0,1.09687,0.946096
Asian,6,Right,18,Male,Yes,Mandarin,D,348,0,4,4,0.0,0.0,1.0,801.833,1.0,347.0,10.0,1.13717,0.833194
Asian,6,Right,18,Male,Yes,Mandarin,D,349,0,0,0,0.0,0.0,1.0,641.574,1.0,348.0,10.0,1.07977,0.840172
Asian,6,Right,18,Male,Yes,Mandarin,D,350,1,0,8,0.0,0.0,1.0,728.92,1.0,349.0,10.0,1.04638,0.988976
Asian,6,Right,18,Male,Yes,Mandarin,D,351,1,8,4,0.0,0.0,1.0,592.324,1.0,350.0,10.0,1.18458,0.921137
Asian,6,Right,18,Male,Yes,Mandarin,D,352,0,8,0,0.0,0.0,1.0,794.365,1.0,351.0,10.0,1.09556,0.913362
Asian,6,Right,18,Male,Yes,Mandarin,D,353,1,0,0,180.0,1.0,1.0,622.009,1.0,352.0,11.0,1.06518,0.977421
Asian,6,Right,18,Male,Yes,Mandarin,D,354,1,0,8,180.0,1.0,1.0,797.386,1.0,353.0,11.0,1.17981,0.95828
Asian,6,Right,18,Male,Yes,Mandarin,D,355,1,0,16,0.0,0.0,1.0,766.446,1.0,354.0,11.0,1.16702,0.900421
Asian,6,Right,18,Male,Yes,Mandarin,D,356,1,4,0,0.0,0.0,1.0,678.059,1.0,355.0,11.0,1.17773,0.982164
Asian,6,Right,18,Male,Yes,Mandarin,D,357,0,16,8,0.0,0.0,1.0,1138.11,1.0,356.0,11.0,1.11284,0.857906
Asian,6,Right,18,Male,Yes,Mandarin,D,358,0,16,4,180.0,1.0,1.0,735.16,1.0,357.0,11.0,1.02356,0.88984
Asian,6,Right,18,Male,Yes,Mandarin,D,359,0,0,4,180.0,1.0,1.0,696.561,1.0,358.0,11.0,1.07081,0.939914
Asian,6,Right,18,Male,Yes,Mandarin,D,360,1,16,8,0.0,0.0,1.0,911.578,1.0,359.0,11.0,1.07469,0.993999
Asian,6,Right,18,Male,Yes,Mandarin,D,361,0,0,8,0.0,0.0,1.0,771.655,1.0,360.0,11.0,1.02076,0.90053
Asian,6,Right,18,Male,Yes,Mandarin,D,362,1,0,4,180.0,1.0,1.0,861.024,1.0,361.0,11.0,1.03731,0.923281
Asian,6,Right,18,Male,Yes,Mandarin,D,363,0,4,8,180.0,1.0,1.0,805.374,1.0,362.0,11.0,1.18978,0.84619
Asian,6,Right,18,Male,Yes,Mandarin,D,364,0,4,16,0.0,0.0,1.0,915.201,1.0,363.0,11.0,1.06622,0.874222
Asian,6,Right,18,Male,Yes,Mandarin,D,365,1,4,8,180.0,1.0,1.0,1060.27,1.0,364.0,11.0,1.14,0.945521
Asian,6,Right,18,Male,Yes,Mandarin,D,366,1,4,16,0.0,0.0,1.0,729.61,1.0,365.0,11.0,1.13313,0.904751
Asian,6,Right,18,Male,Yes,Mandarin,D,367,1,8,16,180.0,1.0,1.0,1315.31,1.0,366.0,11.0,1.10494,0.931755
Asian,6,Right,18,Male,Yes,Mandarin,D,368,1,8,8,0.0,0.0,1.0,1402.28,1.0,367.0,11.0,1.00289,0.962887
Asian,6,Right,18,Male,Yes,Mandarin,D,369,0,4,4,180.0,1.0,1.0,1234.39,1.0,368.0,11.0,1.00675,0.924783
Asian,6,Right,18,Male,Yes,Mandarin,D,370,1,4,4,180.0,1.0,1.0,1052.94,1.0,369.0,11.0,1.03154,0.922375
Asian,6,Right,18,Male,Yes,Mandarin,D,371,1,16,0,0.0,0.0,1.0,1168.58,1.0,370.0,11.0,1.10271,0.933041
Asian,6,Right,18,Male,Yes,Mandarin,D,372,0,8,8,180.0,1.0,1.0,1012.12,1.0,371.0,11.0,1.00053,0.895381
Asian,6,Right,18,Male,Yes,Mandarin,D,373,1,8,0,0.0,0.0,1.0,973.86,1.0,372.0,11.0,1.05844,0.95339
Asian,6,Right,18,Male,Yes,Mandarin,D,374,1,8,4,180.0,9999.0,0.0,9999.0,1.0,373.0,11.0,1.02419,0.954596
Asian,6,Right,18,Male,Yes,Mandarin,D,375,0,16,16,0.0,0.0,1.0,791.857,1.0,374.0,11.0,1.03592,0.973559
Asian,6,Right,18,Male,Yes,Mandarin,D,376,0,8,0,0.0,0.0,1.0,1116.68,1.0,375.0,11.0,1.10693,0.985097
Asian,6,Right,18,Male,Yes,Mandarin,D,377,0,0,0,180.0,1.0,1.0,660.155,1.0,376.0,11.0,1.15569,0.928878
Asian,6,Right,18,Male,Yes,Mandarin,D,378,0,16,0,0.0,0.0,1.0,871.292,1.0,377.0,11.0,1.0934,0.911533
Asian,6,Right,18,Male,Yes,Mandarin,D,379,0,8,16,0.0,0.0,1.0,1256.58,1.0,378.0,11.0,1.14625,0.908868
Asian,6,Right,18,Male,Yes,Mandarin,D,380,0,0,16,180.0,1.0,1.0,1163.46,1.0,379.0,11.0,1.09497,0.965228
Asian,6,Right,18,Male,Yes,Mandarin,D,381,0,4,0,0.0,0.0,1.0,1724.85,1.0,380.0,11.0,1.17612,0.94016
Asian,6,Right,18,Male,Yes,Mandarin,D,382,1,16,4,180.0,1.0,1.0,808.596,1.0,381.0,11.0,1.05003,0.917328
Asian,6,Right,18,Male,Yes,Mandarin,D,383,0,8,4,0.0,0.0,1.0,1085.15,1.0,382.0,11.0,1.11056,0.906347
Asian,6,Right,18,Male,Yes,Mandarin,D,384,1,16,16,180.0,1.0,1.0,1106.31,1.0,383.0,11.0,1.09698,0.977876
Asian,6,Right,18,Male,Yes,Mandarin,D,385,0,16,0,0.0,9999.0,0.0,9999.0,1.0,384.0,12.0,1.13785,0.804035
Asian,6,Right,18,Male,Yes,Mandarin,D,386,1,4,4,0.0,0.0,1.0,1127.33,1.0,385.0,12.0,1.02271,0.975042
Asian,6,Right,18,Male,Yes,Mandarin,D,387,1,4,8,0.0,0.0,1.0,653.112,1.0,386.0,12.0,1.14345,0.819476
Asian,6,Right,18,Male,Yes,Mandarin,D,388,1,0,16,180.0,1.0,1.0,607.655,1.0,387.0,12.0,1.13151,0.909312
Asian,6,Right,18,Male,Yes,Mandarin,D,389,0,0,0,180.0,1.0,1.0,561.717,1.0,388.0,12.0,1.03411,0.808204
Asian,6,Right,18,Male,Yes,Mandarin,D,390,0,0,16,0.0,0.0,1.0,827.052,1.0,389.0,12.0,1.09093,0.900385
Asian,6,Right,18,Male,Yes,Mandarin,D,391,1,0,0,180.0,1.0,1.0,755.578,1.0,390.0,12.0,1.13778,0.848767
Asian,6,Right,18,Male,Yes,Mandarin,D,392,1,16,16,180.0,1.0,1.0,805.525,1.0,391.0,12.0,1.03681,0.870832
Asian,6,Right,18,Male,Yes,Mandarin,D,393,1,16,0,180.0,1.0,1.0,852.048,1.0,392.0,12.0,1.05112,0.911733
Asian,6,Right,18,Male,Yes,Mandarin,D,394,0,4,0,180.0,1.0,1.0,773.314,1.0,393.0,12.0,1.17189,0.890573
Asian,6,Right,18,Male,Yes,Mandarin,D,395,1,8,8,180.0,1.0,1.0,874.874,1.0,394.0,12.0,1.10198,0.871333
Asian,6,Right,18,Male,Yes,Mandarin,D,396,0,0,8,180.0,1.0,1.0,1180.04,1.0,395.0,12.0,1.03099,0.818553
Asian,6,Right,18,Male,Yes,Mandarin,D,397,1,4,16,180.0,1.0,1.0,765.896,1.0,396.0,12.0,1.11679,0.867598
Asian,6,Right,18,Male,Yes,Mandarin,D,398,0,8,4,0.0,0.0,1.0,846.625,1.0,397.0,12.0,1.07631,0.991648
Asian,6,Right,18,Male,Yes,Mandarin,D,399,0,16,8,0.0,0.0,1.0,1217.94,1.0,398.0,12.0,1.14062,0.858362
Asian,6,Right,18,Male,Yes,Mandarin,D,400,1,16,4,0.0,0.0,1.0,598.428,1.0,399.0,12.0,1.16234,0.876584
Asian,6,Right,18,Male,Yes,Mandarin,D,401,1,8,0,180.0,1.0,1.0,898.381,1.0,400.0,12.0,1.16408,0.868728
Asian,6,Right,18,Male,Yes,Mandarin,D,402,1,0,4,0.0,0.0,1.0,626.707,1.0,401.0,12.0,1.01137,0.831128
Asian,6,Right,18,Male,Yes,Mandarin,D,403,1,16,8,180.0,1.0,1.0,660.078,1.0,402.0,12.0,1.01609,0.8364
Asian,6,Right,18,Male,Yes,Mandarin,D,404,1,0,8,180.0,1.0,1.0,704.654,1.0,403.0,12.0,1.07735,0.831305
Asian,6,Right,18,Male,Yes,Mandarin,D,405,0,0,4,0.0,0.0,1.0,983.986,1.0,404.0,12.0,1.0351,0.913547
Asian,6,Right,18,Male,Yes,Mandarin,D,406,0,8,0,180.0,1.0,1.0,688.445,1.0,405.0,12.0,1.1521,0.840855
Asian,6,Right,18,Male,Yes,Mandarin,D,407,0,8,16,0.0,0.0,1.0,886.609,1.0,406.0,12.0,1.1108,0.934507
Asian,6,Right,18,Male,Yes,Mandarin,D,408,0,4,4,180.0,1.0,1.0,1141.39,1.0,407.0,12.0,1.10478,0.970092
Asian,6,Right,18,Male,Yes,Mandarin,D,409,1,8,4,0.0,0.0,1.0,778.322,1.0,408.0,12.0,1.07012,0.987176
Asian,6,Right,18,Male,Yes,Mandarin,D,410,0,16,4,0.0,0.0,1.0,757.736,1.0,409.0,12.0,1.03088,0.997086
Asian,6,Right,18,Male,Yes,Mandarin,D,411,0,8,8,180.0,1.0,1.0,863.316,1.0,410.0,12.0,1.17124,0.975905
Asian,6,Right,18,Male,Yes,Mandarin,D,412,0,16,16,0.0,0.0,1.0,718.37,1.0,411.0,12.0,1.16752,0.984801
Asian,6,Right,18,Male,Yes,Mandarin,D,413,0,4,8,0.0,0.0,1.0,980.943,1.0,412.0,12.0,1.1057,0.918278
Asian,6,Right,18,Male,Yes,Mandarin,D,414,1,4,0,180.0,9999.0,0.0,9999.0,1.0,413.0,12.0,1.18099,0.988165
Asian,6,Right,18,Male,Yes,Mandarin,D,415,0,4,16,0.0,0.0,1.0,897.077,1.0,414.0,12.0,1.08314,0.859448
Asian,6,Right,18,Male,Yes,Mandarin,D,416,1,8,16,0.0,0.0,1.0,1118.98,1.0,415.0,12.0,1.16095,0.880721
Asian,6,Right,18,Male,Yes,Mandarin,D,417,0,16,8,0.0,0.0,1.0,809.273,1.0,416.0,13.0,1.17814,0.849352
Asian,6,Right,18,Male,Yes,Mandarin,D,418,1,4,0,180.0,1.0,1.0,326.666,1.0,417.0,13.0,1.10211,0.861543
Asian,6,Right,18,Male,Yes,Mandarin,D,419,0,16,16,0.0,0.0,1.0,884.787,1.0,418.0,13.0,1.19014,0.99049
Asian,6,Right,18,Male,Yes,Mandarin,D,420,0,4,8,0.0,0.0,1.0,1054.62,1.0,419.0,13.0,1.0823,0.944789
Asian,6,Right,18,Male,Yes,Mandarin,D,421,0,16,0,180.0,1.0,1.0,1544.25,1.0,420.0,13.0,1.04917,0.87349
Asian,6,Right,18,Male,Yes,Mandarin,D,422,0,0,8,180.0,1.0,1.0,1428.11,1.0,421.0,13.0,1.14394,0.884882
Asian,6,Right,18,Male,Yes,Mandarin,D,423,0,16,4,0.0,0.0,1.0,1581.43,1.0,422.0,13.0,1.12195,0.916905
Asian,6,Right,18,Male,Yes,Mandarin,D,424,0,8,4,0.0,0.0,1.0,1067.28,1.0,423.0,13.0,1.13895,0.91885
Asian,6,Right,18,Male,Yes,Mandarin,D,425,0,0,16,0.0,0.0,1.0,664.79,1.0,424.0,13.0,1.1763,0.911706
Asian,6,Right,18,Male,Yes,Mandarin,D,426,1,4,4,0.0,0.0,1.0,791.571,1.0,425.0,13.0,1.07244,0.928495
Asian,6,Right,18,Male,Yes,Mandarin,D,427,1,0,0,0.0,0.0,1.0,673.165,1.0,426.0,13.0,1.06289,0.847291
Asian,6,Right,18,Male,Yes,Mandarin,D,428,0,0,0,180.0,1.0,1.0,672.375,1.0,427.0,13.0,1.06705,0.810058
Asian,6,Right,18,Male,Yes,Mandarin,D,429,0,4,4,180.0,1.0,1.0,788.58,1.0,428.0,13.0,1.07405,0.95721
Asian,6,Right,18,Male,Yes,Mandarin,D,430,1,8,16,180.0,1.0,1.0,891.54,1.0,429.0,13.0,1.16949,0.897124
Asian,6,Right,18,Male,Yes,Mandarin,D,431,1,4,16,180.0,1.0,1.0,532.488,1.0,430.0,13.0,1.01213,0.960727
Asian,6,Right,18,Male,Yes,Mandarin,D,432,0,8,8,180.0,1.0,1.0,559.555,1.0,431.0,13.0,1.07393,0.97987
Asian,6,Right,18,Male,Yes,Mandarin,D,433,1,8,4,0.0,0.0,1.0,510.956,1.0,432.0,13.0,1.10338,0.942373
Asian,6,Right,18,Male,Yes,Mandarin,D,434,0,8,0,180.0,1.0,1.0,642.389,1.0,433.0,13.0,1.0122,0.882414
Asian,6,Right,18,Male,Yes,Mandarin,D,435,1,8,8,0.0,0.0,1.0,792.136,1.0,434.0,13.0,1.07257,0.821811
Asian,6,Right,18,Male,Yes,Mandarin,D,436,1,0,4,180.0,1.0,1.0,882.652,1.0,435.0,13.0,1.11361,0.992474
Asian,6,Right,18,Male,Yes,Mandarin,D,437,1,0,16,0.0,0.0,1.0,766.229,1.0,436.0,13.0,1.02363,0.964266
Asian,6,Right,18,Male,Yes,Mandarin,D,438,1,16,0,0.0,0.0,1.0,592.407,1.0,437.0,13.0,1.02343,0.995378
Asian,6,Right,18,Male,Yes,Mandarin,D,439,1,0,8,180.0,0.0,0.0,617.994,1.0,438.0,13.0,1.01031,0.943345
Asian,6,Right,18,Male,Yes,Mandarin,D,440,1,16,4,0.0,0.0,1.0,1735.94,1.0,439.0,13.0,1.08855,0.953137
Asian,6,Right,18,Male,Yes,Mandarin,D,441,1,8,0,180.0,1.0,1.0,1261.92,1.0,440.0,13.0,1.18045,0.963801
Asian,6,Right,18,Male,Yes,Mandarin,D,442,1,16,16,180.0,1.0,1.0,802.877,1.0,441.0,13.0,1.07744,0.921037
Asian,6,Right,18,Male,Yes,Mandarin,D,443,0,0,4,0.0,0.0,1.0,1066.66,1.0,442.0,13.0,1.01548,0.944724
Asian,6,Right,18,Male,Yes,Mandarin,D,444,0,4,0,180.0,1.0,1.0,1004.14,1.0,443.0,13.0,1.01159,0.981938
Asian,6,Right,18,Male,Yes,Mandarin,D,445,0,4,16,0.0,0.0,1.0,951.335,1.0,444.0,13.0,1.05718,0.971055
Asian,6,Right,18,Male,Yes,Mandarin,D,446,1,4,8,180.0,1.0,1.0,1318.83,1.0,445.0,13.0,1.14693,0.950139
Asian,6,Right,18,Male,Yes,Mandarin,D,447,0,8,16,180.0,1.0,1.0,928.707,1.0,446.0,13.0,1.1232,0.995038
Asian,6,Right,18,Male,Yes,Mandarin,D,448,1,16,8,0.0,0.0,1.0,1046.01,1.0,447.0,13.0,1.18229,0.872023
Asian,6,Right,18,Male,Yes,Mandarin,D,449,1,8,8,0.0,0.0,1.0,1150.65,1.0,448.0,14.0,1.05148,0.825349
Asian,6,Right,18,Male,Yes,Mandarin,D,450,1,16,16,180.0,1.0,1.0,816.691,1.0,449.0,14.0,1.12183,0.814115
Asian,6,Right,18,Male,Yes,Mandarin,D,451,0,4,16,180.0,1.0,1.0,918.944,1.0,450.0,14.0,1.17586,0.998951
Asian,6,Right,18,Male,Yes,Mandarin,D,452,0,4,0,180.0,1.0,1.0,1991.91,1.0,451.0,14.0,1.10364,0.83393
Asian,6,Right,18,Male,Yes,Mandarin,D,453,0,8,4,180.0,1.0,1.0,1429.66,1.0,452.0,14.0,1.07753,0.926157
Asian,6,Right,18,Male,Yes,Mandarin,D,454,1,4,16,180.0,1.0,1.0,1236.12,1.0,453.0,14.0,1.09291,0.85597
Asian,6,Right,18,Male,Yes,Mandarin,D,455,0,0,16,0.0,0.0,1.0,1873.94,1.0,454.0,14.0,1.04099,0.894428
Asian,6,Right,18,Male,Yes,Mandarin,D,456,1,0,0,0.0,0.0,1.0,666.433,1.0,455.0,14.0,1.14197,0.844267
Asian,6,Right,18,Male,Yes,Mandarin,D,457,0,0,8,180.0,1.0,1.0,1615.49,1.0,456.0,14.0,1.09557,0.980754
Asian,6,Right,18,Male,Yes,Mandarin,D,458,0,8,16,0.0,0.0,1.0,2081.07,1.0,457.0,14.0,1.07758,0.939368
Asian,6,Right,18,Male,Yes,Mandarin,D,459,1,16,4,180.0,1.0,1.0,705.629,1.0,458.0,14.0,1.11112,0.842076
Asian,6,Right,18,Male,Yes,Mandarin,D,460,1,8,16,180.0,1.0,1.0,1352.9,1.0,459.0,14.0,1.15978,0.858552
Asian,6,Right,18,Male,Yes,Mandarin,D,461,0,16,4,180.0,1.0,1.0,1451.86,1.0,460.0,14.0,1.19725,0.858812
Asian,6,Right,18,Male,Yes,Mandarin,D,462,0,16,16,0.0,9999.0,0.0,9999.0,1.0,461.0,14.0,1.06069,0.956631
Asian,6,Right,18,Male,Yes,Mandarin,D,463,0,8,0,180.0,1.0,1.0,814.522,1.0,462.0,14.0,1.10876,0.95801
Asian,6,Right,18,Male,Yes,Mandarin,D,464,1,0,16,180.0,1.0,1.0,813.314,1.0,463.0,14.0,1.09143,0.948623
Asian,6,Right,18,Male,Yes,Mandarin,D,465,0,8,8,0.0,9999.0,0.0,9999.0,1.0,464.0,14.0,1.01795,0.879393
Asian,6,Right,18,Male,Yes,Mandarin,D,466,1,16,8,0.0,0.0,1.0,1025.94,1.0,465.0,14.0,1.17288,0.831166
Asian,6,Right,18,Male,Yes,Mandarin,D,467,1,8,4,0.0,0.0,1.0,1887.11,1.0,466.0,14.0,1.06704,0.993195
Asian,6,Right,18,Male,Yes,Mandarin,D,468,0,16,8,0.0,0.0,1.0,972.452,1.0,467.0,14.0,1.07416,0.831621
Asian,6,Right,18,Male,Yes,Mandarin,D,469,0,4,4,180.0,1.0,1.0,1691.07,1.0,468.0,14.0,1.18136,0.872784
Asian,6,Right,18,Male,Yes,Mandarin,D,470,0,0,0,180.0,1.0,1.0,743.096,1.0,469.0,14.0,1.1844,0.826257
Asian,6,Right,18,Male,Yes,Mandarin,D,471,0,0,4,0.0,0.0,1.0,721.625,1.0,470.0,14.0,1.017,0.834159
Asian,6,Right,18,Male,Yes,Mandarin,D,472,1,0,4,0.0,0.0,1.0,671.213,1.0,471.0,14.0,1.00938,0.979875
Asian,6,Right,18,Male,Yes,Mandarin,D,473,1,16,0,180.0,9999.0,0.0,9999.0,1.0,472.0,14.0,1.18863,0.808585
Asian,6,Right,18,Male,Yes,Mandarin,D,474,1,4,4,0.0,0.0,1.0,700.727,1.0,473.0,14.0,1.06485,0.860416
Asian,6,Right,18,Male,Yes,Mandarin,D,475,1,4,0,180.0,0.0,0.0,1221.61,1.0,474.0,14.0,1.08938,0.870768
Asian,6,Right,18,Male,Yes,Mandarin,D,476,0,4,8,180.0,1.0,1.0,1032.64,1.0,475.0,14.0,1.18694,0.818176
Asian,6,Right,18,Male,Yes,Mandarin,D,477,0,16,0,0.0,9999.0,0.0,9999.0,1.0,476.0,14.0,1.19365,0.862594
Asian,6,Right,18,Male,Yes,Mandarin,D,478,1,8,0,0.0,0.0,1.0,658.184,1.0,477.0,14.0,1.08655,0.815917
Asian,6,Right,18,Male,Yes,Mandarin,D,479,1,0,8,0.0,0.0,1.0,887.307,1.0,478.0,14.0,1.1345,0.894236
Asian,6,Right,18,Male,Yes,Mandarin,D,480,1,4,8,0.0,9999.0,0.0,9999.0,1.0,479.0,14.0,1.11359,0.88242
Asian,6,Right,18,Male,Yes,Mandarin,D,481,1,4,16,180.0,1.0,1.0,2047.23,1.0,480.0,15.0,1.08328,0.962874
Asian,6,Right,18,Male,Yes,Mandarin,D,482,1,4,8,180.0,1.0,1.0,2006.3,1.0,481.0,15.0,1.1174,0.847462
Asian,6,Right,18,Male,Yes,Mandarin,D,483,1,8,8,180.0,1.0,1.0,2099.95,1.0,482.0,15.0,1.18332,0.989239
Asian,6,Right,18,Male,Yes,Mandarin,D,484,0,0,0,0.0,0.0,1.0,1302.67,1.0,483.0,15.0,1.19438,0.848972
Asian,6,Right,18,Male,Yes,Mandarin,D,485,0,4,0,0.0,0.0,1.0,1144.44,1.0,484.0,15.0,1.05254,0.885555
Asian,6,Right,18,Male,Yes,Mandarin,D,486,0,8,0,0.0,0.0,1.0,1401.26,1.0,485.0,15.0,1.02264,0.823975
Asian,6,Right,18,Male,Yes,Mandarin,D,487,0,0,16,0.0,9999.0,0.0,9999.0,1.0,486.0,15.0,1.03814,0.858096
Asian,6,Right,18,Male,Yes,Mandarin,D,488,0,16,4,0.0,0.0,1.0,1568.4,1.0,487.0,15.0,1.01553,0.808898
Asian,6,Right,18,Male,Yes,Mandarin,D,489,1,0,0,180.0,1.0,1.0,301.06,1.0,488.0,15.0,1.11322,0.884307
Asian,6,Right,18,Male,Yes,Mandarin,D,490,0,16,16,180.0,1.0,1.0,1783.21,1.0,489.0,15.0,1.18096,0.876395
Asian,6,Right,18,Male,Yes,Mandarin,D,491,1,16,0,180.0,1.0,1.0,658.259,1.0,490.0,15.0,1.17207,0.956145
Asian,6,Right,18,Male,Yes,Mandarin,D,492,1,4,4,180.0,1.0,1.0,707.453,1.0,491.0,15.0,1.08448,0.812628
Asian,6,Right,18,Male,Yes,Mandarin,D,493,1,16,8,0.0,0.0,1.0,977.314,1.0,492.0,15.0,1.05536,0.81247
Asian,6,Right,18,Male,Yes,Mandarin,D,494,0,4,4,180.0,9999.0,0.0,9999.0,1.0,493.0,15.0,1.02104,0.910802
Asian,6,Right,18,Male,Yes,Mandarin,D,495,0,0,8,0.0,1.0,0.0,184.996,1.0,494.0,15.0,1.0176,0.849486
Asian,6,Right,18,Male,Yes,Mandarin,D,496,0,8,8,0.0,0.0,1.0,992.404,1.0,495.0,15.0,1.06223,0.896896
Asian,6,Right,18,Male,Yes,Mandarin,D,497,0,4,16,180.0,1.0,1.0,2374.54,1.0,496.0,15.0,1.03374,0.879112
Asian,6,Right,18,Male,Yes,Mandarin,D,498,1,8,16,0.0,1.0,0.0,1290.73,1.0,497.0,15.0,1.18408,0.81999
Asian,6,Right,18,Male,Yes,Mandarin,D,499,1,4,0,180.0,0.0,0.0,1169.43,1.0,498.0,15.0,1.19901,0.995411
Asian,6,Right,18,Male,Yes,Mandarin,D,500,0,16,8,0.0,0.0,1.0,325.545,1.0,499.0,15.0,1.05181,0.893585
Asian,6,Right,18,Male,Yes,Mandarin,D,501,1,0,16,0.0,0.0,1.0,1015.36,1.0,500.0,15.0,1.13502,0.949758
Asian,6,Right,18,Male,Yes,Mandarin,D,502,1,0,8,180.0,0.0,0.0,2148.17,1.0,501.0,15.0,1.08411,0.972326
Asian,6,Right,18,Male,Yes,Mandarin,D,503,1,8,0,0.0,0.0,1.0,1196.48,1.0,502.0,15.0,1.01809,0.921412
Asian,6,Right,18,Male,Yes,Mandarin,D,504,0,16,0,180.0,9999.0,0.0,9999.0,1.0,503.0,15.0,1.15841,0.946549
Asian,6,Right,18,Male,Yes,Mandarin,D,505,1,16,16,0.0,0.0,1.0,1222.82,1.0,504.0,15.0,1.02235,0.893535
Asian,6,Right,18,Male,Yes,Mandarin,D,506,1,0,4,180.0,9999.0,0.0,9999.0,1.0,505.0,15.0,1.10156,0.837369
Asian,6,Right,18,Male,Yes,Mandarin,D,507,1,8,4,0.0,0.0,1.0,708.908,1.0,506.0,15.0,1.11074,0.830067
Asian,6,Right,18,Male,Yes,Mandarin,D,508,0,8,16,0.0,0.0,1.0,794.425,1.0,507.0,15.0,1.13859,0.925581
Asian,6,Right,18,Male,Yes,Mandarin,D,509,0,8,4,180.0,1.0,1.0,1419.13,1.0,508.0,15.0,1.13111,0.888819
Asian,6,Right,18,Male,Yes,Mandarin,D,510,1,16,4,180.0,9999.0,0.0,9999.0,1.0,509.0,15.0,1.0734,0.867387
Asian,6,Right,18,Male,Yes,Mandarin,D,511,0,0,4,0.0,0.0,1.0,560.943,1.0,510.0,15.0,1.07901,0.90873
Asian,6,Right,18,Male,Yes,Mandarin,D,512,0,4,8,180.0,1.0,1.0,1080.07,1.0,511.0,15.0,1.10249,0.906612
Asian,6,Right,18,Male,Yes,Mandarin,D,513,0,16,0,0.0,1.0,0.0,265.098,1.0,512.0,16.0,1.14399,0.947519
Asian,6,Right,18,Male,Yes,Mandarin,D,514,1,0,4,0.0,0.0,1.0,1510.51,1.0,513.0,16.0,1.16969,0.801751
Asian,6,Right,18,Male,Yes,Mandarin,D,515,0,4,8,0.0,0.0,1.0,1375.61,1.0,514.0,16.0,1.09394,0.854704
Asian,6,Right,18,Male,Yes,Mandarin,D,516,0,8,8,180.0,9999.0,0.0,9999.0,1.0,515.0,16.0,1.14007,0.98011
Asian,6,Right,18,Male,Yes,Mandarin,D,517,0,16,8,0.0,0.0,1.0,776.058,1.0,516.0,16.0,1.09512,0.914642
Asian,6,Right,18,Male,Yes,Mandarin,D,518,1,0,0,0.0,0.0,1.0,467.91,1.0,517.0,16.0,1.03788,0.807184
Asian,6,Right,18,Male,Yes,Mandarin,D,519,0,4,0,180.0,9999.0,0.0,9999.0,1.0,518.0,16.0,1.14219,0.941132
Asian,6,Right,18,Male,Yes,Mandarin,D,520,0,8,0,180.0,1.0,1.0,2352.07,1.0,519.0,16.0,1.00923,0.980529
Asian,6,Right,18,Male,Yes,Mandarin,D,521,0,0,4,0.0,0.0,1.0,1075.64,1.0,520.0,16.0,1.02267,0.911971
Asian,6,Right,18,Male,Yes,Mandarin,D,522,1,16,8,180.0,1.0,1.0,997.776,1.0,521.0,16.0,1.05762,0.919663
Asian,6,Right,18,Male,Yes,Mandarin,D,523,0,4,16,0.0,0.0,1.0,838.605,1.0,522.0,16.0,1.10931,0.85786
Asian,6,Right,18,Male,Yes,Mandarin,D,524,0,16,16,0.0,1.0,0.0,1783.14,1.0,523.0,16.0,1.11051,0.925417
Asian,6,Right,18,Male,Yes,Mandarin,D,525,0,8,16,0.0,0.0,1.0,910.525,1.0,524.0,16.0,1.00427,0.865344
Asian,6,Right,18,Male,Yes,Mandarin,D,526,1,4,4,180.0,1.0,1.0,799.242,1.0,525.0,16.0,1.09529,0.804415
Asian,6,Right,18,Male,Yes,Mandarin,D,527,1,8,0,0.0,0.0,1.0,1249.82,1.0,526.0,16.0,1.09288,0.960879
Asian,6,Right,18,Male,Yes,Mandarin,D,528,1,4,8,0.0,0.0,1.0,2036.82,1.0,527.0,16.0,1.0916,0.840089
Asian,6,Right,18,Male,Yes,Mandarin,D,529,1,4,16,0.0,0.0,1.0,1152.98,1.0,528.0,16.0,1.12263,0.958028
Asian,6,Right,18,Male,Yes,Mandarin,D,530,1,16,16,180.0,1.0,1.0,855.103,1.0,529.0,16.0,1.07177,0.940259
Asian,6,Right,18,Male,Yes,Mandarin,D,531,1,4,0,180.0,1.0,1.0,1129.69,1.0,530.0,16.0,1.12828,0.840836
Asian,6,Right,18,Male,Yes,Mandarin,D,532,0,16,4,180.0,1.0,1.0,1725.96,1.0,531.0,16.0,1.1273,0.883258
Asian,6,Right,18,Male,Yes,Mandarin,D,533,1,8,8,180.0,1.0,1.0,735.918,1.0,532.0,16.0,1.19519,0.981133
Asian,6,Right,18,Male,Yes,Mandarin,D,534,0,4,4,180.0,1.0,1.0,682.081,1.0,533.0,16.0,1.02722,0.92104
Asian,6,Right,18,Male,Yes,Mandarin,D,535,1,0,8,180.0,1.0,1.0,658.401,1.0,534.0,16.0,1.11731,0.883221
Asian,6,Right,18,Male,Yes,Mandarin,D,536,0,8,4,0.0,1.0,0.0,1026.14,1.0,535.0,16.0,1.16725,0.989946
Asian,6,Right,18,Male,Yes,Mandarin,D,537,1,8,16,180.0,1.0,1.0,1024.23,1.0,536.0,16.0,1.11067,0.873698
Asian,6,Right,18,Male,Yes,Mandarin,D,538,1,8,4,0.0,0.0,1.0,1215.83,1.0,537.0,16.0,1.0945,0.929137
Asian,6,Right,18,Male,Yes,Mandarin,D,539,0,0,8,180.0,1.0,1.0,2047.59,1.0,538.0,16.0,1.1382,0.855387
Asian,6,Right,18,Male,Yes,Mandarin,D,540,0,0,16,180.0,1.0,1.0,845.072,1.0,539.0,16.0,1.05167,0.917181
Asian,6,Right,18,Male,Yes,Mandarin,D,541,1,16,0,180.0,1.0,1.0,936.285,1.0,540.0,16.0,1.18159,0.838498
Asian,6,Right,18,Male,Yes,Mandarin,D,542,0,0,0,0.0,0.0,1.0,753.986,1.0,541.0,16.0,1.03815,0.910227
Asian,6,Right,18,Male,Yes,Mandarin,D,543,1,0,16,180.0,1.0,1.0,655.325,1.0,542.0,16.0,1.03753,0.954211
Asian,6,Right,18,Male,Yes,Mandarin,D,544,1,16,4,0.0,0.0,1.0,884.71,1.0,543.0,16.0,1.18975,0.911759
Asian,6,Right,18,Male,Yes,Mandarin,D,545,0,4,16,180.0,1.0,1.0,650.329,1.0,544.0,17.0,1.09082,0.827464
Asian,6,Right,18,Male,Yes,Mandarin,D,546,1,0,16,0.0,0.0,1.0,952.226,1.0,545.0,17.0,1.1904,0.936417
Asian,6,Right,18,Male,Yes,Mandarin,D,547,0,0,4,0.0,0.0,1.0,773.103,1.0,546.0,17.0,1.1053,0.882565
Asian,6,Right,18,Male,Yes,Mandarin,D,548,0,8,8,180.0,1.0,1.0,1161.06,1.0,547.0,17.0,1.09304,0.950309
Asian,6,Right,18,Male,Yes,Mandarin,D,549,0,4,0,0.0,0.0,1.0,636.914,1.0,548.0,17.0,1.06661,0.870404
Asian,6,Right,18,Male,Yes,Mandarin,D,550,1,0,0,180.0,1.0,1.0,1542.32,1.0,549.0,17.0,1.1406,0.910852
Asian,6,Right,18,Male,Yes,Mandarin,D,551,1,8,4,0.0,0.0,1.0,1019.49,1.0,550.0,17.0,1.06158,0.997376
Asian,6,Right,18,Male,Yes,Mandarin,D,552,0,16,0,0.0,0.0,1.0,644.442,1.0,551.0,17.0,1.0398,0.99647
Asian,6,Right,18,Male,Yes,Mandarin,D,553,0,16,16,180.0,1.0,1.0,1573.38,1.0,552.0,17.0,1.14741,0.827846
Asian,6,Right,18,Male,Yes,Mandarin,D,554,1,16,8,180.0,1.0,1.0,1895.05,1.0,553.0,17.0,1.00869,0.929166
Asian,6,Right,18,Male,Yes,Mandarin,D,555,1,8,8,180.0,1.0,1.0,1389.55,1.0,554.0,17.0,1.18121,0.952926
Asian,6,Right,18,Male,Yes,Mandarin,D,556,1,16,0,0.0,0.0,1.0,1417.4,1.0,555.0,17.0,1.01784,0.946057
Asian,6,Right,18,Male,Yes,Mandarin,D,557,1,4,8,0.0,0.0,1.0,1613.8,1.0,556.0,17.0,1.00449,0.823153
Asian,6,Right,18,Male,Yes,Mandarin,D,558,0,0,8,180.0,1.0,1.0,1223.42,1.0,557.0,17.0,1.07158,0.841265
Asian,6,Right,18,Male,Yes,Mandarin,D,559,1,8,16,0.0,0.0,1.0,1058.28,1.0,558.0,17.0,1.05774,0.954872
Asian,6,Right,18,Male,Yes,Mandarin,D,560,1,0,8,180.0,1.0,1.0,856.022,1.0,559.0,17.0,1.02286,0.908999
Asian,6,Right,18,Male,Yes,Mandarin,D,561,1,4,4,180.0,1.0,1.0,1020.85,1.0,560.0,17.0,1.1579,0.995595
Asian,6,Right,18,Male,Yes,Mandarin,D,562,1,0,4,180.0,1.0,1.0,662.459,1.0,561.0,17.0,1.19076,0.934169
Asian,6,Right,18,Male,Yes,Mandarin,D,563,0,8,0,180.0,1.0,1.0,749.826,1.0,562.0,17.0,1.0421,0.84458
Asian,6,Right,18,Male,Yes,Mandarin,D,564,0,4,8,0.0,0.0,1.0,725.696,1.0,563.0,17.0,1.00497,0.944661
Asian,6,Right,18,Male,Yes,Mandarin,D,565,0,0,0,0.0,0.0,1.0,796.199,1.0,564.0,17.0,1.19155,0.992064
Asian,6,Right,18,Male,Yes,Mandarin,D,566,1,4,0,0.0,0.0,1.0,867.654,1.0,565.0,17.0,1.05999,0.820997
Asian,6,Right,18,Male,Yes,Mandarin,D,567,0,0,16,0.0,0.0,1.0,814.261,1.0,566.0,17.0,1.04936,0.973279
Asian,6,Right,18,Male,Yes,Mandarin,D,568,0,4,4,180.0,1.0,1.0,785.664,1.0,567.0,17.0,1.14292,0.838211
Asian,6,Right,18,Male,Yes,Mandarin,D,569,0,16,4,180.0,1.0,1.0,986.826,1.0,568.0,17.0,1.16018,0.906833
Asian,6,Right,18,Male,Yes,Mandarin,D,570,0,8,4,0.0,0.0,1.0,1458.25,1.0,569.0,17.0,1.08544,0.90618
Asian,6,Right,18,Male,Yes,Mandarin,D,571,0,16,8,0.0,0.0,1.0,726.556,1.0,570.0,17.0,1.18301,0.84262
Asian,6,Right,18,Male,Yes,Mandarin,D,572,1,8,0,180.0,1.0,1.0,855.453,1.0,571.0,17.0,1.17612,0.863579
Asian,6,Right,18,Male,Yes,Mandarin,D,573,1,16,4,180.0,1.0,1.0,1277.87,1.0,572.0,17.0,1.17299,0.975932
Asian,6,Right,18,Male,Yes,Mandarin,D,574,1,4,16,0.0,0.0,1.0,946.835,1.0,573.0,17.0,1.19198,0.981181
Asian,6,Right,18,Male,Yes,Mandarin,D,575,1,16,16,0.0,0.0,1.0,1147.66,1.0,574.0,17.0,1.19258,0.916984
Asian,6,Right,18,Male,Yes,Mandarin,D,576,0,8,16,180.0,1.0,1.0,1972.54,1.0,575.0,17.0,1.06376,0.965884
Asian,6,Right,18,Male,Yes,Mandarin,D,577,0,0,8,180.0,9999.0,0.0,9999.0,1.0,576.0,18.0,1.14952,0.80656
Asian,6,Right,18,Male,Yes,Mandarin,D,578,0,0,16,0.0,0.0,1.0,769.316,1.0,577.0,18.0,1.14927,0.926186
Asian,6,Right,18,Male,Yes,Mandarin,D,579,1,16,8,180.0,1.0,1.0,1355.97,1.0,578.0,18.0,1.15314,0.84348
Asian,6,Right,18,Male,Yes,Mandarin,D,580,0,8,4,0.0,1.0,0.0,582.784,1.0,579.0,18.0,1.17557,0.954898
Asian,6,Right,18,Male,Yes,Mandarin,D,581,0,16,0,180.0,1.0,1.0,1020.04,1.0,580.0,18.0,1.1732,0.984978
Asian,6,Right,18,Male,Yes,Mandarin,D,582,1,0,8,0.0,0.0,1.0,1503.56,1.0,581.0,18.0,1.01996,0.973209
Asian,6,Right,18,Male,Yes,Mandarin,D,583,1,0,16,180.0,1.0,1.0,2406.24,1.0,582.0,18.0,1.13808,0.942616
Asian,6,Right,18,Male,Yes,Mandarin,D,584,0,4,8,180.0,1.0,1.0,2359.51,1.0,583.0,18.0,1.03668,0.855832
Asian,6,Right,18,Male,Yes,Mandarin,D,585,0,4,4,0.0,0.0,1.0,967.296,1.0,584.0,18.0,1.02148,0.978721
Asian,6,Right,18,Male,Yes,Mandarin,D,586,1,4,0,180.0,9999.0,0.0,9999.0,1.0,585.0,18.0,1.02104,0.833411
Asian,6,Right,18,Male,Yes,Mandarin,D,587,1,8,0,0.0,0.0,1.0,1105.1,1.0,586.0,18.0,1.13891,0.971982
Asian,6,Right,18,Male,Yes,Mandarin,D,588,0,8,8,180.0,1.0,1.0,1373.46,1.0,587.0,18.0,1.09869,0.855918
Asian,6,Right,18,Male,Yes,Mandarin,D,589,0,16,16,0.0,0.0,1.0,1167.12,1.0,588.0,18.0,1.03116,0.929594
Asian,6,Right,18,Male,Yes,Mandarin,D,590,1,0,4,0.0,9999.0,0.0,9999.0,1.0,589.0,18.0,1.15425,0.930949
Asian,6,Right,18,Male,Yes,Mandarin,D,591,0,8,16,180.0,1.0,1.0,901.249,1.0,590.0,18.0,1.07573,0.920747
Asian,6,Right,18,Male,Yes,Mandarin,D,592,1,4,8,0.0,0.0,1.0,693.272,1.0,591.0,18.0,1.18657,0.806004
Asian,6,Right,18,Male,Yes,Mandarin,D,593,0,4,16,180.0,1.0,1.0,902.185,1.0,592.0,18.0,1.1089,0.892238
Asian,6,Right,18,Male,Yes,Mandarin,D,594,0,16,8,0.0,0.0,1.0,1719.63,1.0,593.0,18.0,1.13659,0.82979
Asian,6,Right,18,Male,Yes,Mandarin,D,595,1,0,0,180.0,1.0,1.0,652.033,1.0,594.0,18.0,1.17826,0.846936
Asian,6,Right,18,Male,Yes,Mandarin,D,596,1,8,8,0.0,9999.0,0.0,9999.0,1.0,595.0,18.0,1.13507,0.933009
Asian,6,Right,18,Male,Yes,Mandarin,D,597,1,8,4,180.0,1.0,1.0,759.976,1.0,596.0,18.0,1.17063,0.913454
Asian,6,Right,18,Male,Yes,Mandarin,D,598,1,4,16,180.0,1.0,1.0,748.922,1.0,597.0,18.0,1.18937,0.997187
Asian,6,Right,18,Male,Yes,Mandarin,D,599,0,8,0,0.0,0.0,1.0,1153.86,1.0,598.0,18.0,1.05521,0.894665
Asian,6,Right,18,Male,Yes,Mandarin,D,600,0,16,4,180.0,1.0,1.0,1347.06,1.0,599.0,18.0,1.18447,0.980165
Asian,6,Right,18,Male,Yes,Mandarin,D,601,1,16,0,0.0,9999.0,0.0,9999.0,1.0,600.0,18.0,1.04682,0.939125
Asian,6,Right,18,Male,Yes,Mandarin,D,602,0,0,4,0.0,0.0,1.0,896.621,1.0,601.0,18.0,1.04791,0.977374
Asian,6,Right,18,Male,Yes,Mandarin,D,603,1,4,4,0.0,9999.0,0.0,9999.0,1.0,602.0,18.0,1.00612,0.951789
Asian,6,Right,18,Male,Yes,Mandarin,D,604,1,16,4,180.0,9999.0,0.0,9999.0,1.0,603.0,18.0,1.02083,0.99714
Asian,6,Right,18,Male,Yes,Mandarin,D,605,0,4,0,180.0,1.0,1.0,577.859,1.0,604.0,18.0,1.01232,0.805809
Asian,6,Right,18,Male,Yes,Mandarin,D,606,1,8,16,0.0,0.0,1.0,1467.55,1.0,605.0,18.0,1.02629,0.851634
Asian,6,Right,18,Male,Yes,Mandarin,D,607,0,0,0,0.0,9999.0,0.0,9999.0,1.0,606.0,18.0,1.18236,0.859476
Asian,6,Right,18,Male,Yes,Mandarin,D,608,1,16,16,180.0,0.0,0.0,1955.89,1.0,607.0,18.0,1.02417,0.834167
Asian,6,Right,18,Male,Yes,Mandarin,D,609,1,4,0,0.0,0.0,1.0,1096.84,1.0,608.0,19.0,1.09577,0.893004
Asian,6,Right,18,Male,Yes,Mandarin,D,610,0,4,4,0.0,1.0,0.0,2353.96,1.0,609.0,19.0,1.13774,0.891664
Asian,6,Right,18,Male,Yes,Mandarin,D,611,0,0,16,0.0,9999.0,0.0,9999.0,1.0,610.0,19.0,1.19368,0.968254
Asian,6,Right,18,Male,Yes,Mandarin,D,612,0,0,8,180.0,1.0,1.0,795.897,1.0,611.0,19.0,1.13038,0.904895
Asian,6,Right,18,Male,Yes,Mandarin,D,613,1,8,0,180.0,1.0,1.0,2050.66,1.0,612.0,19.0,1.16318,0.846335
Asian,6,Right,18,Male,Yes,Mandarin,D,614,0,8,16,180.0,1.0,1.0,1929.78,1.0,613.0,19.0,1.02895,0.847051
Asian,6,Right,18,Male,Yes,Mandarin,D,615,0,16,16,0.0,9999.0,0.0,9999.0,1.0,614.0,19.0,1.02749,0.881804
Asian,6,Right,18,Male,Yes,Mandarin,D,616,0,0,4,180.0,0.0,0.0,811.224,1.0,615.0,19.0,1.03796,0.845663
Asian,6,Right,18,Male,Yes,Mandarin,D,617,1,0,16,180.0,9999.0,0.0,9999.0,1.0,616.0,19.0,1.00838,0.990813
Asian,6,Right,18,Male,Yes,Mandarin,D,618,0,4,0,0.0,1.0,0.0,1145.98,1.0,617.0,19.0,1.07131,0.850751
Asian,6,Right,18,Male,Yes,Mandarin,D,619,0,16,4,0.0,0.0,1.0,822.649,1.0,618.0,19.0,1.11536,0.838082
Asian,6,Right,18,Male,Yes,Mandarin,D,620,0,16,0,0.0,9999.0,0.0,9999.0,1.0,619.0,19.0,1.11219,0.816098
Asian,6,Right,18,Male,Yes,Mandarin,D,621,0,0,0,180.0,1.0,1.0,1294.77,1.0,620.0,19.0,1.06661,0.908573
Asian,6,Right,18,Male,Yes,Mandarin,D,622,1,8,4,180.0,9999.0,0.0,9999.0,1.0,621.0,19.0,1.1049,0.85585
Asian,6,Right,18,Male,Yes,Mandarin,D,623,0,8,4,180.0,1.0,1.0,304.485,1.0,622.0,19.0,1.0037,0.882658
Asian,6,Right,18,Male,Yes,Mandarin,D,624,1,16,8,0.0,9999.0,0.0,9999.0,1.0,623.0,19.0,1.05626,0.808049
Asian,6,Right,18,Male,Yes,Mandarin,D,625,0,8,0,180.0,1.0,1.0,1538.78,1.0,624.0,19.0,1.04623,0.948541
Asian,6,Right,18,Male,Yes,Mandarin,D,626,1,4,8,0.0,9999.0,0.0,9999.0,1.0,625.0,19.0,1.18271,0.872801
Asian,6,Right,18,Male,Yes,Mandarin,D,627,1,16,16,0.0,9999.0,0.0,9999.0,1.0,626.0,19.0,1.16679,0.91818
Asian,6,Right,18,Male,Yes,Mandarin,D,628,1,4,16,0.0,0.0,1.0,1027.72,1.0,627.0,19.0,1.15001,0.935161
Asian,6,Right,18,Male,Yes,Mandarin,D,629,0,8,8,180.0,1.0,1.0,1289.59,1.0,628.0,19.0,1.07457,0.901535
Asian,6,Right,18,Male,Yes,Mandarin,D,630,1,8,16,0.0,0.0,1.0,801.74,1.0,629.0,19.0,1.17845,0.908009
Asian,6,Right,18,Male,Yes,Mandarin,D,631,1,0,0,180.0,1.0,1.0,1400.89,1.0,630.0,19.0,1.18418,0.966694
Asian,6,Right,18,Male,Yes,Mandarin,D,632,0,16,8,180.0,9999.0,0.0,9999.0,1.0,631.0,19.0,1.15922,0.945213
Asian,6,Right,18,Male,Yes,Mandarin,D,633,0,4,16,0.0,0.0,1.0,851.434,1.0,632.0,19.0,1.03057,0.831121
Asian,6,Right,18,Male,Yes,Mandarin,D,634,1,4,4,180.0,9999.0,0.0,9999.0,1.0,633.0,19.0,1.17537,0.9663
Asian,6,Right,18,Male,Yes,Mandarin,D,635,1,8,8,0.0,0.0,1.0,1434.57,1.0,634.0,19.0,1.09697,0.81283
Asian,6,Right,18,Male,Yes,Mandarin,D,636,1,0,4,0.0,9999.0,0.0,9999.0,1.0,635.0,19.0,1.11324,0.883827
Asian,6,Right,18,Male,Yes,Mandarin,D,637,1,16,4,180.0,9999.0,0.0,9999.0,1.0,636.0,19.0,1.05211,0.860913
Asian,6,Right,18,Male,Yes,Mandarin,D,638,1,0,8,0.0,9999.0,0.0,9999.0,1.0,637.0,19.0,1.13744,0.937395
Asian,6,Right,18,Male,Yes,Mandarin,D,639,1,16,0,180.0,9999.0,0.0,9999.0,1.0,638.0,19.0,1.10245,0.960235
Asian,6,Right,18,Male,Yes,Mandarin,D,640,0,4,8,180.0,1.0,1.0,1281.91,1.0,639.0,19.0,1.03974,0.897337
Asian,6,Right,18,Male,Yes,Mandarin,D,641,1,4,0,0.0,9999.0,0.0,9999.0,1.0,640.0,20.0,1.09767,0.971522
Asian,6,Right,18,Male,Yes,Mandarin,D,642,1,0,16,180.0,9999.0,0.0,9999.0,1.0,641.0,20.0,1.07769,0.845448
Asian,6,Right,18,Male,Yes,Mandarin,D,643,1,0,4,180.0,1.0,1.0,833.616,1.0,642.0,20.0,1.11454,0.924998
Asian,6,Right,18,Male,Yes,Mandarin,D,644,0,0,0,180.0,1.0,1.0,2052.23,1.0,643.0,20.0,1.11612,0.916677
Asian,6,Right,18,Male,Yes,Mandarin,D,645,1,16,8,0.0,0.0,1.0,1654.04,1.0,644.0,20.0,1.18609,0.940553
Asian,6,Right,18,Male,Yes,Mandarin,D,646,0,16,4,0.0,9999.0,0.0,9999.0,1.0,645.0,20.0,1.13974,0.927381
Asian,6,Right,18,Male,Yes,Mandarin,D,647,0,0,8,180.0,1.0,1.0,1123.85,1.0,646.0,20.0,1.17761,0.80873
Asian,6,Right,18,Male,Yes,Mandarin,D,648,0,8,8,180.0,9999.0,0.0,9999.0,1.0,647.0,20.0,1.06865,0.977573
Asian,6,Right,18,Male,Yes,Mandarin,D,649,0,0,16,180.0,1.0,1.0,1885.55,1.0,648.0,20.0,1.02406,0.963572
Asian,6,Right,18,Male,Yes,Mandarin,D,650,0,4,16,0.0,9999.0,0.0,9999.0,1.0,649.0,20.0,1.02762,0.975616
Asian,6,Right,18,Male,Yes,Mandarin,D,651,0,4,4,0.0,9999.0,0.0,9999.0,1.0,650.0,20.0,1.07682,0.845491
Asian,6,Right,18,Male,Yes,Mandarin,D,652,1,16,4,180.0,1.0,1.0,958.239,1.0,651.0,20.0,1.03602,0.84775
Asian,6,Right,18,Male,Yes,Mandarin,D,653,1,16,16,180.0,9999.0,0.0,9999.0,1.0,652.0,20.0,1.07693,0.966699
Asian,6,Right,18,Male,Yes,Mandarin,D,654,0,8,0,0.0,0.0,1.0,1059.56,1.0,653.0,20.0,1.10544,0.976269
Asian,6,Right,18,Male,Yes,Mandarin,D,655,1,0,0,0.0,9999.0,0.0,9999.0,1.0,654.0,20.0,1.18775,0.921752
Asian,6,Right,18,Male,Yes,Mandarin,D,656,1,16,0,0.0,0.0,1.0,1815.34,1.0,655.0,20.0,1.16155,0.968881
Asian,6,Right,18,Male,Yes,Mandarin,D,657,0,4,0,0.0,0.0,1.0,1972.03,1.0,656.0,20.0,1.02169,0.899139
Asian,6,Right,18,Male,Yes,Mandarin,D,658,1,8,16,0.0,0.0,1.0,1898.9,1.0,657.0,20.0,1.10773,0.979995
Asian,6,Right,18,Male,Yes,Mandarin,D,659,0,16,16,180.0,1.0,1.0,1777.1,1.0,658.0,20.0,1.11158,0.864791
Asian,6,Right,18,Male,Yes,Mandarin,D,660,1,0,8,0.0,0.0,1.0,1081.9,1.0,659.0,20.0,1.02659,0.979458
Asian,6,Right,18,Male,Yes,Mandarin,D,661,0,4,8,180.0,1.0,1.0,1815.82,1.0,660.0,20.0,1.02682,0.921633
Asian,6,Right,18,Male,Yes,Mandarin,D,662,1,4,16,180.0,1.0,1.0,949.555,1.0,661.0,20.0,1.19273,0.963999
Asian,6,Right,18,Male,Yes,Mandarin,D,663,0,16,8,180.0,1.0,1.0,734.469,1.0,662.0,20.0,1.13133,0.82785
Asian,6,Right,18,Male,Yes,Mandarin,D,664,1,8,8,180.0,1.0,1.0,1010.86,1.0,663.0,20.0,1.00335,0.98127
Asian,6,Right,18,Male,Yes,Mandarin,D,665,0,8,16,0.0,0.0,1.0,700.24,1.0,664.0,20.0,1.19719,0.868512
Asian,6,Right,18,Male,Yes,Mandarin,D,666,0,0,4,0.0,1.0,0.0,626.707,1.0,665.0,20.0,1.03148,0.92239
Asian,6,Right,18,Male,Yes,Mandarin,D,667,1,4,4,0.0,0.0,1.0,523.941,1.0,666.0,20.0,1.04107,0.989972
Asian,6,Right,18,Male,Yes,Mandarin,D,668,1,8,0,180.0,1.0,1.0,681.416,1.0,667.0,20.0,1.16386,0.996074
Asian,6,Right,18,Male,Yes,Mandarin,D,669,0,16,0,0.0,0.0,1.0,1125.4,1.0,668.0,20.0,1.03733,0.935338
Asian,6,Right,18,Male,Yes,Mandarin,D,670,0,8,4,180.0,1.0,1.0,813.706,1.0,669.0,20.0,1.03499,0.982921
Asian,6,Right,18,Male,Yes,Mandarin,D,671,1,8,4,0.0,0.0,1.0,1906.67,1.0,670.0,20.0,1.18267,0.925344
Asian,6,Right,18,Male,Yes,Mandarin,D,672,1,4,8,180.0,1.0,1.0,641.644,1.0,671.0,20.0,1.14519,0.934948
Asian,6,Right,18,Male,Yes,Mandarin,D,673,0,0,16,180.0,9999.0,0.0,9999.0,1.0,672.0,21.0,1.01977,0.817853
Asian,6,Right,18,Male,Yes,Mandarin,D,674,0,8,8,0.0,0.0,1.0,658.38,1.0,673.0,21.0,1.11793,0.891382
Asian,6,Right,18,Male,Yes,Mandarin,D,675,1,0,8,180.0,1.0,1.0,942.332,1.0,674.0,21.0,1.12667,0.894201
Asian,6,Right,18,Male,Yes,Mandarin,D,676,1,0,16,180.0,1.0,1.0,756.573,1.0,675.0,21.0,1.12378,0.875161
Asian,6,Right,18,Male,Yes,Mandarin,D,677,1,8,4,0.0,0.0,1.0,683.694,1.0,676.0,21.0,1.02759,0.858308
Asian,6,Right,18,Male,Yes,Mandarin,D,678,0,8,0,0.0,0.0,1.0,849.153,1.0,677.0,21.0,1.02256,0.84125
Asian,6,Right,18,Male,Yes,Mandarin,D,679,0,4,0,0.0,0.0,1.0,911.106,1.0,678.0,21.0,1.03032,0.85402
Asian,6,Right,18,Male,Yes,Mandarin,D,680,1,4,8,180.0,0.0,0.0,1744.09,1.0,679.0,21.0,1.06443,0.945935
Asian,6,Right,18,Male,Yes,Mandarin,D,681,0,4,8,0.0,0.0,1.0,2029.66,1.0,680.0,21.0,1.11646,0.945372
Asian,6,Right,18,Male,Yes,Mandarin,D,682,1,4,4,180.0,1.0,1.0,660.091,1.0,681.0,21.0,1.01349,0.920918
Asian,6,Right,18,Male,Yes,Mandarin,D,683,1,8,8,0.0,0.0,1.0,1167.97,1.0,682.0,21.0,1.0622,0.800083
Asian,6,Right,18,Male,Yes,Mandarin,D,684,1,0,0,180.0,1.0,1.0,721.438,1.0,683.0,21.0,1.00269,0.932614
Asian,6,Right,18,Male,Yes,Mandarin,D,685,0,16,0,180.0,1.0,1.0,844.444,1.0,684.0,21.0,1.07303,0.854219
Asian,6,Right,18,Male,Yes,Mandarin,D,686,0,8,4,0.0,0.0,1.0,1132.9,1.0,685.0,21.0,1.16483,0.876519
Asian,6,Right,18,Male,Yes,Mandarin,D,687,1,16,8,0.0,0.0,1.0,1742.74,1.0,686.0,21.0,1.15141,0.804579
Asian,6,Right,18,Male,Yes,Mandarin,D,688,1,4,0,180.0,1.0,1.0,1442.53,1.0,687.0,21.0,1.14933,0.864168
Asian,6,Right,18,Male,Yes,Mandarin,D,689,0,16,16,180.0,1.0,1.0,893.569,1.0,688.0,21.0,1.14698,0.887406
Asian,6,Right,18,Male,Yes,Mandarin,D,690,0,0,0,180.0,1.0,1.0,746.943,1.0,689.0,21.0,1.08957,0.907613
Asian,6,Right,18,Male,Yes,Mandarin,D,691,0,8,16,0.0,0.0,1.0,790.452,1.0,690.0,21.0,1.1251,0.906345
Asian,6,Right,18,Male,Yes,Mandarin,D,692,1,8,16,180.0,1.0,1.0,670.235,1.0,691.0,21.0,1.10302,0.990972
Asian,6,Right,18,Male,Yes,Mandarin,D,693,1,16,0,180.0,1.0,1.0,661.585,1.0,692.0,21.0,1.11615,0.969767
Asian,6,Right,18,Male,Yes,Mandarin,D,694,0,16,4,180.0,1.0,1.0,862.044,1.0,693.0,21.0,1.15607,0.90658
Asian,6,Right,18,Male,Yes,Mandarin,D,695,1,16,4,0.0,0.0,1.0,656.399,1.0,694.0,21.0,1.17131,0.920856
Asian,6,Right,18,Male,Yes,Mandarin,D,696,1,16,16,180.0,1.0,1.0,1183.58,1.0,695.0,21.0,1.02413,0.947273
Asian,6,Right,18,Male,Yes,Mandarin,D,697,0,16,8,0.0,0.0,1.0,743.064,1.0,696.0,21.0,1.15864,0.824248
Asian,6,Right,18,Male,Yes,Mandarin,D,698,0,4,4,180.0,1.0,1.0,955.069,1.0,697.0,21.0,1.0031,0.882034
Asian,6,Right,18,Male,Yes,Mandarin,D,699,1,4,16,0.0,0.0,1.0,618.946,1.0,698.0,21.0,1.05954,0.912568
Asian,6,Right,18,Male,Yes,Mandarin,D,700,0,0,8,180.0,1.0,1.0,682.413,1.0,699.0,21.0,1.15137,0.980557
Asian,6,Right,18,Male,Yes,Mandarin,D,701,0,0,4,0.0,0.0,1.0,1058.4,1.0,700.0,21.0,1.01714,0.911918
Asian,6,Right,18,Male,Yes,Mandarin,D,702,1,8,0,0.0,0.0,1.0,672.001,1.0,701.0,21.0,1.1942,0.829865
Asian,6,Right,18,Male,Yes,Mandarin,D,703,0,4,16,0.0,0.0,1.0,1836.82,1.0,702.0,21.0,1.16766,0.945472
Asian,6,Right,18,Male,Yes,Mandarin,D,704,1,0,4,0.0,0.0,1.0,1014.39,1.0,703.0,21.0,1.19237,0.804544
Asian,6,Right,18,Male,Yes,Mandarin,D,705,0,16,8,0.0,0.0,1.0,902.425,1.0,704.0,22.0,1.11889,0.961988
Asian,6,Right,18,Male,Yes,Mandarin,D,706,1,0,16,0.0,0.0,1.0,1176.56,1.0,705.0,22.0,1.13797,0.822861
Asian,6,Right,18,Male,Yes,Mandarin,D,707,0,4,4,180.0,1.0,1.0,739.801,1.0,706.0,22.0,1.009,0.930682
Asian,6,Right,18,Male,Yes,Mandarin,D,708,0,16,4,180.0,1.0,1.0,933.801,1.0,707.0,22.0,1.17714,0.979775
Asian,6,Right,18,Male,Yes,Mandarin,D,709,1,16,4,180.0,1.0,1.0,1006.97,1.0,708.0,22.0,1.00878,0.924551
Asian,6,Right,18,Male,Yes,Mandarin,D,710,0,0,8,0.0,0.0,1.0,817.995,1.0,709.0,22.0,1.00049,0.824777
Asian,6,Right,18,Male,Yes,Mandarin,D,711,0,8,16,180.0,1.0,1.0,706.483,1.0,710.0,22.0,1.19241,0.879603
Asian,6,Right,18,Male,Yes,Mandarin,D,712,0,8,8,0.0,0.0,1.0,726.2,1.0,711.0,22.0,1.18575,0.911845
Asian,6,Right,18,Male,Yes,Mandarin,D,713,1,0,0,180.0,1.0,1.0,746.613,1.0,712.0,22.0,1.1225,0.961671
Asian,6,Right,18,Male,Yes,Mandarin,D,714,1,8,16,180.0,1.0,1.0,979.643,1.0,713.0,22.0,1.14748,0.846023
Asian,6,Right,18,Male,Yes,Mandarin,D,715,1,4,4,180.0,1.0,1.0,755.087,1.0,714.0,22.0,1.16839,0.924687
Asian,6,Right,18,Male,Yes,Mandarin,D,716,0,8,0,0.0,0.0,1.0,739.754,1.0,715.0,22.0,1.04482,0.94042
Asian,6,Right,18,Male,Yes,Mandarin,D,717,1,8,8,180.0,1.0,1.0,1197.17,1.0,716.0,22.0,1.18662,0.813899
Asian,6,Right,18,Male,Yes,Mandarin,D,718,1,0,8,0.0,0.0,1.0,1540.06,1.0,717.0,22.0,1.0737,0.904574
Asian,6,Right,18,Male,Yes,Mandarin,D,719,0,8,4,0.0,0.0,1.0,950.839,1.0,718.0,22.0,1.01098,0.947096
Asian,6,Right,18,Male,Yes,Mandarin,D,720,0,16,16,180.0,1.0,1.0,1701.47,1.0,719.0,22.0,1.19921,0.825456
Asian,6,Right,18,Male,Yes,Mandarin,D,721,0,16,0,180.0,1.0,1.0,932.502,1.0,720.0,22.0,1.10004,0.921682
Asian,6,Right,18,Male,Yes,Mandarin,D,722,0,4,8,0.0,0.0,1.0,1086.07,1.0,721.0,22.0,1.19949,0.92773
Asian,6,Right,18,Male,Yes,Mandarin,D,723,1,4,8,180.0,1.0,1.0,959.784,1.0,722.0,22.0,1.16661,0.827007
Asian,6,Right,18,Male,Yes,Mandarin,D,724,0,4,16,180.0,1.0,1.0,735.082,1.0,723.0,22.0,1.13849,0.862249
Asian,6,Right,18,Male,Yes,Mandarin,D,725,1,16,0,0.0,0.0,1.0,1282.95,1.0,724.0,22.0,1.17931,0.810202
Asian,6,Right,18,Male,Yes,Mandarin,D,726,1,8,4,180.0,1.0,1.0,1393.99,1.0,725.0,22.0,1.14981,0.867127
Asian,6,Right,18,Male,Yes,Mandarin,D,727,1,16,8,0.0,0.0,1.0,2438.94,1.0,726.0,22.0,1.00883,0.964616
Asian,6,Right,18,Male,Yes,Mandarin,D,728,1,4,16,180.0,1.0,1.0,1117.29,1.0,727.0,22.0,1.03802,0.811071
Asian,6,Right,18,Male,Yes,Mandarin,D,729,0,0,16,0.0,0.0,1.0,893.296,1.0,728.0,22.0,1.16108,0.819252
Asian,6,Right,18,Male,Yes,Mandarin,D,730,0,0,0,0.0,0.0,1.0,989.164,1.0,729.0,22.0,1.18347,0.822511
Asian,6,Right,18,Male,Yes,Mandarin,D,731,1,4,0,0.0,0.0,1.0,980.183,1.0,730.0,22.0,1.1797,0.964915
Asian,6,Right,18,Male,Yes,Mandarin,D,732,1,16,16,0.0,0.0,1.0,1346.92,1.0,731.0,22.0,1.18443,0.897371
Asian,6,Right,18,Male,Yes,Mandarin,D,733,1,0,4,180.0,1.0,1.0,1225.84,1.0,732.0,22.0,1.07506,0.896809
Asian,6,Right,18,Male,Yes,Mandarin,D,734,0,0,4,180.0,1.0,1.0,722.752,1.0,733.0,22.0,1.18747,0.926725
Asian,6,Right,18,Male,Yes,Mandarin,D,735,1,8,0,0.0,0.0,1.0,1653.38,1.0,734.0,22.0,1.04865,0.800543
Asian,6,Right,18,Male,Yes,Mandarin,D,736,0,4,0,0.0,0.0,1.0,1214.64,1.0,735.0,22.0,1.02723,0.851209
Asian,6,Right,18,Male,Yes,Mandarin,D,737,1,16,8,0.0,0.0,1.0,645.036,1.0,736.0,23.0,1.15858,0.896826
Asian,6,Right,18,Male,Yes,Mandarin,D,738,0,0,4,0.0,0.0,1.0,902.817,1.0,737.0,23.0,1.12712,0.862583
Asian,6,Right,18,Male,Yes,Mandarin,D,739,0,8,8,0.0,0.0,1.0,766.079,1.0,738.0,23.0,1.0599,0.923058
Asian,6,Right,18,Male,Yes,Mandarin,D,740,0,8,16,0.0,0.0,1.0,782.867,1.0,739.0,23.0,1.06273,0.872732
Asian,6,Right,18,Male,Yes,Mandarin,D,741,0,16,16,180.0,1.0,1.0,1211.16,1.0,740.0,23.0,1.00187,0.839416
Asian,6,Right,18,Male,Yes,Mandarin,D,742,1,0,16,0.0,0.0,1.0,661.674,1.0,741.0,23.0,1.04264,0.830158
Asian,6,Right,18,Male,Yes,Mandarin,D,743,1,4,0,0.0,0.0,1.0,779.269,1.0,742.0,23.0,1.1077,0.808605
Asian,6,Right,18,Male,Yes,Mandarin,D,744,1,4,4,180.0,1.0,1.0,781.729,1.0,743.0,23.0,1.06079,0.959329
Asian,6,Right,18,Male,Yes,Mandarin,D,745,1,8,4,180.0,1.0,1.0,1368.89,1.0,744.0,23.0,1.09257,0.996492
Asian,6,Right,18,Male,Yes,Mandarin,D,746,1,16,0,0.0,0.0,1.0,1687.77,1.0,745.0,23.0,1.07789,0.971745
Asian,6,Right,18,Male,Yes,Mandarin,D,747,1,16,4,0.0,0.0,1.0,857.125,1.0,746.0,23.0,1.07026,0.934336
Asian,6,Right,18,Male,Yes,Mandarin,D,748,1,0,8,180.0,1.0,1.0,870.623,1.0,747.0,23.0,1.0297,0.824778
Asian,6,Right,18,Male,Yes,Mandarin,D,749,0,4,0,180.0,1.0,1.0,1239.31,1.0,748.0,23.0,1.15642,0.969096
Asian,6,Right,18,Male,Yes,Mandarin,D,750,0,4,16,0.0,0.0,1.0,774.906,1.0,749.0,23.0,1.17425,0.908107
Asian,6,Right,18,Male,Yes,Mandarin,D,751,1,4,16,0.0,0.0,1.0,1207.1,1.0,750.0,23.0,1.00004,0.887307
Asian,6,Right,18,Male,Yes,Mandarin,D,752,1,8,16,180.0,1.0,1.0,733.321,1.0,751.0,23.0,1.1947,0.968766
Asian,6,Right,18,Male,Yes,Mandarin,D,753,1,8,0,180.0,1.0,1.0,1020.42,1.0,752.0,23.0,1.14529,0.961642
Asian,6,Right,18,Male,Yes,Mandarin,D,754,1,8,8,0.0,0.0,1.0,658.325,1.0,753.0,23.0,1.06449,0.964242
Asian,6,Right,18,Male,Yes,Mandarin,D,755,1,0,0,180.0,1.0,1.0,805.32,1.0,754.0,23.0,1.18297,0.81062
Asian,6,Right,18,Male,Yes,Mandarin,D,756,0,16,8,0.0,1.0,0.0,2393.32,1.0,755.0,23.0,1.06878,0.985789
Asian,6,Right,18,Male,Yes,Mandarin,D,757,1,0,4,180.0,1.0,1.0,754.679,1.0,756.0,23.0,1.15138,0.848902
Asian,6,Right,18,Male,Yes,Mandarin,D,758,0,0,16,180.0,1.0,1.0,1072.12,1.0,757.0,23.0,1.05586,0.898318
Asian,6,Right,18,Male,Yes,Mandarin,D,759,0,4,4,180.0,1.0,1.0,1257.81,1.0,758.0,23.0,1.17768,0.988387
Asian,6,Right,18,Male,Yes,Mandarin,D,760,0,16,0,180.0,1.0,1.0,865.452,1.0,759.0,23.0,1.1712,0.971569
Asian,6,Right,18,Male,Yes,Mandarin,D,761,0,0,8,0.0,0.0,1.0,1552.84,1.0,760.0,23.0,1.11676,0.817211
Asian,6,Right,18,Male,Yes,Mandarin,D,762,0,8,4,180.0,1.0,1.0,806.34,1.0,761.0,23.0,1.08458,0.93391
Asian,6,Right,18,Male,Yes,Mandarin,D,763,0,8,0,0.0,0.0,1.0,854.482,1.0,762.0,23.0,1.07016,0.848122
Asian,6,Right,18,Male,Yes,Mandarin,D,764,0,16,4,180.0,1.0,1.0,662.487,1.0,763.0,23.0,1.05163,0.953441
Asian,6,Right,18,Male,Yes,Mandarin,D,765,1,4,8,0.0,0.0,1.0,723.655,1.0,764.0,23.0,1.05533,0.926575
Asian,6,Right,18,Male,Yes,Mandarin,D,766,0,4,8,180.0,1.0,1.0,790.143,1.0,765.0,23.0,1.1445,0.827911
Asian,6,Right,18,Male,Yes,Mandarin,D,767,0,0,0,0.0,0.0,1.0,732.075,1.0,766.0,23.0,1.03873,0.853547
Asian,6,Right,18,Male,Yes,Mandarin,D,768,1,16,16,180.0,1.0,1.0,977.057,1.0,767.0,23.0,1.04681,0.89223
