Ethnicity,Subject Number,Preferred Hand,Age,Gender,Color blind,First Language,Room,TrialNumber,background,turtles,tortoises,target_id,resp,hit,rt,ran,order,block,iti,fix_duration
White,8,Right,1888,Male,Yes,English,E,1,1,8,16,0.0,0.0,1.0,802.756,1.0,0.0,0.0,1.09571,0.853005
White,8,Right,1888,Male,Yes,English,E,2,0,4,16,0.0,0.0,1.0,744.941,1.0,1.0,0.0,1.10848,0.839126
White,8,Right,1888,Male,Yes,English,E,3,0,8,16,180.0,1.0,1.0,916.967,1.0,2.0,0.0,1.04933,0.878003
White,8,Right,1888,Male,Yes,English,E,4,0,0,16,0.0,0.0,1.0,711.136,1.0,3.0,0.0,1.12238,0.975633
White,8,Right,1888,Male,Yes,English,E,5,0,4,0,0.0,0.0,1.0,824.005,1.0,4.0,0.0,1.14977,0.847024
White,8,Right,1888,Male,Yes,English,E,6,0,0,0,180.0,1.0,1.0,538.869,1.0,5.0,0.0,1.00603,0.857455
White,8,Right,1888,Male,Yes,English,E,7,0,8,8,180.0,1.0,1.0,850.497,1.0,6.0,0.0,1.15925,0.964612
White,8,Right,1888,Male,Yes,English,E,8,1,0,16,0.0,0.0,1.0,638.807,1.0,7.0,0.0,1.04291,0.842596
White,8,Right,1888,Male,Yes,English,E,9,1,8,4,180.0,1.0,1.0,857.906,1.0,8.0,0.0,1.12748,0.958515
White,8,Right,1888,Male,Yes,English,E,10,1,8,0,0.0,0.0,1.0,659.926,1.0,9.0,0.0,1.08025,0.949531
White,8,Right,1888,Male,Yes,English,E,11,0,4,8,180.0,1.0,1.0,517.046,1.0,10.0,0.0,1.09914,0.854911
White,8,Right,1888,Male,Yes,English,E,12,1,4,0,0.0,0.0,1.0,865.448,1.0,11.0,0.0,1.18343,0.839817
White,8,Right,1888,Male,Yes,English,E,13,1,4,8,180.0,1.0,1.0,781.377,1.0,12.0,0.0,1.15981,0.934357
White,8,Right,1888,Male,Yes,English,E,14,1,16,0,180.0,0.0,0.0,815.677,1.0,13.0,0.0,1.10598,0.813405
White,8,Right,1888,Male,Yes,English,E,15,1,16,4,180.0,1.0,1.0,624.448,1.0,14.0,0.0,1.05726,0.948903
White,8,Right,1888,Male,Yes,English,E,16,1,0,8,180.0,1.0,1.0,706.778,1.0,15.0,0.0,1.03835,0.871827
White,8,Right,1888,Male,Yes,English,E,17,1,8,8,0.0,0.0,1.0,771.636,1.0,16.0,0.0,1.19768,0.831837
White,8,Right,1888,Male,Yes,English,E,18,0,4,4,180.0,1.0,1.0,1203.82,1.0,17.0,0.0,1.19139,0.829116
White,8,Right,1888,Male,Yes,English,E,19,0,16,4,180.0,1.0,1.0,830.677,1.0,18.0,0.0,1.10917,0.833339
White,8,Right,1888,Male,Yes,English,E,20,1,16,16,180.0,1.0,1.0,903.165,1.0,19.0,0.0,1.174,0.950162
White,8,Right,1888,Male,Yes,English,E,21,0,16,16,0.0,0.0,1.0,659.992,1.0,20.0,0.0,1.16852,0.830524
White,8,Right,1888,Male,Yes,English,E,22,0,8,0,180.0,1.0,1.0,841.825,1.0,21.0,0.0,1.05918,0.844257
White,8,Right,1888,Male,Yes,English,E,23,0,16,8,0.0,1.0,0.0,467.929,1.0,22.0,0.0,1.19703,0.927058
White,8,Right,1888,Male,Yes,English,E,24,0,0,8,180.0,1.0,1.0,508.032,1.0,23.0,0.0,1.05763,0.872037
White,8,Right,1888,Male,Yes,English,E,25,1,4,4,0.0,0.0,1.0,652.914,1.0,24.0,0.0,1.0263,0.871178
White,8,Right,1888,Male,Yes,English,E,26,0,8,4,180.0,1.0,1.0,1122.48,1.0,25.0,0.0,1.1737,0.991802
White,8,Right,1888,Male,Yes,English,E,27,1,4,16,0.0,0.0,1.0,541.486,1.0,26.0,0.0,1.1656,0.99333
White,8,Right,1888,Male,Yes,English,E,28,1,0,0,0.0,0.0,1.0,606.539,1.0,27.0,0.0,1.14521,0.973622
White,8,Right,1888,Male,Yes,English,E,29,0,16,0,0.0,0.0,1.0,623.15,1.0,28.0,0.0,1.14293,0.913098
White,8,Right,1888,Male,Yes,English,E,30,0,0,4,0.0,0.0,1.0,806.869,1.0,29.0,0.0,1.16615,0.800815
White,8,Right,1888,Male,Yes,English,E,31,1,0,4,0.0,0.0,1.0,517.759,1.0,30.0,0.0,1.11798,0.860097
White,8,Right,1888,Male,Yes,English,E,32,1,16,8,180.0,0.0,0.0,561.939,1.0,31.0,0.0,1.04944,0.93209
White,8,Right,1888,Male,Yes,English,E,33,0,4,8,180.0,1.0,1.0,778.337,1.0,32.0,1.0,1.12184,0.983106
White,8,Right,1888,Male,Yes,English,E,34,0,16,8,0.0,0.0,1.0,971.915,1.0,33.0,1.0,1.07728,0.941009
White,8,Right,1888,Male,Yes,English,E,35,1,16,0,0.0,0.0,1.0,585.496,1.0,34.0,1.0,1.16415,0.81896
White,8,Right,1888,Male,Yes,English,E,36,0,8,0,180.0,1.0,1.0,574.558,1.0,35.0,1.0,1.18112,0.97764
White,8,Right,1888,Male,Yes,English,E,37,1,0,16,180.0,1.0,1.0,723.245,1.0,36.0,1.0,1.08661,0.809755
White,8,Right,1888,Male,Yes,English,E,38,0,4,16,0.0,0.0,1.0,751.94,1.0,37.0,1.0,1.18295,0.92837
White,8,Right,1888,Male,Yes,English,E,39,1,8,4,0.0,0.0,1.0,822.07,1.0,38.0,1.0,1.17224,0.894343
White,8,Right,1888,Male,Yes,English,E,40,1,4,16,0.0,0.0,1.0,991.637,1.0,39.0,1.0,1.06348,0.915724
White,8,Right,1888,Male,Yes,English,E,41,0,4,0,0.0,0.0,1.0,578.849,1.0,40.0,1.0,1.15184,0.937927
White,8,Right,1888,Male,Yes,English,E,42,0,0,0,0.0,0.0,1.0,614.602,1.0,41.0,1.0,1.08928,0.999201
White,8,Right,1888,Male,Yes,English,E,43,1,8,16,0.0,0.0,1.0,647.793,1.0,42.0,1.0,1.09909,0.870824
White,8,Right,1888,Male,Yes,English,E,44,1,8,0,180.0,1.0,1.0,867.643,1.0,43.0,1.0,1.15984,0.978732
White,8,Right,1888,Male,Yes,English,E,45,1,4,4,180.0,1.0,1.0,799.669,1.0,44.0,1.0,1.1837,0.821292
White,8,Right,1888,Male,Yes,English,E,46,0,0,8,0.0,0.0,1.0,797.623,1.0,45.0,1.0,1.14759,0.848958
White,8,Right,1888,Male,Yes,English,E,47,1,16,4,0.0,0.0,1.0,746.873,1.0,46.0,1.0,1.14881,0.942163
White,8,Right,1888,Male,Yes,English,E,48,1,4,8,180.0,1.0,1.0,729.112,1.0,47.0,1.0,1.12248,0.858871
White,8,Right,1888,Male,Yes,English,E,49,1,4,0,180.0,1.0,1.0,791.392,1.0,48.0,1.0,1.0031,0.842808
White,8,Right,1888,Male,Yes,English,E,50,0,16,4,180.0,1.0,1.0,1203.52,1.0,49.0,1.0,1.17355,0.905235
White,8,Right,1888,Male,Yes,English,E,51,0,0,16,0.0,0.0,1.0,880.865,1.0,50.0,1.0,1.19234,0.81898
White,8,Right,1888,Male,Yes,English,E,52,1,16,16,0.0,0.0,1.0,664.634,1.0,51.0,1.0,1.15375,0.824622
White,8,Right,1888,Male,Yes,English,E,53,0,8,16,180.0,1.0,1.0,748.771,1.0,52.0,1.0,1.02583,0.809583
White,8,Right,1888,Male,Yes,English,E,54,0,16,0,180.0,1.0,1.0,743.067,1.0,53.0,1.0,1.07573,0.978089
White,8,Right,1888,Male,Yes,English,E,55,1,0,0,0.0,0.0,1.0,576.33,1.0,54.0,1.0,1.10306,0.886334
White,8,Right,1888,Male,Yes,English,E,56,1,16,8,180.0,1.0,1.0,600.587,1.0,55.0,1.0,1.06772,0.808097
White,8,Right,1888,Male,Yes,English,E,57,0,8,4,0.0,0.0,1.0,745.377,1.0,56.0,1.0,1.00318,0.856629
White,8,Right,1888,Male,Yes,English,E,58,0,16,16,0.0,0.0,1.0,1104.86,1.0,57.0,1.0,1.10666,0.945441
White,8,Right,1888,Male,Yes,English,E,59,0,4,4,180.0,1.0,1.0,780.543,1.0,58.0,1.0,1.01279,0.800299
White,8,Right,1888,Male,Yes,English,E,60,1,0,8,180.0,1.0,1.0,1073.34,1.0,59.0,1.0,1.01512,0.926873
White,8,Right,1888,Male,Yes,English,E,61,1,8,8,0.0,1.0,0.0,824.23,1.0,60.0,1.0,1.03592,0.888182
White,8,Right,1888,Male,Yes,English,E,62,0,8,8,180.0,1.0,1.0,881.946,1.0,61.0,1.0,1.19745,0.948541
White,8,Right,1888,Male,Yes,English,E,63,0,0,4,180.0,1.0,1.0,803.763,1.0,62.0,1.0,1.17092,0.997181
White,8,Right,1888,Male,Yes,English,E,64,1,0,4,180.0,1.0,1.0,761.343,1.0,63.0,1.0,1.1124,0.898733
White,8,Right,1888,Male,Yes,English,E,65,1,16,0,180.0,1.0,1.0,602.858,1.0,64.0,2.0,1.17791,0.841913
White,8,Right,1888,Male,Yes,English,E,66,1,0,16,180.0,1.0,1.0,580.0,1.0,65.0,2.0,1.02609,0.849042
White,8,Right,1888,Male,Yes,English,E,67,0,0,16,180.0,1.0,1.0,849.955,1.0,66.0,2.0,1.09962,0.872514
White,8,Right,1888,Male,Yes,English,E,68,0,8,4,180.0,1.0,1.0,690.238,1.0,67.0,2.0,1.07443,0.906501
White,8,Right,1888,Male,Yes,English,E,69,0,0,4,0.0,1.0,0.0,489.271,1.0,68.0,2.0,1.01146,0.887882
White,8,Right,1888,Male,Yes,English,E,70,1,0,0,0.0,0.0,1.0,726.769,1.0,69.0,2.0,1.06127,0.864659
White,8,Right,1888,Male,Yes,English,E,71,1,4,16,0.0,0.0,1.0,1443.64,1.0,70.0,2.0,1.13559,0.826356
White,8,Right,1888,Male,Yes,English,E,72,0,16,8,180.0,1.0,1.0,925.349,1.0,71.0,2.0,1.10183,0.985388
White,8,Right,1888,Male,Yes,English,E,73,0,4,0,180.0,1.0,1.0,809.876,1.0,72.0,2.0,1.08639,0.894691
White,8,Right,1888,Male,Yes,English,E,74,1,16,16,0.0,0.0,1.0,513.426,1.0,73.0,2.0,1.0553,0.937853
White,8,Right,1888,Male,Yes,English,E,75,1,16,4,0.0,0.0,1.0,782.142,1.0,74.0,2.0,1.12013,0.85045
White,8,Right,1888,Male,Yes,English,E,76,1,4,0,0.0,0.0,1.0,682.475,1.0,75.0,2.0,1.1991,0.959318
White,8,Right,1888,Male,Yes,English,E,77,0,0,8,180.0,1.0,1.0,695.416,1.0,76.0,2.0,1.09728,0.944017
White,8,Right,1888,Male,Yes,English,E,78,0,4,8,0.0,1.0,0.0,714.986,1.0,77.0,2.0,1.07791,0.920349
White,8,Right,1888,Male,Yes,English,E,79,1,16,8,180.0,1.0,1.0,736.808,1.0,78.0,2.0,1.02807,0.814053
White,8,Right,1888,Male,Yes,English,E,80,0,16,16,0.0,0.0,1.0,724.97,1.0,79.0,2.0,1.19796,0.862068
White,8,Right,1888,Male,Yes,English,E,81,1,8,0,180.0,1.0,1.0,1279.56,1.0,80.0,2.0,1.1832,0.902593
White,8,Right,1888,Male,Yes,English,E,82,0,8,16,180.0,1.0,1.0,1059.99,1.0,81.0,2.0,1.18234,0.938747
White,8,Right,1888,Male,Yes,English,E,83,0,16,0,0.0,0.0,1.0,778.277,1.0,82.0,2.0,1.14153,0.851205
White,8,Right,1888,Male,Yes,English,E,84,1,0,8,0.0,0.0,1.0,826.912,1.0,83.0,2.0,1.04257,0.893971
White,8,Right,1888,Male,Yes,English,E,85,1,0,4,180.0,1.0,1.0,584.09,1.0,84.0,2.0,1.07303,0.93168
White,8,Right,1888,Male,Yes,English,E,86,1,4,4,0.0,0.0,1.0,570.014,1.0,85.0,2.0,1.08817,0.971984
White,8,Right,1888,Male,Yes,English,E,87,1,8,4,180.0,1.0,1.0,1143.78,1.0,86.0,2.0,1.07486,0.917936
White,8,Right,1888,Male,Yes,English,E,88,0,8,8,180.0,0.0,0.0,1322.36,1.0,87.0,2.0,1.06445,0.991953
White,8,Right,1888,Male,Yes,English,E,89,1,4,8,0.0,0.0,1.0,535.607,1.0,88.0,2.0,1.06585,0.958989
White,8,Right,1888,Male,Yes,English,E,90,1,8,8,180.0,1.0,1.0,555.397,1.0,89.0,2.0,1.01204,0.977626
White,8,Right,1888,Male,Yes,English,E,91,0,0,0,0.0,0.0,1.0,608.744,1.0,90.0,2.0,1.1111,0.837892
White,8,Right,1888,Male,Yes,English,E,92,0,4,4,0.0,0.0,1.0,854.184,1.0,91.0,2.0,1.10358,0.846335
White,8,Right,1888,Male,Yes,English,E,93,0,16,4,180.0,1.0,1.0,952.138,1.0,92.0,2.0,1.10089,0.985051
White,8,Right,1888,Male,Yes,English,E,94,0,8,0,180.0,0.0,0.0,785.996,1.0,93.0,2.0,1.14228,0.922017
White,8,Right,1888,Male,Yes,English,E,95,0,4,16,0.0,0.0,1.0,787.35,1.0,94.0,2.0,1.17082,0.894183
White,8,Right,1888,Male,Yes,English,E,96,1,8,16,0.0,0.0,1.0,896.956,1.0,95.0,2.0,1.10497,0.820645
White,8,Right,1888,Male,Yes,English,E,97,1,4,16,180.0,1.0,1.0,1260.11,1.0,96.0,3.0,1.01804,0.933842
White,8,Right,1888,Male,Yes,English,E,98,0,4,4,0.0,0.0,1.0,881.377,1.0,97.0,3.0,1.18003,0.867188
White,8,Right,1888,Male,Yes,English,E,99,1,8,4,0.0,0.0,1.0,843.297,1.0,98.0,3.0,1.19479,0.915208
White,8,Right,1888,Male,Yes,English,E,100,0,16,16,180.0,1.0,1.0,1279.54,1.0,99.0,3.0,1.12969,0.853918
White,8,Right,1888,Male,Yes,English,E,101,0,8,16,180.0,1.0,1.0,766.973,1.0,100.0,3.0,1.1753,0.827939
White,8,Right,1888,Male,Yes,English,E,102,1,4,4,0.0,0.0,1.0,741.68,1.0,101.0,3.0,1.08299,0.871311
White,8,Right,1888,Male,Yes,English,E,103,0,4,16,180.0,1.0,1.0,795.299,1.0,102.0,3.0,1.15352,0.933358
White,8,Right,1888,Male,Yes,English,E,104,1,16,16,180.0,1.0,1.0,746.029,1.0,103.0,3.0,1.03787,0.951375
White,8,Right,1888,Male,Yes,English,E,105,0,16,4,0.0,0.0,1.0,956.788,1.0,104.0,3.0,1.17217,0.983929
White,8,Right,1888,Male,Yes,English,E,106,1,8,8,0.0,0.0,1.0,747.595,1.0,105.0,3.0,1.16864,0.943839
White,8,Right,1888,Male,Yes,English,E,107,1,8,0,180.0,1.0,1.0,715.72,1.0,106.0,3.0,1.06104,0.827436
White,8,Right,1888,Male,Yes,English,E,108,0,0,16,0.0,0.0,1.0,784.634,1.0,107.0,3.0,1.14646,0.800866
White,8,Right,1888,Male,Yes,English,E,109,1,0,0,180.0,1.0,1.0,605.818,1.0,108.0,3.0,1.0191,0.827437
White,8,Right,1888,Male,Yes,English,E,110,1,8,16,0.0,0.0,1.0,631.129,1.0,109.0,3.0,1.07391,0.813509
White,8,Right,1888,Male,Yes,English,E,111,1,0,8,180.0,1.0,1.0,677.858,1.0,110.0,3.0,1.08294,0.919561
White,8,Right,1888,Male,Yes,English,E,112,0,16,8,0.0,0.0,1.0,933.43,1.0,111.0,3.0,1.05782,0.884303
White,8,Right,1888,Male,Yes,English,E,113,1,16,0,180.0,1.0,1.0,996.697,1.0,112.0,3.0,1.16201,0.903328
White,8,Right,1888,Male,Yes,English,E,114,0,0,8,0.0,0.0,1.0,681.75,1.0,113.0,3.0,1.13358,0.938785
White,8,Right,1888,Male,Yes,English,E,115,0,4,0,180.0,1.0,1.0,481.348,1.0,114.0,3.0,1.13502,0.843811
White,8,Right,1888,Male,Yes,English,E,116,1,4,8,0.0,0.0,1.0,666.584,1.0,115.0,3.0,1.16884,0.928575
White,8,Right,1888,Male,Yes,English,E,117,0,0,4,0.0,0.0,1.0,737.664,1.0,116.0,3.0,1.18389,0.865287
White,8,Right,1888,Male,Yes,English,E,118,0,8,0,180.0,1.0,1.0,812.829,1.0,117.0,3.0,1.0319,0.881254
White,8,Right,1888,Male,Yes,English,E,119,0,4,8,180.0,1.0,1.0,745.992,1.0,118.0,3.0,1.1539,0.849198
White,8,Right,1888,Male,Yes,English,E,120,1,16,4,0.0,0.0,1.0,899.852,1.0,119.0,3.0,1.09423,0.872106
White,8,Right,1888,Male,Yes,English,E,121,0,16,0,180.0,1.0,1.0,992.905,1.0,120.0,3.0,1.12487,0.943458
White,8,Right,1888,Male,Yes,English,E,122,1,0,4,180.0,1.0,1.0,598.633,1.0,121.0,3.0,1.17787,0.809815
White,8,Right,1888,Male,Yes,English,E,123,0,8,8,0.0,0.0,1.0,859.165,1.0,122.0,3.0,1.1438,0.93167
White,8,Right,1888,Male,Yes,English,E,124,0,8,4,0.0,0.0,1.0,926.928,1.0,123.0,3.0,1.05133,0.920057
White,8,Right,1888,Male,Yes,English,E,125,0,0,0,180.0,1.0,1.0,584.63,1.0,124.0,3.0,1.15094,0.991211
White,8,Right,1888,Male,Yes,English,E,126,1,0,16,180.0,1.0,1.0,698.78,1.0,125.0,3.0,1.09268,0.863155
White,8,Right,1888,Male,Yes,English,E,127,1,16,8,0.0,0.0,1.0,834.682,1.0,126.0,3.0,1.15614,0.828903
White,8,Right,1888,Male,Yes,English,E,128,1,4,0,0.0,0.0,1.0,515.922,1.0,127.0,3.0,1.1433,0.954515
White,8,Right,1888,Male,Yes,English,E,129,0,4,8,180.0,1.0,1.0,815.626,1.0,128.0,4.0,1.14615,0.8994
White,8,Right,1888,Male,Yes,English,E,130,0,0,4,0.0,1.0,0.0,487.888,1.0,129.0,4.0,1.1127,0.989386
White,8,Right,1888,Male,Yes,English,E,131,0,16,16,180.0,1.0,1.0,867.399,1.0,130.0,4.0,1.05105,0.84411
White,8,Right,1888,Male,Yes,English,E,132,1,4,8,180.0,1.0,1.0,715.714,1.0,131.0,4.0,1.07268,0.886307
White,8,Right,1888,Male,Yes,English,E,133,1,4,16,0.0,1.0,0.0,505.115,1.0,132.0,4.0,1.08597,0.914175
White,8,Right,1888,Male,Yes,English,E,134,1,4,4,0.0,0.0,1.0,693.29,1.0,133.0,4.0,1.11675,0.844514
White,8,Right,1888,Male,Yes,English,E,135,0,8,4,180.0,1.0,1.0,681.004,1.0,134.0,4.0,1.17442,0.949871
White,8,Right,1888,Male,Yes,English,E,136,0,4,0,180.0,1.0,1.0,550.034,1.0,135.0,4.0,1.09543,0.882313
White,8,Right,1888,Male,Yes,English,E,137,0,0,0,0.0,0.0,1.0,617.104,1.0,136.0,4.0,1.18737,0.804107
White,8,Right,1888,Male,Yes,English,E,138,1,16,8,0.0,0.0,1.0,926.16,1.0,137.0,4.0,1.09891,0.863473
White,8,Right,1888,Male,Yes,English,E,139,0,4,16,0.0,0.0,1.0,827.027,1.0,138.0,4.0,1.16314,0.849975
White,8,Right,1888,Male,Yes,English,E,140,1,0,16,0.0,0.0,1.0,1200.98,1.0,139.0,4.0,1.07802,0.982155
White,8,Right,1888,Male,Yes,English,E,141,1,16,4,0.0,0.0,1.0,716.781,1.0,140.0,4.0,1.18916,0.997637
White,8,Right,1888,Male,Yes,English,E,142,1,0,0,180.0,1.0,1.0,548.962,1.0,141.0,4.0,1.08003,0.885734
White,8,Right,1888,Male,Yes,English,E,143,1,8,16,180.0,1.0,1.0,683.574,1.0,142.0,4.0,1.1989,0.986886
White,8,Right,1888,Male,Yes,English,E,144,0,16,8,0.0,0.0,1.0,690.969,1.0,143.0,4.0,1.18236,0.952575
White,8,Right,1888,Male,Yes,English,E,145,0,8,0,0.0,0.0,1.0,1076.34,1.0,144.0,4.0,1.00054,0.983302
White,8,Right,1888,Male,Yes,English,E,146,1,8,4,180.0,1.0,1.0,642.164,1.0,145.0,4.0,1.07546,0.997357
White,8,Right,1888,Male,Yes,English,E,147,1,8,0,180.0,1.0,1.0,856.663,1.0,146.0,4.0,1.18739,0.851037
White,8,Right,1888,Male,Yes,English,E,148,1,8,8,0.0,0.0,1.0,644.258,1.0,147.0,4.0,1.06115,0.803939
White,8,Right,1888,Male,Yes,English,E,149,1,4,0,180.0,1.0,1.0,728.994,1.0,148.0,4.0,1.01348,0.829004
White,8,Right,1888,Male,Yes,English,E,150,0,0,16,180.0,1.0,1.0,634.984,1.0,149.0,4.0,1.09251,0.97998
White,8,Right,1888,Male,Yes,English,E,151,1,16,0,180.0,1.0,1.0,714.01,1.0,150.0,4.0,1.15931,0.809751
White,8,Right,1888,Male,Yes,English,E,152,0,8,8,0.0,0.0,1.0,876.771,1.0,151.0,4.0,1.15937,0.854677
White,8,Right,1888,Male,Yes,English,E,153,0,16,0,180.0,0.0,0.0,806.277,1.0,152.0,4.0,1.11078,0.881343
White,8,Right,1888,Male,Yes,English,E,154,0,4,4,0.0,0.0,1.0,937.104,1.0,153.0,4.0,1.09452,0.961968
White,8,Right,1888,Male,Yes,English,E,155,0,8,16,180.0,1.0,1.0,828.03,1.0,154.0,4.0,1.05066,0.933529
White,8,Right,1888,Male,Yes,English,E,156,1,0,4,180.0,1.0,1.0,673.533,1.0,155.0,4.0,1.01354,0.884564
White,8,Right,1888,Male,Yes,English,E,157,0,16,4,180.0,1.0,1.0,677.51,1.0,156.0,4.0,1.17757,0.843772
White,8,Right,1888,Male,Yes,English,E,158,1,0,8,0.0,0.0,1.0,721.427,1.0,157.0,4.0,1.10051,0.972972
White,8,Right,1888,Male,Yes,English,E,159,1,16,16,0.0,0.0,1.0,817.106,1.0,158.0,4.0,1.1945,0.928826
White,8,Right,1888,Male,Yes,English,E,160,0,0,8,0.0,0.0,1.0,807.279,1.0,159.0,4.0,1.01742,0.835273
White,8,Right,1888,Male,Yes,English,E,161,1,0,16,180.0,1.0,1.0,523.251,1.0,160.0,5.0,1.09735,0.964925
White,8,Right,1888,Male,Yes,English,E,162,0,4,0,0.0,0.0,1.0,1085.97,1.0,161.0,5.0,1.07924,0.907096
White,8,Right,1888,Male,Yes,English,E,163,0,8,8,180.0,1.0,1.0,724.387,1.0,162.0,5.0,1.10653,0.895152
White,8,Right,1888,Male,Yes,English,E,164,0,16,16,0.0,0.0,1.0,630.155,1.0,163.0,5.0,1.16007,0.973614
White,8,Right,1888,Male,Yes,English,E,165,0,0,16,0.0,1.0,0.0,424.313,1.0,164.0,5.0,1.0063,0.85635
White,8,Right,1888,Male,Yes,English,E,166,1,16,4,180.0,1.0,1.0,1044.86,1.0,165.0,5.0,1.01356,0.873908
White,8,Right,1888,Male,Yes,English,E,167,0,4,8,180.0,1.0,1.0,590.215,1.0,166.0,5.0,1.0539,0.984483
White,8,Right,1888,Male,Yes,English,E,168,0,16,8,180.0,1.0,1.0,615.978,1.0,167.0,5.0,1.10663,0.858559
White,8,Right,1888,Male,Yes,English,E,169,0,0,8,0.0,1.0,0.0,460.143,1.0,168.0,5.0,1.17346,0.921316
White,8,Right,1888,Male,Yes,English,E,170,1,0,4,0.0,0.0,1.0,784.126,1.0,169.0,5.0,1.00854,0.855811
White,8,Right,1888,Male,Yes,English,E,171,0,0,4,0.0,0.0,1.0,565.997,1.0,170.0,5.0,1.11298,0.890953
White,8,Right,1888,Male,Yes,English,E,172,1,8,8,180.0,1.0,1.0,840.03,1.0,171.0,5.0,1.05938,0.806793
White,8,Right,1888,Male,Yes,English,E,173,1,16,0,0.0,0.0,1.0,1010.69,1.0,172.0,5.0,1.13144,0.915146
White,8,Right,1888,Male,Yes,English,E,174,0,4,16,0.0,0.0,1.0,750.088,1.0,173.0,5.0,1.19585,0.848661
White,8,Right,1888,Male,Yes,English,E,175,1,4,4,180.0,1.0,1.0,836.134,1.0,174.0,5.0,1.1586,0.802742
White,8,Right,1888,Male,Yes,English,E,176,0,8,0,0.0,0.0,1.0,811.974,1.0,175.0,5.0,1.10189,0.932782
White,8,Right,1888,Male,Yes,English,E,177,0,16,0,0.0,0.0,1.0,749.261,1.0,176.0,5.0,1.07336,0.987456
White,8,Right,1888,Male,Yes,English,E,178,0,8,16,0.0,0.0,1.0,532.772,1.0,177.0,5.0,1.12244,0.833929
White,8,Right,1888,Male,Yes,English,E,179,1,0,0,180.0,1.0,1.0,726.327,1.0,178.0,5.0,1.02417,0.860071
White,8,Right,1888,Male,Yes,English,E,180,1,4,8,180.0,1.0,1.0,740.16,1.0,179.0,5.0,1.0341,0.875474
White,8,Right,1888,Male,Yes,English,E,181,0,0,0,180.0,1.0,1.0,568.636,1.0,180.0,5.0,1.05421,0.831026
White,8,Right,1888,Male,Yes,English,E,182,1,4,0,0.0,0.0,1.0,469.201,1.0,181.0,5.0,1.14628,0.851214
White,8,Right,1888,Male,Yes,English,E,183,1,0,8,180.0,1.0,1.0,640.49,1.0,182.0,5.0,1.05161,0.93086
White,8,Right,1888,Male,Yes,English,E,184,1,8,16,180.0,1.0,1.0,1021.02,1.0,183.0,5.0,1.12784,0.95847
White,8,Right,1888,Male,Yes,English,E,185,1,16,16,0.0,0.0,1.0,1091.86,1.0,184.0,5.0,1.14745,0.857326
White,8,Right,1888,Male,Yes,English,E,186,1,4,16,0.0,0.0,1.0,786.142,1.0,185.0,5.0,1.05252,0.940737
White,8,Right,1888,Male,Yes,English,E,187,0,8,4,0.0,0.0,1.0,644.546,1.0,186.0,5.0,1.08266,0.96849
White,8,Right,1888,Male,Yes,English,E,188,1,8,0,180.0,0.0,0.0,710.66,1.0,187.0,5.0,1.037,0.907301
White,8,Right,1888,Male,Yes,English,E,189,0,4,4,180.0,1.0,1.0,998.892,1.0,188.0,5.0,1.02531,0.803122
White,8,Right,1888,Male,Yes,English,E,190,1,16,8,180.0,1.0,1.0,843.902,1.0,189.0,5.0,1.03312,0.990592
White,8,Right,1888,Male,Yes,English,E,191,1,8,4,180.0,1.0,1.0,805.344,1.0,190.0,5.0,1.07726,0.838174
White,8,Right,1888,Male,Yes,English,E,192,0,16,4,0.0,0.0,1.0,659.699,1.0,191.0,5.0,1.00223,0.921819
White,8,Right,1888,Male,Yes,English,E,193,1,16,8,180.0,1.0,1.0,739.128,1.0,192.0,6.0,1.0461,0.883559
White,8,Right,1888,Male,Yes,English,E,194,1,0,8,0.0,0.0,1.0,742.639,1.0,193.0,6.0,1.08585,0.959071
White,8,Right,1888,Male,Yes,English,E,195,0,4,4,0.0,0.0,1.0,814.107,1.0,194.0,6.0,1.14419,0.981474
White,8,Right,1888,Male,Yes,English,E,196,0,16,4,180.0,1.0,1.0,636.953,1.0,195.0,6.0,1.06523,0.865539
White,8,Right,1888,Male,Yes,English,E,197,0,4,16,180.0,1.0,1.0,782.905,1.0,196.0,6.0,1.17353,0.878823
White,8,Right,1888,Male,Yes,English,E,198,0,16,8,180.0,1.0,1.0,609.97,1.0,197.0,6.0,1.03507,0.9213
White,8,Right,1888,Male,Yes,English,E,199,1,4,4,180.0,1.0,1.0,637.132,1.0,198.0,6.0,1.14359,0.988666
White,8,Right,1888,Male,Yes,English,E,200,0,4,0,180.0,1.0,1.0,474.51,1.0,199.0,6.0,1.14074,0.820164
White,8,Right,1888,Male,Yes,English,E,201,0,0,4,180.0,1.0,1.0,448.508,1.0,200.0,6.0,1.11805,0.915941
White,8,Right,1888,Male,Yes,English,E,202,1,16,4,0.0,0.0,1.0,632.743,1.0,201.0,6.0,1.04427,0.966681
White,8,Right,1888,Male,Yes,English,E,203,0,4,8,180.0,1.0,1.0,776.562,1.0,202.0,6.0,1.05289,0.8489
White,8,Right,1888,Male,Yes,English,E,204,0,0,8,0.0,0.0,1.0,853.115,1.0,203.0,6.0,1.15057,0.83762
White,8,Right,1888,Male,Yes,English,E,205,1,8,0,180.0,1.0,1.0,686.846,1.0,204.0,6.0,1.10159,0.927945
White,8,Right,1888,Male,Yes,English,E,206,1,8,8,0.0,0.0,1.0,936.124,1.0,205.0,6.0,1.12926,0.866655
White,8,Right,1888,Male,Yes,English,E,207,1,4,8,180.0,1.0,1.0,833.314,1.0,206.0,6.0,1.08612,0.97667
White,8,Right,1888,Male,Yes,English,E,208,1,4,0,0.0,0.0,1.0,791.857,1.0,207.0,6.0,1.08834,0.992773
White,8,Right,1888,Male,Yes,English,E,209,0,0,16,0.0,0.0,1.0,941.336,1.0,208.0,6.0,1.09058,0.931008
White,8,Right,1888,Male,Yes,English,E,210,0,16,0,0.0,0.0,1.0,778.868,1.0,209.0,6.0,1.17409,0.882387
White,8,Right,1888,Male,Yes,English,E,211,1,16,16,0.0,0.0,1.0,606.676,1.0,210.0,6.0,1.10413,0.81204
White,8,Right,1888,Male,Yes,English,E,212,1,0,16,180.0,1.0,1.0,530.475,1.0,211.0,6.0,1.14517,0.855219
White,8,Right,1888,Male,Yes,English,E,213,0,0,0,0.0,0.0,1.0,637.395,1.0,212.0,6.0,1.1561,0.914707
White,8,Right,1888,Male,Yes,English,E,214,1,0,0,0.0,0.0,1.0,498.124,1.0,213.0,6.0,1.08876,0.984746
White,8,Right,1888,Male,Yes,English,E,215,0,8,4,0.0,0.0,1.0,584.642,1.0,214.0,6.0,1.02,0.925174
White,8,Right,1888,Male,Yes,English,E,216,1,0,4,0.0,0.0,1.0,661.233,1.0,215.0,6.0,1.07059,0.872461
White,8,Right,1888,Male,Yes,English,E,217,0,8,0,0.0,0.0,1.0,1015.58,1.0,216.0,6.0,1.11072,0.966547
White,8,Right,1888,Male,Yes,English,E,218,1,8,4,180.0,1.0,1.0,747.656,1.0,217.0,6.0,1.11764,0.915439
White,8,Right,1888,Male,Yes,English,E,219,0,8,16,180.0,0.0,0.0,679.724,1.0,218.0,6.0,1.12231,0.801736
White,8,Right,1888,Male,Yes,English,E,220,1,16,0,0.0,0.0,1.0,858.926,1.0,219.0,6.0,1.11342,0.939821
White,8,Right,1888,Male,Yes,English,E,221,0,16,16,180.0,1.0,1.0,640.004,1.0,220.0,6.0,1.07593,0.852792
White,8,Right,1888,Male,Yes,English,E,222,0,8,8,180.0,1.0,1.0,905.487,1.0,221.0,6.0,1.06936,0.943331
White,8,Right,1888,Male,Yes,English,E,223,1,4,16,0.0,0.0,1.0,733.042,1.0,222.0,6.0,1.19511,0.883507
White,8,Right,1888,Male,Yes,English,E,224,1,8,16,180.0,1.0,1.0,924.402,1.0,223.0,6.0,1.07738,0.860614
White,8,Right,1888,Male,Yes,English,E,225,0,8,0,180.0,1.0,1.0,790.955,1.0,224.0,7.0,1.08395,0.914487
White,8,Right,1888,Male,Yes,English,E,226,0,4,0,180.0,1.0,1.0,814.711,1.0,225.0,7.0,1.14576,0.847959
White,8,Right,1888,Male,Yes,English,E,227,1,4,4,180.0,1.0,1.0,689.14,1.0,226.0,7.0,1.17632,0.850156
White,8,Right,1888,Male,Yes,English,E,228,1,8,8,180.0,1.0,1.0,915.103,1.0,227.0,7.0,1.02132,0.911685
White,8,Right,1888,Male,Yes,English,E,229,1,8,0,180.0,1.0,1.0,681.532,1.0,228.0,7.0,1.09854,0.822311
White,8,Right,1888,Male,Yes,English,E,230,0,8,4,0.0,0.0,1.0,686.129,1.0,229.0,7.0,1.09502,0.984647
White,8,Right,1888,Male,Yes,English,E,231,1,16,0,0.0,0.0,1.0,1005.38,1.0,230.0,7.0,1.15932,0.907784
White,8,Right,1888,Male,Yes,English,E,232,0,0,8,0.0,0.0,1.0,646.789,1.0,231.0,7.0,1.03741,0.800505
White,8,Right,1888,Male,Yes,English,E,233,0,0,16,0.0,0.0,1.0,934.026,1.0,232.0,7.0,1.00345,0.850628
White,8,Right,1888,Male,Yes,English,E,234,1,4,16,0.0,0.0,1.0,788.719,1.0,233.0,7.0,1.11194,0.83142
White,8,Right,1888,Male,Yes,English,E,235,0,16,16,0.0,0.0,1.0,954.667,1.0,234.0,7.0,1.11911,0.813739
White,8,Right,1888,Male,Yes,English,E,236,0,0,4,0.0,0.0,1.0,531.126,1.0,235.0,7.0,1.12177,0.978221
White,8,Right,1888,Male,Yes,English,E,237,1,16,16,0.0,0.0,1.0,572.379,1.0,236.0,7.0,1.03735,0.830115
White,8,Right,1888,Male,Yes,English,E,238,1,4,8,0.0,0.0,1.0,751.265,1.0,237.0,7.0,1.16327,0.872311
White,8,Right,1888,Male,Yes,English,E,239,1,0,8,180.0,1.0,1.0,791.295,1.0,238.0,7.0,1.17135,0.973381
White,8,Right,1888,Male,Yes,English,E,240,1,16,4,180.0,1.0,1.0,1329.2,1.0,239.0,7.0,1.00829,0.862883
White,8,Right,1888,Male,Yes,English,E,241,1,0,16,180.0,1.0,1.0,623.984,1.0,240.0,7.0,1.01464,0.939559
White,8,Right,1888,Male,Yes,English,E,242,1,8,16,0.0,1.0,0.0,721.409,1.0,241.0,7.0,1.13153,0.950086
White,8,Right,1888,Male,Yes,English,E,243,0,16,4,0.0,0.0,1.0,1206.04,1.0,242.0,7.0,1.18291,0.96163
White,8,Right,1888,Male,Yes,English,E,244,0,0,0,180.0,1.0,1.0,829.479,1.0,243.0,7.0,1.19436,0.826147
White,8,Right,1888,Male,Yes,English,E,245,1,4,0,0.0,0.0,1.0,773.557,1.0,244.0,7.0,1.0481,0.868546
White,8,Right,1888,Male,Yes,English,E,246,0,4,16,0.0,0.0,1.0,733.734,1.0,245.0,7.0,1.0116,0.970466
White,8,Right,1888,Male,Yes,English,E,247,1,16,8,180.0,1.0,1.0,800.036,1.0,246.0,7.0,1.07173,0.931122
White,8,Right,1888,Male,Yes,English,E,248,0,16,8,0.0,0.0,1.0,874.012,1.0,247.0,7.0,1.18197,0.843483
White,8,Right,1888,Male,Yes,English,E,249,1,0,0,180.0,1.0,1.0,713.488,1.0,248.0,7.0,1.19178,0.906906
White,8,Right,1888,Male,Yes,English,E,250,0,8,8,180.0,1.0,1.0,771.03,1.0,249.0,7.0,1.055,0.803252
White,8,Right,1888,Male,Yes,English,E,251,0,4,8,180.0,1.0,1.0,775.151,1.0,250.0,7.0,1.05468,0.873314
White,8,Right,1888,Male,Yes,English,E,252,1,8,4,180.0,1.0,1.0,977.93,1.0,251.0,7.0,1.00133,0.897986
White,8,Right,1888,Male,Yes,English,E,253,1,0,4,0.0,0.0,1.0,629.822,1.0,252.0,7.0,1.00805,0.801805
White,8,Right,1888,Male,Yes,English,E,254,0,16,0,0.0,0.0,1.0,783.041,1.0,253.0,7.0,1.02154,0.865421
White,8,Right,1888,Male,Yes,English,E,255,0,4,4,180.0,1.0,1.0,835.977,1.0,254.0,7.0,1.14774,0.829542
White,8,Right,1888,Male,Yes,English,E,256,0,8,16,180.0,1.0,1.0,677.158,1.0,255.0,7.0,1.01889,0.896018
White,8,Right,1888,Male,Yes,English,E,257,0,8,0,180.0,1.0,1.0,862.139,1.0,256.0,8.0,1.1471,0.890018
White,8,Right,1888,Male,Yes,English,E,258,1,16,8,180.0,1.0,1.0,679.593,1.0,257.0,8.0,1.14184,0.824872
White,8,Right,1888,Male,Yes,English,E,259,0,16,16,0.0,0.0,1.0,735.351,1.0,258.0,8.0,1.14571,0.837969
White,8,Right,1888,Male,Yes,English,E,260,0,0,8,180.0,1.0,1.0,730.641,1.0,259.0,8.0,1.18113,0.923235
White,8,Right,1888,Male,Yes,English,E,261,1,4,8,0.0,0.0,1.0,605.225,1.0,260.0,8.0,1.0926,0.901084
White,8,Right,1888,Male,Yes,English,E,262,1,16,0,0.0,0.0,1.0,711.361,1.0,261.0,8.0,1.03965,0.945332
White,8,Right,1888,Male,Yes,English,E,263,1,16,4,180.0,1.0,1.0,814.024,1.0,262.0,8.0,1.10874,0.893653
White,8,Right,1888,Male,Yes,English,E,264,1,4,0,180.0,1.0,1.0,432.881,1.0,263.0,8.0,1.1702,0.886688
White,8,Right,1888,Male,Yes,English,E,265,1,8,16,180.0,1.0,1.0,813.188,1.0,264.0,8.0,1.13015,0.869414
White,8,Right,1888,Male,Yes,English,E,266,1,4,4,180.0,1.0,1.0,450.29,1.0,265.0,8.0,1.06561,0.894142
White,8,Right,1888,Male,Yes,English,E,267,1,16,16,180.0,1.0,1.0,663.489,1.0,266.0,8.0,1.18581,0.810676
White,8,Right,1888,Male,Yes,English,E,268,0,8,4,0.0,0.0,1.0,872.959,1.0,267.0,8.0,1.05852,0.81149
White,8,Right,1888,Male,Yes,English,E,269,1,0,4,180.0,1.0,1.0,821.943,1.0,268.0,8.0,1.02144,0.95899
White,8,Right,1888,Male,Yes,English,E,270,1,4,16,0.0,0.0,1.0,614.967,1.0,269.0,8.0,1.03901,0.889721
White,8,Right,1888,Male,Yes,English,E,271,0,0,0,180.0,1.0,1.0,601.532,1.0,270.0,8.0,1.03886,0.814334
White,8,Right,1888,Male,Yes,English,E,272,1,0,8,0.0,0.0,1.0,779.807,1.0,271.0,8.0,1.0683,0.957412
White,8,Right,1888,Male,Yes,English,E,273,1,8,8,0.0,0.0,1.0,1104.14,1.0,272.0,8.0,1.03597,0.965992
White,8,Right,1888,Male,Yes,English,E,274,0,0,16,0.0,0.0,1.0,870.021,1.0,273.0,8.0,1.09403,0.929651
White,8,Right,1888,Male,Yes,English,E,275,0,0,4,180.0,1.0,1.0,737.389,1.0,274.0,8.0,1.14381,0.836635
White,8,Right,1888,Male,Yes,English,E,276,1,8,4,0.0,0.0,1.0,771.327,1.0,275.0,8.0,1.14548,0.954847
White,8,Right,1888,Male,Yes,English,E,277,0,16,4,0.0,0.0,1.0,1377.86,1.0,276.0,8.0,1.0753,0.987852
White,8,Right,1888,Male,Yes,English,E,278,1,0,16,180.0,1.0,1.0,951.549,1.0,277.0,8.0,1.11295,0.868362
White,8,Right,1888,Male,Yes,English,E,279,1,0,0,180.0,1.0,1.0,750.569,1.0,278.0,8.0,1.01007,0.873935
White,8,Right,1888,Male,Yes,English,E,280,0,4,4,180.0,1.0,1.0,619.619,1.0,279.0,8.0,1.10047,0.978818
White,8,Right,1888,Male,Yes,English,E,281,0,4,16,0.0,0.0,1.0,873.767,1.0,280.0,8.0,1.13156,0.87764
White,8,Right,1888,Male,Yes,English,E,282,0,8,16,0.0,0.0,1.0,911.881,1.0,281.0,8.0,1.1341,0.812803
White,8,Right,1888,Male,Yes,English,E,283,0,16,8,180.0,1.0,1.0,794.317,1.0,282.0,8.0,1.18337,0.895532
White,8,Right,1888,Male,Yes,English,E,284,1,8,0,180.0,1.0,1.0,1091.17,1.0,283.0,8.0,1.1068,0.853546
White,8,Right,1888,Male,Yes,English,E,285,0,8,8,0.0,0.0,1.0,1135.46,1.0,284.0,8.0,1.06016,0.845139
White,8,Right,1888,Male,Yes,English,E,286,0,4,0,0.0,0.0,1.0,858.074,1.0,285.0,8.0,1.00866,0.931995
White,8,Right,1888,Male,Yes,English,E,287,0,4,8,0.0,0.0,1.0,765.431,1.0,286.0,8.0,1.13647,0.828973
White,8,Right,1888,Male,Yes,English,E,288,0,16,0,0.0,0.0,1.0,847.019,1.0,287.0,8.0,1.18961,0.956453
White,8,Right,1888,Male,Yes,English,E,289,1,16,0,0.0,0.0,1.0,1017.06,1.0,288.0,9.0,1.14244,0.832084
White,8,Right,1888,Male,Yes,English,E,290,1,8,8,0.0,0.0,1.0,613.775,1.0,289.0,9.0,1.1824,0.806944
White,8,Right,1888,Male,Yes,English,E,291,1,0,0,180.0,1.0,1.0,682.829,1.0,290.0,9.0,1.11724,0.891987
White,8,Right,1888,Male,Yes,English,E,292,0,8,0,180.0,1.0,1.0,796.707,1.0,291.0,9.0,1.13459,0.819408
White,8,Right,1888,Male,Yes,English,E,293,1,4,8,0.0,0.0,1.0,633.83,1.0,292.0,9.0,1.18552,0.911828
White,8,Right,1888,Male,Yes,English,E,294,0,4,0,180.0,1.0,1.0,685.098,1.0,293.0,9.0,1.19298,0.929315
White,8,Right,1888,Male,Yes,English,E,295,0,8,4,180.0,1.0,1.0,810.378,1.0,294.0,9.0,1.17764,0.873543
White,8,Right,1888,Male,Yes,English,E,296,1,0,4,180.0,1.0,1.0,833.646,1.0,295.0,9.0,1.08532,0.856874
White,8,Right,1888,Male,Yes,English,E,297,0,8,16,0.0,0.0,1.0,905.343,1.0,296.0,9.0,1.16285,0.8741
White,8,Right,1888,Male,Yes,English,E,298,1,4,4,0.0,0.0,1.0,888.291,1.0,297.0,9.0,1.02263,0.915148
White,8,Right,1888,Male,Yes,English,E,299,1,16,8,0.0,0.0,1.0,884.959,1.0,298.0,9.0,1.00236,0.849979
White,8,Right,1888,Male,Yes,English,E,300,0,4,8,180.0,1.0,1.0,827.621,1.0,299.0,9.0,1.05859,0.922472
White,8,Right,1888,Male,Yes,English,E,301,1,0,16,180.0,1.0,1.0,618.828,1.0,300.0,9.0,1.16797,0.901999
White,8,Right,1888,Male,Yes,English,E,302,0,0,16,0.0,0.0,1.0,610.163,1.0,301.0,9.0,1.11613,0.863067
White,8,Right,1888,Male,Yes,English,E,303,1,8,0,0.0,0.0,1.0,686.889,1.0,302.0,9.0,1.07763,0.898875
White,8,Right,1888,Male,Yes,English,E,304,0,16,8,180.0,1.0,1.0,810.745,1.0,303.0,9.0,1.02812,0.952543
White,8,Right,1888,Male,Yes,English,E,305,1,8,16,0.0,0.0,1.0,659.639,1.0,304.0,9.0,1.06541,0.818246
White,8,Right,1888,Male,Yes,English,E,306,1,16,16,180.0,1.0,1.0,737.777,1.0,305.0,9.0,1.07551,0.999732
White,8,Right,1888,Male,Yes,English,E,307,0,16,16,0.0,0.0,1.0,616.404,1.0,306.0,9.0,1.11473,0.834237
White,8,Right,1888,Male,Yes,English,E,308,0,16,0,180.0,1.0,1.0,639.128,1.0,307.0,9.0,1.00292,0.841076
White,8,Right,1888,Male,Yes,English,E,309,0,0,8,180.0,1.0,1.0,621.429,1.0,308.0,9.0,1.15441,0.956645
White,8,Right,1888,Male,Yes,English,E,310,0,0,0,0.0,0.0,1.0,668.91,1.0,309.0,9.0,1.07981,0.881248
White,8,Right,1888,Male,Yes,English,E,311,0,4,4,180.0,0.0,0.0,676.334,1.0,310.0,9.0,1.05082,0.855638
White,8,Right,1888,Male,Yes,English,E,312,1,4,0,180.0,1.0,1.0,605.939,1.0,311.0,9.0,1.03895,0.937061
White,8,Right,1888,Male,Yes,English,E,313,1,4,16,0.0,0.0,1.0,1223.55,1.0,312.0,9.0,1.05941,0.812835
White,8,Right,1888,Male,Yes,English,E,314,0,4,16,0.0,0.0,1.0,780.548,1.0,313.0,9.0,1.09431,0.846162
White,8,Right,1888,Male,Yes,English,E,315,1,16,4,0.0,0.0,1.0,672.706,1.0,314.0,9.0,1.12217,0.908554
White,8,Right,1888,Male,Yes,English,E,316,1,8,4,0.0,0.0,1.0,630.312,1.0,315.0,9.0,1.19653,0.920587
White,8,Right,1888,Male,Yes,English,E,317,0,8,8,180.0,1.0,1.0,623.025,1.0,316.0,9.0,1.14048,0.900344
White,8,Right,1888,Male,Yes,English,E,318,0,16,4,0.0,0.0,1.0,664.851,1.0,317.0,9.0,1.19156,0.894329
White,8,Right,1888,Male,Yes,English,E,319,0,0,4,180.0,1.0,1.0,621.326,1.0,318.0,9.0,1.17275,0.86566
White,8,Right,1888,Male,Yes,English,E,320,1,0,8,180.0,1.0,1.0,840.201,1.0,319.0,9.0,1.04797,0.93228
White,8,Right,1888,Male,Yes,English,E,321,0,0,16,0.0,0.0,1.0,696.662,1.0,320.0,10.0,1.14046,0.819115
White,8,Right,1888,Male,Yes,English,E,322,1,16,8,180.0,1.0,1.0,816.026,1.0,321.0,10.0,1.11559,0.991012
White,8,Right,1888,Male,Yes,English,E,323,1,8,8,180.0,1.0,1.0,681.595,1.0,322.0,10.0,1.02519,0.982213
White,8,Right,1888,Male,Yes,English,E,324,0,8,0,180.0,1.0,1.0,578.666,1.0,323.0,10.0,1.07692,0.923867
White,8,Right,1888,Male,Yes,English,E,325,0,16,8,180.0,1.0,1.0,770.215,1.0,324.0,10.0,1.17063,0.845019
White,8,Right,1888,Male,Yes,English,E,326,1,16,4,0.0,0.0,1.0,740.858,1.0,325.0,10.0,1.00342,0.876636
White,8,Right,1888,Male,Yes,English,E,327,1,0,4,180.0,1.0,1.0,669.715,1.0,326.0,10.0,1.12962,0.884803
White,8,Right,1888,Male,Yes,English,E,328,1,4,4,0.0,0.0,1.0,640.719,1.0,327.0,10.0,1.15147,0.927815
White,8,Right,1888,Male,Yes,English,E,329,0,16,0,180.0,0.0,0.0,968.188,1.0,328.0,10.0,1.15968,0.971291
White,8,Right,1888,Male,Yes,English,E,330,0,0,8,180.0,1.0,1.0,949.848,1.0,329.0,10.0,1.13886,0.892124
White,8,Right,1888,Male,Yes,English,E,331,1,16,0,0.0,0.0,1.0,576.891,1.0,330.0,10.0,1.02089,0.859858
White,8,Right,1888,Male,Yes,English,E,332,0,8,4,0.0,0.0,1.0,614.562,1.0,331.0,10.0,1.13771,0.975678
White,8,Right,1888,Male,Yes,English,E,333,1,4,16,0.0,1.0,0.0,473.813,1.0,332.0,10.0,1.03545,0.999375
White,8,Right,1888,Male,Yes,English,E,334,1,8,4,0.0,0.0,1.0,733.981,1.0,333.0,10.0,1.13481,0.880881
White,8,Right,1888,Male,Yes,English,E,335,0,4,4,180.0,1.0,1.0,707.287,1.0,334.0,10.0,1.17213,0.83442
White,8,Right,1888,Male,Yes,English,E,336,0,8,16,180.0,1.0,1.0,973.662,1.0,335.0,10.0,1.16579,0.957123
White,8,Right,1888,Male,Yes,English,E,337,0,4,16,0.0,0.0,1.0,674.508,1.0,336.0,10.0,1.00669,0.965633
White,8,Right,1888,Male,Yes,English,E,338,1,0,8,180.0,1.0,1.0,693.824,1.0,337.0,10.0,1.06226,0.952659
White,8,Right,1888,Male,Yes,English,E,339,0,16,16,180.0,1.0,1.0,728.344,1.0,338.0,10.0,1.02866,0.884397
White,8,Right,1888,Male,Yes,English,E,340,1,4,0,180.0,1.0,1.0,645.406,1.0,339.0,10.0,1.19749,0.983036
White,8,Right,1888,Male,Yes,English,E,341,1,0,16,0.0,0.0,1.0,793.952,1.0,340.0,10.0,1.19642,0.863126
White,8,Right,1888,Male,Yes,English,E,342,1,8,16,0.0,0.0,1.0,457.097,1.0,341.0,10.0,1.09381,0.991626
White,8,Right,1888,Male,Yes,English,E,343,0,8,8,0.0,0.0,1.0,666.984,1.0,342.0,10.0,1.04029,0.915889
White,8,Right,1888,Male,Yes,English,E,344,1,4,8,180.0,1.0,1.0,1418.76,1.0,343.0,10.0,1.15602,0.825653
White,8,Right,1888,Male,Yes,English,E,345,0,0,4,0.0,1.0,0.0,666.792,1.0,344.0,10.0,1.09735,0.917679
White,8,Right,1888,Male,Yes,English,E,346,0,0,0,0.0,0.0,1.0,1596.48,1.0,345.0,10.0,1.13215,0.81536
White,8,Right,1888,Male,Yes,English,E,347,0,16,4,0.0,0.0,1.0,700.961,1.0,346.0,10.0,1.02429,0.828205
White,8,Right,1888,Male,Yes,English,E,348,1,0,0,180.0,1.0,1.0,728.329,1.0,347.0,10.0,1.05013,0.928719
White,8,Right,1888,Male,Yes,English,E,349,1,16,16,180.0,1.0,1.0,719.971,1.0,348.0,10.0,1.13067,0.922502
White,8,Right,1888,Male,Yes,English,E,350,1,8,0,0.0,0.0,1.0,986.596,1.0,349.0,10.0,1.06205,0.854476
White,8,Right,1888,Male,Yes,English,E,351,0,4,0,0.0,0.0,1.0,673.193,1.0,350.0,10.0,1.14546,0.813132
White,8,Right,1888,Male,Yes,English,E,352,0,4,8,180.0,1.0,1.0,797.272,1.0,351.0,10.0,1.05095,0.866954
White,8,Right,1888,Male,Yes,English,E,353,1,8,0,0.0,0.0,1.0,767.445,1.0,352.0,11.0,1.0997,0.940029
White,8,Right,1888,Male,Yes,English,E,354,1,4,16,0.0,0.0,1.0,716.2,1.0,353.0,11.0,1.07633,0.903758
White,8,Right,1888,Male,Yes,English,E,355,1,16,16,0.0,0.0,1.0,577.063,1.0,354.0,11.0,1.19245,0.919348
White,8,Right,1888,Male,Yes,English,E,356,0,8,8,180.0,1.0,1.0,953.987,1.0,355.0,11.0,1.00049,0.899105
White,8,Right,1888,Male,Yes,English,E,357,1,4,4,0.0,0.0,1.0,577.966,1.0,356.0,11.0,1.1839,0.825185
White,8,Right,1888,Male,Yes,English,E,358,0,0,8,180.0,1.0,1.0,514.617,1.0,357.0,11.0,1.00809,0.810583
White,8,Right,1888,Male,Yes,English,E,359,0,4,0,0.0,0.0,1.0,639.067,1.0,358.0,11.0,1.04517,0.895663
White,8,Right,1888,Male,Yes,English,E,360,0,16,4,0.0,0.0,1.0,796.073,1.0,359.0,11.0,1.08554,0.809478
White,8,Right,1888,Male,Yes,English,E,361,1,16,0,180.0,1.0,1.0,766.63,1.0,360.0,11.0,1.13656,0.880537
White,8,Right,1888,Male,Yes,English,E,362,1,0,0,0.0,0.0,1.0,581.713,1.0,361.0,11.0,1.06373,0.945201
White,8,Right,1888,Male,Yes,English,E,363,1,4,8,180.0,1.0,1.0,674.063,1.0,362.0,11.0,1.07992,0.811861
White,8,Right,1888,Male,Yes,English,E,364,0,16,8,180.0,1.0,1.0,703.694,1.0,363.0,11.0,1.13475,0.85046
White,8,Right,1888,Male,Yes,English,E,365,0,0,16,0.0,0.0,1.0,677.966,1.0,364.0,11.0,1.11646,0.855875
White,8,Right,1888,Male,Yes,English,E,366,1,4,0,180.0,1.0,1.0,642.162,1.0,365.0,11.0,1.102,0.8089
White,8,Right,1888,Male,Yes,English,E,367,1,0,4,180.0,1.0,1.0,1068.6,1.0,366.0,11.0,1.08547,0.877369
White,8,Right,1888,Male,Yes,English,E,368,0,0,0,180.0,1.0,1.0,498.313,1.0,367.0,11.0,1.07203,0.817389
White,8,Right,1888,Male,Yes,English,E,369,0,8,0,0.0,0.0,1.0,616.825,1.0,368.0,11.0,1.06804,0.992118
White,8,Right,1888,Male,Yes,English,E,370,0,16,16,180.0,1.0,1.0,805.368,1.0,369.0,11.0,1.19912,0.915992
White,8,Right,1888,Male,Yes,English,E,371,1,0,8,0.0,0.0,1.0,650.098,1.0,370.0,11.0,1.18525,0.967177
White,8,Right,1888,Male,Yes,English,E,372,0,8,4,180.0,1.0,1.0,1006.74,1.0,371.0,11.0,1.1315,0.984545
White,8,Right,1888,Male,Yes,English,E,373,0,8,16,0.0,0.0,1.0,951.457,1.0,372.0,11.0,1.15084,0.858292
White,8,Right,1888,Male,Yes,English,E,374,1,8,16,0.0,0.0,1.0,529.286,1.0,373.0,11.0,1.15494,0.913018
White,8,Right,1888,Male,Yes,English,E,375,0,4,16,0.0,0.0,1.0,685.872,1.0,374.0,11.0,1.10163,0.967618
White,8,Right,1888,Male,Yes,English,E,376,0,4,8,180.0,1.0,1.0,787.261,1.0,375.0,11.0,1.01318,0.863774
White,8,Right,1888,Male,Yes,English,E,377,1,16,4,0.0,0.0,1.0,949.881,1.0,376.0,11.0,1.14752,0.80227
White,8,Right,1888,Male,Yes,English,E,378,1,0,16,180.0,1.0,1.0,744.104,1.0,377.0,11.0,1.0668,0.952756
White,8,Right,1888,Male,Yes,English,E,379,1,8,4,180.0,1.0,1.0,1051.34,1.0,378.0,11.0,1.01479,0.891458
White,8,Right,1888,Male,Yes,English,E,380,0,16,0,180.0,1.0,1.0,1006.42,1.0,379.0,11.0,1.0809,0.967385
White,8,Right,1888,Male,Yes,English,E,381,1,8,8,180.0,1.0,1.0,753.202,1.0,380.0,11.0,1.1525,0.845475
White,8,Right,1888,Male,Yes,English,E,382,0,0,4,180.0,1.0,1.0,852.0,1.0,381.0,11.0,1.01113,0.817466
White,8,Right,1888,Male,Yes,English,E,383,0,4,4,0.0,0.0,1.0,650.538,1.0,382.0,11.0,1.06442,0.995918
White,8,Right,1888,Male,Yes,English,E,384,1,16,8,0.0,0.0,1.0,688.332,1.0,383.0,11.0,1.12735,0.996091
White,8,Right,1888,Male,Yes,English,E,385,1,16,0,0.0,0.0,1.0,567.985,1.0,384.0,12.0,1.00729,0.94728
White,8,Right,1888,Male,Yes,English,E,386,0,16,0,180.0,1.0,1.0,817.91,1.0,385.0,12.0,1.05642,0.858979
White,8,Right,1888,Male,Yes,English,E,387,1,16,16,180.0,1.0,1.0,633.563,1.0,386.0,12.0,1.12346,0.884101
White,8,Right,1888,Male,Yes,English,E,388,0,4,8,0.0,0.0,1.0,703.068,1.0,387.0,12.0,1.02402,0.844883
White,8,Right,1888,Male,Yes,English,E,389,0,16,8,180.0,1.0,1.0,644.899,1.0,388.0,12.0,1.02337,0.889975
White,8,Right,1888,Male,Yes,English,E,390,1,16,4,0.0,0.0,1.0,727.415,1.0,389.0,12.0,1.17566,0.87369
White,8,Right,1888,Male,Yes,English,E,391,0,16,4,0.0,0.0,1.0,448.104,1.0,390.0,12.0,1.12565,0.859234
White,8,Right,1888,Male,Yes,English,E,392,0,0,16,0.0,0.0,1.0,524.54,1.0,391.0,12.0,1.14037,0.830428
White,8,Right,1888,Male,Yes,English,E,393,0,8,16,0.0,0.0,1.0,513.157,1.0,392.0,12.0,1.13095,0.931852
White,8,Right,1888,Male,Yes,English,E,394,1,16,8,0.0,0.0,1.0,602.581,1.0,393.0,12.0,1.07716,0.944459
White,8,Right,1888,Male,Yes,English,E,395,1,8,8,180.0,1.0,1.0,592.172,1.0,394.0,12.0,1.02841,0.990495
White,8,Right,1888,Male,Yes,English,E,396,0,0,8,180.0,0.0,0.0,389.092,1.0,395.0,12.0,1.036,0.814431
White,8,Right,1888,Male,Yes,English,E,397,0,8,4,180.0,1.0,1.0,522.018,1.0,396.0,12.0,1.19524,0.94575
White,8,Right,1888,Male,Yes,English,E,398,1,8,4,0.0,0.0,1.0,755.112,1.0,397.0,12.0,1.12055,0.875812
White,8,Right,1888,Male,Yes,English,E,399,1,4,16,180.0,1.0,1.0,582.318,1.0,398.0,12.0,1.05321,0.957071
White,8,Right,1888,Male,Yes,English,E,400,1,8,0,0.0,0.0,1.0,600.677,1.0,399.0,12.0,1.16875,0.871499
White,8,Right,1888,Male,Yes,English,E,401,1,0,16,0.0,0.0,1.0,600.801,1.0,400.0,12.0,1.08025,0.973089
White,8,Right,1888,Male,Yes,English,E,402,0,4,16,0.0,0.0,1.0,514.289,1.0,401.0,12.0,1.12479,0.917309
White,8,Right,1888,Male,Yes,English,E,403,1,4,8,0.0,0.0,1.0,513.819,1.0,402.0,12.0,1.01833,0.83235
White,8,Right,1888,Male,Yes,English,E,404,0,4,4,180.0,1.0,1.0,725.734,1.0,403.0,12.0,1.18883,0.904793
White,8,Right,1888,Male,Yes,English,E,405,1,0,4,0.0,0.0,1.0,615.864,1.0,404.0,12.0,1.10326,0.935987
White,8,Right,1888,Male,Yes,English,E,406,1,4,4,180.0,1.0,1.0,629.902,1.0,405.0,12.0,1.09982,0.972665
White,8,Right,1888,Male,Yes,English,E,407,0,4,0,0.0,0.0,1.0,868.626,1.0,406.0,12.0,1.04333,0.851019
White,8,Right,1888,Male,Yes,English,E,408,0,16,16,180.0,1.0,1.0,714.414,1.0,407.0,12.0,1.06782,0.892574
White,8,Right,1888,Male,Yes,English,E,409,1,0,8,0.0,1.0,0.0,611.537,1.0,408.0,12.0,1.07793,0.914425
White,8,Right,1888,Male,Yes,English,E,410,0,0,0,180.0,1.0,1.0,736.161,1.0,409.0,12.0,1.17881,0.97383
White,8,Right,1888,Male,Yes,English,E,411,1,4,0,180.0,1.0,1.0,647.296,1.0,410.0,12.0,1.0169,0.878641
White,8,Right,1888,Male,Yes,English,E,412,1,0,0,180.0,1.0,1.0,708.023,1.0,411.0,12.0,1.10241,0.905555
White,8,Right,1888,Male,Yes,English,E,413,0,0,4,180.0,1.0,1.0,731.886,1.0,412.0,12.0,1.15967,0.823436
White,8,Right,1888,Male,Yes,English,E,414,0,8,0,180.0,1.0,1.0,642.813,1.0,413.0,12.0,1.12962,0.941076
White,8,Right,1888,Male,Yes,English,E,415,0,8,8,180.0,1.0,1.0,670.586,1.0,414.0,12.0,1.14979,0.94615
White,8,Right,1888,Male,Yes,English,E,416,1,8,16,0.0,0.0,1.0,649.785,1.0,415.0,12.0,1.17544,0.913415
White,8,Right,1888,Male,Yes,English,E,417,1,16,0,180.0,1.0,1.0,822.66,1.0,416.0,13.0,1.12077,0.991101
White,8,Right,1888,Male,Yes,English,E,418,0,16,4,0.0,0.0,1.0,880.943,1.0,417.0,13.0,1.16001,0.995806
White,8,Right,1888,Male,Yes,English,E,419,1,4,4,180.0,1.0,1.0,746.792,1.0,418.0,13.0,1.08164,0.840354
White,8,Right,1888,Male,Yes,English,E,420,1,8,16,0.0,0.0,1.0,645.634,1.0,419.0,13.0,1.07627,0.992033
White,8,Right,1888,Male,Yes,English,E,421,0,8,16,180.0,1.0,1.0,956.031,1.0,420.0,13.0,1.00808,0.812303
White,8,Right,1888,Male,Yes,English,E,422,1,4,0,180.0,1.0,1.0,726.557,1.0,421.0,13.0,1.19122,0.805571
White,8,Right,1888,Male,Yes,English,E,423,0,4,4,180.0,1.0,1.0,754.047,1.0,422.0,13.0,1.12971,0.800795
White,8,Right,1888,Male,Yes,English,E,424,0,0,16,0.0,0.0,1.0,607.292,1.0,423.0,13.0,1.02504,0.89746
White,8,Right,1888,Male,Yes,English,E,425,1,4,16,180.0,1.0,1.0,656.049,1.0,424.0,13.0,1.11135,0.884107
White,8,Right,1888,Male,Yes,English,E,426,0,4,8,180.0,1.0,1.0,603.42,1.0,425.0,13.0,1.11346,0.943877
White,8,Right,1888,Male,Yes,English,E,427,0,8,8,180.0,1.0,1.0,520.127,1.0,426.0,13.0,1.15612,0.811551
White,8,Right,1888,Male,Yes,English,E,428,0,16,8,0.0,1.0,0.0,656.485,1.0,427.0,13.0,1.1098,0.957386
White,8,Right,1888,Male,Yes,English,E,429,1,0,4,180.0,1.0,1.0,857.428,1.0,428.0,13.0,1.18519,0.813141
White,8,Right,1888,Male,Yes,English,E,430,1,4,8,180.0,1.0,1.0,483.951,1.0,429.0,13.0,1.11919,0.864231
White,8,Right,1888,Male,Yes,English,E,431,1,0,8,0.0,0.0,1.0,665.43,1.0,430.0,13.0,1.00368,0.95288
White,8,Right,1888,Male,Yes,English,E,432,1,0,0,0.0,0.0,1.0,597.658,1.0,431.0,13.0,1.08161,0.881022
White,8,Right,1888,Male,Yes,English,E,433,1,0,16,0.0,0.0,1.0,662.779,1.0,432.0,13.0,1.03391,0.915699
White,8,Right,1888,Male,Yes,English,E,434,0,8,4,0.0,0.0,1.0,1117.32,1.0,433.0,13.0,1.08161,0.918771
White,8,Right,1888,Male,Yes,English,E,435,1,8,8,0.0,0.0,1.0,780.485,1.0,434.0,13.0,1.03787,0.931514
White,8,Right,1888,Male,Yes,English,E,436,0,0,4,180.0,1.0,1.0,831.172,1.0,435.0,13.0,1.16187,0.999153
White,8,Right,1888,Male,Yes,English,E,437,0,0,0,180.0,1.0,1.0,455.854,1.0,436.0,13.0,1.00752,0.989981
White,8,Right,1888,Male,Yes,English,E,438,0,4,0,0.0,0.0,1.0,669.442,1.0,437.0,13.0,1.08988,0.810351
White,8,Right,1888,Male,Yes,English,E,439,0,4,16,180.0,1.0,1.0,990.826,1.0,438.0,13.0,1.1839,0.843391
White,8,Right,1888,Male,Yes,English,E,440,0,8,0,0.0,0.0,1.0,973.828,1.0,439.0,13.0,1.12091,0.962553
White,8,Right,1888,Male,Yes,English,E,441,1,16,4,0.0,0.0,1.0,930.11,1.0,440.0,13.0,1.073,0.994527
White,8,Right,1888,Male,Yes,English,E,442,1,8,0,0.0,0.0,1.0,714.215,1.0,441.0,13.0,1.11465,0.931871
White,8,Right,1888,Male,Yes,English,E,443,1,8,4,180.0,1.0,1.0,866.904,1.0,442.0,13.0,1.17944,0.898213
White,8,Right,1888,Male,Yes,English,E,444,1,16,16,0.0,0.0,1.0,647.982,1.0,443.0,13.0,1.14022,0.983262
White,8,Right,1888,Male,Yes,English,E,445,0,0,8,0.0,0.0,1.0,588.37,1.0,444.0,13.0,1.11499,0.911097
White,8,Right,1888,Male,Yes,English,E,446,1,16,8,0.0,0.0,1.0,632.762,1.0,445.0,13.0,1.07997,0.892521
White,8,Right,1888,Male,Yes,English,E,447,0,16,16,180.0,1.0,1.0,624.672,1.0,446.0,13.0,1.18294,0.802087
White,8,Right,1888,Male,Yes,English,E,448,0,16,0,180.0,1.0,1.0,1020.06,1.0,447.0,13.0,1.11287,0.887027
White,8,Right,1888,Male,Yes,English,E,449,1,4,8,0.0,0.0,1.0,1069.24,1.0,448.0,14.0,1.1548,0.91922
White,8,Right,1888,Male,Yes,English,E,450,1,4,0,180.0,1.0,1.0,756.745,1.0,449.0,14.0,1.00813,0.834387
White,8,Right,1888,Male,Yes,English,E,451,1,16,4,180.0,1.0,1.0,665.557,1.0,450.0,14.0,1.14397,0.908109
White,8,Right,1888,Male,Yes,English,E,452,1,0,4,180.0,1.0,1.0,642.224,1.0,451.0,14.0,1.14648,0.816931
White,8,Right,1888,Male,Yes,English,E,453,0,4,8,180.0,1.0,1.0,577.636,1.0,452.0,14.0,1.11847,0.82268
White,8,Right,1888,Male,Yes,English,E,454,1,4,4,180.0,1.0,1.0,672.009,1.0,453.0,14.0,1.09799,0.900951
White,8,Right,1888,Male,Yes,English,E,455,0,16,16,180.0,1.0,1.0,852.768,1.0,454.0,14.0,1.19624,0.926559
White,8,Right,1888,Male,Yes,English,E,456,0,8,4,0.0,0.0,1.0,669.373,1.0,455.0,14.0,1.02465,0.874836
White,8,Right,1888,Male,Yes,English,E,457,0,4,0,0.0,0.0,1.0,734.298,1.0,456.0,14.0,1.10996,0.881259
White,8,Right,1888,Male,Yes,English,E,458,1,16,0,180.0,1.0,1.0,592.764,1.0,457.0,14.0,1.09903,0.916079
White,8,Right,1888,Male,Yes,English,E,459,0,0,4,0.0,0.0,1.0,573.16,1.0,458.0,14.0,1.02805,0.919284
White,8,Right,1888,Male,Yes,English,E,460,1,8,8,0.0,0.0,1.0,626.717,1.0,459.0,14.0,1.13081,0.915085
White,8,Right,1888,Male,Yes,English,E,461,0,8,16,180.0,1.0,1.0,696.802,1.0,460.0,14.0,1.1808,0.868153
White,8,Right,1888,Male,Yes,English,E,462,0,16,4,180.0,1.0,1.0,570.306,1.0,461.0,14.0,1.13767,0.873326
White,8,Right,1888,Male,Yes,English,E,463,1,0,8,0.0,0.0,1.0,614.842,1.0,462.0,14.0,1.16758,0.808875
White,8,Right,1888,Male,Yes,English,E,464,0,4,4,180.0,0.0,0.0,534.85,1.0,463.0,14.0,1.19722,0.952799
White,8,Right,1888,Male,Yes,English,E,465,1,8,0,0.0,0.0,1.0,554.16,1.0,464.0,14.0,1.15679,0.979522
White,8,Right,1888,Male,Yes,English,E,466,0,16,0,180.0,1.0,1.0,548.429,1.0,465.0,14.0,1.11548,0.984068
White,8,Right,1888,Male,Yes,English,E,467,1,16,8,0.0,0.0,1.0,512.346,1.0,466.0,14.0,1.11901,0.906492
White,8,Right,1888,Male,Yes,English,E,468,0,0,0,0.0,0.0,1.0,668.042,1.0,467.0,14.0,1.10792,0.940356
White,8,Right,1888,Male,Yes,English,E,469,0,0,8,0.0,0.0,1.0,716.479,1.0,468.0,14.0,1.0038,0.822748
White,8,Right,1888,Male,Yes,English,E,470,0,4,16,0.0,0.0,1.0,646.766,1.0,469.0,14.0,1.10214,0.971797
White,8,Right,1888,Male,Yes,English,E,471,0,16,8,180.0,1.0,1.0,834.897,1.0,470.0,14.0,1.10616,0.870083
White,8,Right,1888,Male,Yes,English,E,472,0,8,0,180.0,1.0,1.0,518.362,1.0,471.0,14.0,1.19096,0.864167
White,8,Right,1888,Male,Yes,English,E,473,1,0,16,0.0,1.0,0.0,499.444,1.0,472.0,14.0,1.0917,0.926953
White,8,Right,1888,Male,Yes,English,E,474,1,0,0,0.0,0.0,1.0,546.304,1.0,473.0,14.0,1.02307,0.848045
White,8,Right,1888,Male,Yes,English,E,475,0,0,16,180.0,1.0,1.0,713.497,1.0,474.0,14.0,1.03697,0.816182
White,8,Right,1888,Male,Yes,English,E,476,1,8,16,180.0,1.0,1.0,1188.65,1.0,475.0,14.0,1.15273,0.82557
White,8,Right,1888,Male,Yes,English,E,477,1,16,16,0.0,0.0,1.0,741.805,1.0,476.0,14.0,1.12355,0.821801
White,8,Right,1888,Male,Yes,English,E,478,0,8,8,0.0,0.0,1.0,685.633,1.0,477.0,14.0,1.01742,0.907708
White,8,Right,1888,Male,Yes,English,E,479,1,4,16,0.0,0.0,1.0,698.786,1.0,478.0,14.0,1.02545,0.841898
White,8,Right,1888,Male,Yes,English,E,480,1,8,4,180.0,1.0,1.0,893.554,1.0,479.0,14.0,1.13481,0.995416
White,8,Right,1888,Male,Yes,English,E,481,0,16,16,0.0,0.0,1.0,757.721,1.0,480.0,15.0,1.10469,0.979801
White,8,Right,1888,Male,Yes,English,E,482,1,8,4,180.0,1.0,1.0,645.835,1.0,481.0,15.0,1.1425,0.992557
White,8,Right,1888,Male,Yes,English,E,483,1,16,8,180.0,1.0,1.0,499.397,1.0,482.0,15.0,1.10485,0.893125
White,8,Right,1888,Male,Yes,English,E,484,1,8,16,0.0,0.0,1.0,665.375,1.0,483.0,15.0,1.18405,0.918434
White,8,Right,1888,Male,Yes,English,E,485,1,8,0,180.0,1.0,1.0,804.526,1.0,484.0,15.0,1.06377,0.849341
White,8,Right,1888,Male,Yes,English,E,486,0,8,0,180.0,1.0,1.0,496.928,1.0,485.0,15.0,1.03796,0.892113
White,8,Right,1888,Male,Yes,English,E,487,0,4,16,0.0,0.0,1.0,719.944,1.0,486.0,15.0,1.06747,0.994228
White,8,Right,1888,Male,Yes,English,E,488,0,8,8,180.0,0.0,0.0,565.28,1.0,487.0,15.0,1.0384,0.91996
White,8,Right,1888,Male,Yes,English,E,489,1,16,0,0.0,1.0,0.0,599.381,1.0,488.0,15.0,1.1435,0.984903
White,8,Right,1888,Male,Yes,English,E,490,0,0,16,0.0,0.0,1.0,569.314,1.0,489.0,15.0,1.17413,0.881016
White,8,Right,1888,Male,Yes,English,E,491,1,0,8,0.0,0.0,1.0,34.5161,1.0,490.0,15.0,1.02276,0.862838
White,8,Right,1888,Male,Yes,English,E,492,0,16,8,0.0,0.0,1.0,1202.13,1.0,491.0,15.0,1.1881,0.895082
White,8,Right,1888,Male,Yes,English,E,493,1,16,4,180.0,1.0,1.0,1789.61,1.0,492.0,15.0,1.12074,0.804314
White,8,Right,1888,Male,Yes,English,E,494,1,8,8,180.0,1.0,1.0,678.282,1.0,493.0,15.0,1.10006,0.856136
White,8,Right,1888,Male,Yes,English,E,495,0,16,4,0.0,0.0,1.0,574.488,1.0,494.0,15.0,1.08581,0.818736
White,8,Right,1888,Male,Yes,English,E,496,0,0,4,0.0,0.0,1.0,528.089,1.0,495.0,15.0,1.17212,0.801078
White,8,Right,1888,Male,Yes,English,E,497,1,0,4,0.0,0.0,1.0,608.952,1.0,496.0,15.0,1.00751,0.934951
White,8,Right,1888,Male,Yes,English,E,498,0,8,16,180.0,1.0,1.0,639.458,1.0,497.0,15.0,1.01141,0.845575
White,8,Right,1888,Male,Yes,English,E,499,0,0,0,0.0,0.0,1.0,563.775,1.0,498.0,15.0,1.03881,0.900293
White,8,Right,1888,Male,Yes,English,E,500,0,16,0,180.0,1.0,1.0,619.36,1.0,499.0,15.0,1.13918,0.849947
White,8,Right,1888,Male,Yes,English,E,501,0,0,8,0.0,0.0,1.0,543.656,1.0,500.0,15.0,1.15905,0.803579
White,8,Right,1888,Male,Yes,English,E,502,1,4,8,180.0,1.0,1.0,995.421,1.0,501.0,15.0,1.1507,0.969169
White,8,Right,1888,Male,Yes,English,E,503,1,0,16,180.0,1.0,1.0,669.022,1.0,502.0,15.0,1.04514,0.922624
White,8,Right,1888,Male,Yes,English,E,504,1,16,16,180.0,1.0,1.0,621.975,1.0,503.0,15.0,1.01168,0.847422
White,8,Right,1888,Male,Yes,English,E,505,1,4,16,0.0,1.0,0.0,721.793,1.0,504.0,15.0,1.11944,0.825953
White,8,Right,1888,Male,Yes,English,E,506,0,4,0,0.0,0.0,1.0,574.373,1.0,505.0,15.0,1.06574,0.82223
White,8,Right,1888,Male,Yes,English,E,507,1,4,0,180.0,1.0,1.0,735.083,1.0,506.0,15.0,1.03758,0.935982
White,8,Right,1888,Male,Yes,English,E,508,0,8,4,0.0,0.0,1.0,1069.29,1.0,507.0,15.0,1.00676,0.96954
White,8,Right,1888,Male,Yes,English,E,509,0,4,4,180.0,1.0,1.0,667.886,1.0,508.0,15.0,1.0065,0.83501
White,8,Right,1888,Male,Yes,English,E,510,0,4,8,180.0,1.0,1.0,724.543,1.0,509.0,15.0,1.07184,0.900485
White,8,Right,1888,Male,Yes,English,E,511,1,0,0,180.0,1.0,1.0,617.547,1.0,510.0,15.0,1.12156,0.939569
White,8,Right,1888,Male,Yes,English,E,512,1,4,4,0.0,0.0,1.0,896.133,1.0,511.0,15.0,1.03813,0.931418
White,8,Right,1888,Male,Yes,English,E,513,1,16,8,180.0,1.0,1.0,693.402,1.0,512.0,16.0,1.06811,0.994316
White,8,Right,1888,Male,Yes,English,E,514,0,16,8,180.0,1.0,1.0,820.37,1.0,513.0,16.0,1.15194,0.952213
White,8,Right,1888,Male,Yes,English,E,515,0,16,4,180.0,1.0,1.0,782.466,1.0,514.0,16.0,1.14886,0.929905
White,8,Right,1888,Male,Yes,English,E,516,1,4,0,0.0,0.0,1.0,584.127,1.0,515.0,16.0,1.19015,0.805778
White,8,Right,1888,Male,Yes,English,E,517,1,8,0,180.0,1.0,1.0,848.015,1.0,516.0,16.0,1.13714,0.902279
White,8,Right,1888,Male,Yes,English,E,518,0,4,16,180.0,1.0,1.0,764.547,1.0,517.0,16.0,1.09648,0.972897
White,8,Right,1888,Male,Yes,English,E,519,0,0,4,180.0,1.0,1.0,680.569,1.0,518.0,16.0,1.12361,0.820216
White,8,Right,1888,Male,Yes,English,E,520,1,16,0,180.0,1.0,1.0,713.774,1.0,519.0,16.0,1.02785,0.984005
White,8,Right,1888,Male,Yes,English,E,521,1,16,16,0.0,0.0,1.0,608.881,1.0,520.0,16.0,1.01854,0.839836
White,8,Right,1888,Male,Yes,English,E,522,1,8,4,0.0,0.0,1.0,985.452,1.0,521.0,16.0,1.0923,0.892075
White,8,Right,1888,Male,Yes,English,E,523,0,4,0,0.0,0.0,1.0,694.503,1.0,522.0,16.0,1.03955,0.82065
White,8,Right,1888,Male,Yes,English,E,524,0,16,16,180.0,1.0,1.0,759.163,1.0,523.0,16.0,1.01828,0.965787
White,8,Right,1888,Male,Yes,English,E,525,0,8,4,180.0,1.0,1.0,807.289,1.0,524.0,16.0,1.05404,0.960975
White,8,Right,1888,Male,Yes,English,E,526,0,0,16,0.0,0.0,1.0,715.453,1.0,525.0,16.0,1.10075,0.940921
White,8,Right,1888,Male,Yes,English,E,527,0,8,0,0.0,0.0,1.0,817.03,1.0,526.0,16.0,1.17784,0.998542
White,8,Right,1888,Male,Yes,English,E,528,0,8,8,0.0,0.0,1.0,629.47,1.0,527.0,16.0,1.104,0.804513
White,8,Right,1888,Male,Yes,English,E,529,1,4,4,180.0,1.0,1.0,709.217,1.0,528.0,16.0,1.02428,0.847142
White,8,Right,1888,Male,Yes,English,E,530,1,0,4,180.0,1.0,1.0,765.701,1.0,529.0,16.0,1.15333,0.827345
White,8,Right,1888,Male,Yes,English,E,531,1,8,16,180.0,1.0,1.0,705.469,1.0,530.0,16.0,1.1113,0.985168
White,8,Right,1888,Male,Yes,English,E,532,1,4,16,0.0,0.0,1.0,747.336,1.0,531.0,16.0,1.13575,0.846366
White,8,Right,1888,Male,Yes,English,E,533,1,0,0,0.0,0.0,1.0,681.373,1.0,532.0,16.0,1.11583,0.817361
White,8,Right,1888,Male,Yes,English,E,534,1,16,4,0.0,0.0,1.0,674.817,1.0,533.0,16.0,1.06538,0.961776
White,8,Right,1888,Male,Yes,English,E,535,0,4,4,0.0,0.0,1.0,719.014,1.0,534.0,16.0,1.04291,0.853147
White,8,Right,1888,Male,Yes,English,E,536,1,8,8,0.0,0.0,1.0,586.609,1.0,535.0,16.0,1.17316,0.898786
White,8,Right,1888,Male,Yes,English,E,537,0,0,0,0.0,0.0,1.0,543.501,1.0,536.0,16.0,1.19931,0.873167
White,8,Right,1888,Male,Yes,English,E,538,0,8,16,0.0,0.0,1.0,574.664,1.0,537.0,16.0,1.05666,0.82888
White,8,Right,1888,Male,Yes,English,E,539,1,0,8,180.0,0.0,0.0,557.807,1.0,538.0,16.0,1.11405,0.916878
White,8,Right,1888,Male,Yes,English,E,540,1,4,8,180.0,0.0,0.0,439.386,1.0,539.0,16.0,1.01537,0.892307
White,8,Right,1888,Male,Yes,English,E,541,0,16,0,0.0,1.0,0.0,64.4974,1.0,540.0,16.0,1.01016,0.980985
White,8,Right,1888,Male,Yes,English,E,542,0,4,8,180.0,1.0,1.0,827.703,1.0,541.0,16.0,1.0856,0.933846
White,8,Right,1888,Male,Yes,English,E,543,1,0,16,180.0,1.0,1.0,635.109,1.0,542.0,16.0,1.08454,0.940419
White,8,Right,1888,Male,Yes,English,E,544,0,0,8,0.0,0.0,1.0,673.056,1.0,543.0,16.0,1.06364,0.960347
White,8,Right,1888,Male,Yes,English,E,545,1,16,0,0.0,0.0,1.0,778.326,1.0,544.0,17.0,1.04679,0.860514
White,8,Right,1888,Male,Yes,English,E,546,1,8,4,180.0,1.0,1.0,803.487,1.0,545.0,17.0,1.18039,0.910855
White,8,Right,1888,Male,Yes,English,E,547,0,4,0,0.0,0.0,1.0,596.791,1.0,546.0,17.0,1.12062,0.917558
White,8,Right,1888,Male,Yes,English,E,548,1,4,8,0.0,0.0,1.0,657.206,1.0,547.0,17.0,1.1049,0.893521
White,8,Right,1888,Male,Yes,English,E,549,0,16,4,0.0,1.0,0.0,1099.34,1.0,548.0,17.0,1.01085,0.88273
White,8,Right,1888,Male,Yes,English,E,550,0,4,4,0.0,0.0,1.0,842.512,1.0,549.0,17.0,1.04991,0.942105
White,8,Right,1888,Male,Yes,English,E,551,0,8,4,180.0,1.0,1.0,844.22,1.0,550.0,17.0,1.15521,0.885499
White,8,Right,1888,Male,Yes,English,E,552,1,4,4,180.0,1.0,1.0,628.038,1.0,551.0,17.0,1.01074,0.884439
White,8,Right,1888,Male,Yes,English,E,553,0,8,16,0.0,0.0,1.0,795.812,1.0,552.0,17.0,1.14182,0.823489
White,8,Right,1888,Male,Yes,English,E,554,1,4,0,180.0,1.0,1.0,755.558,1.0,553.0,17.0,1.18406,0.986125
White,8,Right,1888,Male,Yes,English,E,555,0,4,8,180.0,1.0,1.0,918.118,1.0,554.0,17.0,1.09893,0.924587
White,8,Right,1888,Male,Yes,English,E,556,0,0,4,180.0,1.0,1.0,622.935,1.0,555.0,17.0,1.00619,0.912493
White,8,Right,1888,Male,Yes,English,E,557,1,8,8,0.0,0.0,1.0,869.785,1.0,556.0,17.0,1.05422,0.842307
White,8,Right,1888,Male,Yes,English,E,558,0,16,0,180.0,1.0,1.0,903.455,1.0,557.0,17.0,1.07214,0.842122
White,8,Right,1888,Male,Yes,English,E,559,1,0,4,0.0,0.0,1.0,752.776,1.0,558.0,17.0,1.04138,0.923773
White,8,Right,1888,Male,Yes,English,E,560,1,8,16,0.0,0.0,1.0,594.688,1.0,559.0,17.0,1.18748,0.963562
White,8,Right,1888,Male,Yes,English,E,561,1,16,16,180.0,1.0,1.0,695.268,1.0,560.0,17.0,1.10053,0.964368
White,8,Right,1888,Male,Yes,English,E,562,0,4,16,180.0,0.0,0.0,784.059,1.0,561.0,17.0,1.09997,0.967428
White,8,Right,1888,Male,Yes,English,E,563,1,0,8,0.0,0.0,1.0,643.479,1.0,562.0,17.0,1.07701,0.975673
White,8,Right,1888,Male,Yes,English,E,564,1,16,4,180.0,1.0,1.0,760.921,1.0,563.0,17.0,1.08252,0.838683
White,8,Right,1888,Male,Yes,English,E,565,1,16,8,180.0,1.0,1.0,556.114,1.0,564.0,17.0,1.0029,0.935934
White,8,Right,1888,Male,Yes,English,E,566,1,8,0,0.0,0.0,1.0,715.704,1.0,565.0,17.0,1.0717,0.903578
White,8,Right,1888,Male,Yes,English,E,567,0,0,8,0.0,0.0,1.0,768.554,1.0,566.0,17.0,1.1633,0.879556
White,8,Right,1888,Male,Yes,English,E,568,0,0,16,0.0,0.0,1.0,742.562,1.0,567.0,17.0,1.04442,0.800544
White,8,Right,1888,Male,Yes,English,E,569,0,8,0,180.0,1.0,1.0,824.585,1.0,568.0,17.0,1.00282,0.900505
White,8,Right,1888,Male,Yes,English,E,570,0,16,16,180.0,1.0,1.0,645.147,1.0,569.0,17.0,1.15074,0.813354
White,8,Right,1888,Male,Yes,English,E,571,1,0,0,0.0,0.0,1.0,484.78,1.0,570.0,17.0,1.07724,0.870055
White,8,Right,1888,Male,Yes,English,E,572,1,4,16,0.0,0.0,1.0,621.801,1.0,571.0,17.0,1.08774,0.967722
White,8,Right,1888,Male,Yes,English,E,573,0,16,8,180.0,1.0,1.0,1076.89,1.0,572.0,17.0,1.06012,0.914011
White,8,Right,1888,Male,Yes,English,E,574,0,8,8,180.0,1.0,1.0,778.84,1.0,573.0,17.0,1.17647,0.839364
White,8,Right,1888,Male,Yes,English,E,575,0,0,0,0.0,0.0,1.0,739.892,1.0,574.0,17.0,1.19641,0.927378
White,8,Right,1888,Male,Yes,English,E,576,1,0,16,180.0,1.0,1.0,672.111,1.0,575.0,17.0,1.01944,0.803729
White,8,Right,1888,Male,Yes,English,E,577,0,0,0,180.0,1.0,1.0,609.129,1.0,576.0,18.0,1.12851,0.850238
White,8,Right,1888,Male,Yes,English,E,578,1,16,4,0.0,0.0,1.0,775.425,1.0,577.0,18.0,1.01714,0.953394
White,8,Right,1888,Male,Yes,English,E,579,0,16,0,0.0,1.0,0.0,702.205,1.0,578.0,18.0,1.08141,0.922507
White,8,Right,1888,Male,Yes,English,E,580,0,16,8,180.0,1.0,1.0,698.826,1.0,579.0,18.0,1.09583,0.828052
White,8,Right,1888,Male,Yes,English,E,581,0,8,0,180.0,1.0,1.0,657.132,1.0,580.0,18.0,1.07364,0.957179
White,8,Right,1888,Male,Yes,English,E,582,1,0,16,180.0,1.0,1.0,681.523,1.0,581.0,18.0,1.01039,0.81726
White,8,Right,1888,Male,Yes,English,E,583,1,0,0,0.0,0.0,1.0,729.852,1.0,582.0,18.0,1.01694,0.809972
White,8,Right,1888,Male,Yes,English,E,584,1,8,8,180.0,1.0,1.0,799.734,1.0,583.0,18.0,1.07517,0.878718
White,8,Right,1888,Male,Yes,English,E,585,0,4,0,0.0,0.0,1.0,852.645,1.0,584.0,18.0,1.17689,0.94838
White,8,Right,1888,Male,Yes,English,E,586,0,4,8,180.0,1.0,1.0,974.646,1.0,585.0,18.0,1.17485,0.899557
White,8,Right,1888,Male,Yes,English,E,587,1,8,16,180.0,1.0,1.0,642.144,1.0,586.0,18.0,1.09701,0.946405
White,8,Right,1888,Male,Yes,English,E,588,1,16,8,0.0,0.0,1.0,660.815,1.0,587.0,18.0,1.17589,0.863763
White,8,Right,1888,Male,Yes,English,E,589,0,4,16,180.0,1.0,1.0,766.508,1.0,588.0,18.0,1.1531,0.970642
White,8,Right,1888,Male,Yes,English,E,590,0,8,8,180.0,0.0,0.0,580.258,1.0,589.0,18.0,1.14973,0.999557
White,8,Right,1888,Male,Yes,English,E,591,1,16,16,180.0,1.0,1.0,943.626,1.0,590.0,18.0,1.11718,0.814588
White,8,Right,1888,Male,Yes,English,E,592,1,4,8,0.0,0.0,1.0,881.545,1.0,591.0,18.0,1.06385,0.812465
White,8,Right,1888,Male,Yes,English,E,593,0,8,16,0.0,0.0,1.0,1120.32,1.0,592.0,18.0,1.18521,0.90669
White,8,Right,1888,Male,Yes,English,E,594,0,0,16,0.0,0.0,1.0,570.349,1.0,593.0,18.0,1.03617,0.827545
White,8,Right,1888,Male,Yes,English,E,595,0,16,4,0.0,0.0,1.0,905.263,1.0,594.0,18.0,1.09081,0.955294
White,8,Right,1888,Male,Yes,English,E,596,1,8,0,0.0,0.0,1.0,735.136,1.0,595.0,18.0,1.06155,0.833656
White,8,Right,1888,Male,Yes,English,E,597,1,0,8,0.0,0.0,1.0,939.289,1.0,596.0,18.0,1.13002,0.846806
White,8,Right,1888,Male,Yes,English,E,598,1,0,4,0.0,0.0,1.0,683.051,1.0,597.0,18.0,1.10371,0.804962
White,8,Right,1888,Male,Yes,English,E,599,1,8,4,0.0,0.0,1.0,752.75,1.0,598.0,18.0,1.15243,0.83015
White,8,Right,1888,Male,Yes,English,E,600,0,0,8,180.0,1.0,1.0,811.883,1.0,599.0,18.0,1.14918,0.923946
White,8,Right,1888,Male,Yes,English,E,601,0,16,16,0.0,0.0,1.0,807.947,1.0,600.0,18.0,1.13795,0.859985
White,8,Right,1888,Male,Yes,English,E,602,0,4,4,0.0,0.0,1.0,798.618,1.0,601.0,18.0,1.1016,0.977405
White,8,Right,1888,Male,Yes,English,E,603,1,4,0,180.0,1.0,1.0,690.804,1.0,602.0,18.0,1.08033,0.8005
White,8,Right,1888,Male,Yes,English,E,604,1,4,4,180.0,0.0,0.0,707.594,1.0,603.0,18.0,1.04136,0.816428
White,8,Right,1888,Male,Yes,English,E,605,1,16,0,180.0,1.0,1.0,817.706,1.0,604.0,18.0,1.16984,0.942841
White,8,Right,1888,Male,Yes,English,E,606,0,0,4,180.0,1.0,1.0,734.114,1.0,605.0,18.0,1.07754,0.931744
White,8,Right,1888,Male,Yes,English,E,607,1,4,16,180.0,1.0,1.0,617.325,1.0,606.0,18.0,1.12094,0.981215
White,8,Right,1888,Male,Yes,English,E,608,0,8,4,0.0,0.0,1.0,1160.04,1.0,607.0,18.0,1.01861,0.829469
White,8,Right,1888,Male,Yes,English,E,609,1,4,8,0.0,0.0,1.0,638.452,1.0,608.0,19.0,1.1335,0.831777
White,8,Right,1888,Male,Yes,English,E,610,0,16,8,180.0,1.0,1.0,706.943,1.0,609.0,19.0,1.07283,0.92052
White,8,Right,1888,Male,Yes,English,E,611,1,16,0,180.0,1.0,1.0,941.939,1.0,610.0,19.0,1.12459,0.849833
White,8,Right,1888,Male,Yes,English,E,612,0,8,8,0.0,0.0,1.0,916.767,1.0,611.0,19.0,1.03381,0.912927
White,8,Right,1888,Male,Yes,English,E,613,0,8,16,180.0,0.0,0.0,739.972,1.0,612.0,19.0,1.0183,0.826895
White,8,Right,1888,Male,Yes,English,E,614,1,0,4,0.0,0.0,1.0,662.019,1.0,613.0,19.0,1.02435,0.936295
White,8,Right,1888,Male,Yes,English,E,615,0,8,0,180.0,1.0,1.0,748.584,1.0,614.0,19.0,1.08708,0.819114
White,8,Right,1888,Male,Yes,English,E,616,0,8,4,0.0,0.0,1.0,781.035,1.0,615.0,19.0,1.10851,0.977615
White,8,Right,1888,Male,Yes,English,E,617,0,4,4,180.0,1.0,1.0,909.384,1.0,616.0,19.0,1.13512,0.913767
White,8,Right,1888,Male,Yes,English,E,618,0,0,0,180.0,1.0,1.0,559.429,1.0,617.0,19.0,1.04113,0.95102
White,8,Right,1888,Male,Yes,English,E,619,1,0,0,0.0,0.0,1.0,560.804,1.0,618.0,19.0,1.05896,0.951938
White,8,Right,1888,Male,Yes,English,E,620,0,0,16,180.0,1.0,1.0,649.559,1.0,619.0,19.0,1.05404,0.954387
White,8,Right,1888,Male,Yes,English,E,621,1,16,8,180.0,1.0,1.0,920.16,1.0,620.0,19.0,1.11901,0.900154
White,8,Right,1888,Male,Yes,English,E,622,1,0,16,180.0,1.0,1.0,728.813,1.0,621.0,19.0,1.14475,0.971904
White,8,Right,1888,Male,Yes,English,E,623,1,8,4,180.0,1.0,1.0,697.313,1.0,622.0,19.0,1.03642,0.885636
White,8,Right,1888,Male,Yes,English,E,624,0,4,0,0.0,0.0,1.0,716.488,1.0,623.0,19.0,1.04817,0.808147
White,8,Right,1888,Male,Yes,English,E,625,0,4,8,180.0,1.0,1.0,954.646,1.0,624.0,19.0,1.17,0.863502
White,8,Right,1888,Male,Yes,English,E,626,1,8,0,180.0,1.0,1.0,566.381,1.0,625.0,19.0,1.10596,0.85167
White,8,Right,1888,Male,Yes,English,E,627,0,16,4,180.0,1.0,1.0,714.524,1.0,626.0,19.0,1.18368,0.912897
White,8,Right,1888,Male,Yes,English,E,628,1,4,16,0.0,0.0,1.0,794.753,1.0,627.0,19.0,1.11327,0.84825
White,8,Right,1888,Male,Yes,English,E,629,1,16,16,0.0,0.0,1.0,564.002,1.0,628.0,19.0,1.16891,0.983624
White,8,Right,1888,Male,Yes,English,E,630,1,0,8,0.0,0.0,1.0,516.745,1.0,629.0,19.0,1.04809,0.883926
White,8,Right,1888,Male,Yes,English,E,631,1,4,0,0.0,0.0,1.0,775.141,1.0,630.0,19.0,1.0668,0.994079
White,8,Right,1888,Male,Yes,English,E,632,1,8,16,0.0,0.0,1.0,810.025,1.0,631.0,19.0,1.17972,0.970699
White,8,Right,1888,Male,Yes,English,E,633,0,16,0,180.0,1.0,1.0,703.365,1.0,632.0,19.0,1.04029,0.899382
White,8,Right,1888,Male,Yes,English,E,634,1,16,4,0.0,0.0,1.0,630.584,1.0,633.0,19.0,1.12551,0.995948
White,8,Right,1888,Male,Yes,English,E,635,0,4,16,0.0,0.0,1.0,863.327,1.0,634.0,19.0,1.16865,0.96543
White,8,Right,1888,Male,Yes,English,E,636,0,0,8,0.0,0.0,1.0,676.432,1.0,635.0,19.0,1.15604,0.909731
White,8,Right,1888,Male,Yes,English,E,637,0,0,4,180.0,0.0,0.0,656.378,1.0,636.0,19.0,1.09695,0.911276
White,8,Right,1888,Male,Yes,English,E,638,1,4,4,0.0,0.0,1.0,813.717,1.0,637.0,19.0,1.10867,0.888151
White,8,Right,1888,Male,Yes,English,E,639,0,16,16,0.0,0.0,1.0,774.23,1.0,638.0,19.0,1.01595,0.925902
White,8,Right,1888,Male,Yes,English,E,640,1,8,8,180.0,1.0,1.0,754.138,1.0,639.0,19.0,1.12242,0.826153
White,8,Right,1888,Male,Yes,English,E,641,1,8,0,0.0,0.0,1.0,946.369,1.0,640.0,20.0,1.09543,0.967303
White,8,Right,1888,Male,Yes,English,E,642,1,4,16,0.0,0.0,1.0,801.589,1.0,641.0,20.0,1.15772,0.854954
White,8,Right,1888,Male,Yes,English,E,643,0,8,0,180.0,1.0,1.0,869.073,1.0,642.0,20.0,1.14321,0.999429
White,8,Right,1888,Male,Yes,English,E,644,1,16,4,180.0,1.0,1.0,822.547,1.0,643.0,20.0,1.03944,0.933294
White,8,Right,1888,Male,Yes,English,E,645,1,16,0,180.0,1.0,1.0,741.022,1.0,644.0,20.0,1.02664,0.892962
White,8,Right,1888,Male,Yes,English,E,646,0,4,16,180.0,1.0,1.0,757.056,1.0,645.0,20.0,1.15661,0.910442
White,8,Right,1888,Male,Yes,English,E,647,1,0,16,180.0,1.0,1.0,687.749,1.0,646.0,20.0,1.07909,0.952158
White,8,Right,1888,Male,Yes,English,E,648,1,4,8,0.0,0.0,1.0,649.318,1.0,647.0,20.0,1.1559,0.852214
White,8,Right,1888,Male,Yes,English,E,649,0,0,16,0.0,0.0,1.0,675.868,1.0,648.0,20.0,1.08804,0.899092
White,8,Right,1888,Male,Yes,English,E,650,0,4,8,0.0,0.0,1.0,717.088,1.0,649.0,20.0,1.11987,0.988577
White,8,Right,1888,Male,Yes,English,E,651,0,4,0,0.0,0.0,1.0,675.524,1.0,650.0,20.0,1.13166,0.962835
White,8,Right,1888,Male,Yes,English,E,652,0,16,16,180.0,1.0,1.0,856.575,1.0,651.0,20.0,1.00183,0.819949
White,8,Right,1888,Male,Yes,English,E,653,1,16,16,180.0,1.0,1.0,866.326,1.0,652.0,20.0,1.18197,0.834449
White,8,Right,1888,Male,Yes,English,E,654,0,8,4,180.0,1.0,1.0,659.722,1.0,653.0,20.0,1.06543,0.806048
White,8,Right,1888,Male,Yes,English,E,655,1,0,8,180.0,1.0,1.0,673.025,1.0,654.0,20.0,1.08752,0.823467
White,8,Right,1888,Male,Yes,English,E,656,1,8,4,180.0,1.0,1.0,659.18,1.0,655.0,20.0,1.01792,0.983071
White,8,Right,1888,Male,Yes,English,E,657,0,16,4,0.0,0.0,1.0,965.155,1.0,656.0,20.0,1.05031,0.897561
White,8,Right,1888,Male,Yes,English,E,658,1,16,8,0.0,0.0,1.0,743.354,1.0,657.0,20.0,1.14032,0.957646
White,8,Right,1888,Male,Yes,English,E,659,0,4,4,0.0,0.0,1.0,669.964,1.0,658.0,20.0,1.0312,0.929916
White,8,Right,1888,Male,Yes,English,E,660,0,8,8,180.0,1.0,1.0,946.55,1.0,659.0,20.0,1.00757,0.812878
White,8,Right,1888,Male,Yes,English,E,661,0,0,8,180.0,1.0,1.0,689.783,1.0,660.0,20.0,1.05011,0.951064
White,8,Right,1888,Male,Yes,English,E,662,0,16,8,180.0,1.0,1.0,621.966,1.0,661.0,20.0,1.19669,0.836849
White,8,Right,1888,Male,Yes,English,E,663,1,0,4,0.0,0.0,1.0,486.093,1.0,662.0,20.0,1.12348,0.819519
White,8,Right,1888,Male,Yes,English,E,664,1,4,4,0.0,0.0,1.0,838.936,1.0,663.0,20.0,1.09766,0.921926
White,8,Right,1888,Male,Yes,English,E,665,1,8,8,0.0,0.0,1.0,463.747,1.0,664.0,20.0,1.08007,0.940043
White,8,Right,1888,Male,Yes,English,E,666,1,8,16,180.0,1.0,1.0,464.985,1.0,665.0,20.0,1.11881,0.948286
White,8,Right,1888,Male,Yes,English,E,667,0,0,0,0.0,1.0,0.0,610.02,1.0,666.0,20.0,1.00468,0.911872
White,8,Right,1888,Male,Yes,English,E,668,0,8,16,0.0,0.0,1.0,858.312,1.0,667.0,20.0,1.00887,0.859723
White,8,Right,1888,Male,Yes,English,E,669,0,0,4,0.0,0.0,1.0,529.222,1.0,668.0,20.0,1.19809,0.960671
White,8,Right,1888,Male,Yes,English,E,670,1,0,0,180.0,1.0,1.0,423.634,1.0,669.0,20.0,1.10584,0.88916
White,8,Right,1888,Male,Yes,English,E,671,0,16,0,0.0,0.0,1.0,636.093,1.0,670.0,20.0,1.15481,0.816929
White,8,Right,1888,Male,Yes,English,E,672,1,4,0,180.0,0.0,0.0,495.675,1.0,671.0,20.0,1.01673,0.920265
White,8,Right,1888,Male,Yes,English,E,673,1,0,8,180.0,1.0,1.0,667.888,1.0,672.0,21.0,1.19689,0.985472
White,8,Right,1888,Male,Yes,English,E,674,1,8,16,0.0,0.0,1.0,741.455,1.0,673.0,21.0,1.01216,0.980866
White,8,Right,1888,Male,Yes,English,E,675,1,4,8,180.0,1.0,1.0,713.504,1.0,674.0,21.0,1.08343,0.925668
White,8,Right,1888,Male,Yes,English,E,676,0,16,0,0.0,0.0,1.0,509.091,1.0,675.0,21.0,1.01086,0.913601
White,8,Right,1888,Male,Yes,English,E,677,0,16,8,180.0,1.0,1.0,776.599,1.0,676.0,21.0,1.15013,0.968461
White,8,Right,1888,Male,Yes,English,E,678,0,8,16,180.0,1.0,1.0,686.065,1.0,677.0,21.0,1.01556,0.817071
White,8,Right,1888,Male,Yes,English,E,679,0,8,0,0.0,0.0,1.0,927.26,1.0,678.0,21.0,1.07946,0.891585
White,8,Right,1888,Male,Yes,English,E,680,0,8,4,0.0,0.0,1.0,1080.31,1.0,679.0,21.0,1.06083,0.878728
White,8,Right,1888,Male,Yes,English,E,681,0,0,0,0.0,0.0,1.0,682.279,1.0,680.0,21.0,1.1673,0.985613
White,8,Right,1888,Male,Yes,English,E,682,0,4,8,180.0,1.0,1.0,656.953,1.0,681.0,21.0,1.1878,0.963646
White,8,Right,1888,Male,Yes,English,E,683,1,16,16,0.0,0.0,1.0,613.081,1.0,682.0,21.0,1.07192,0.921116
White,8,Right,1888,Male,Yes,English,E,684,0,0,8,0.0,0.0,1.0,797.194,1.0,683.0,21.0,1.12995,0.852833
White,8,Right,1888,Male,Yes,English,E,685,0,4,0,0.0,0.0,1.0,579.787,1.0,684.0,21.0,1.0784,0.90053
White,8,Right,1888,Male,Yes,English,E,686,0,4,4,180.0,0.0,0.0,865.085,1.0,685.0,21.0,1.04566,0.898989
White,8,Right,1888,Male,Yes,English,E,687,0,16,16,0.0,0.0,1.0,688.56,1.0,686.0,21.0,1.08972,0.842732
White,8,Right,1888,Male,Yes,English,E,688,0,0,16,180.0,1.0,1.0,718.147,1.0,687.0,21.0,1.14765,0.849385
White,8,Right,1888,Male,Yes,English,E,689,0,16,4,180.0,1.0,1.0,725.467,1.0,688.0,21.0,1.17681,0.824343
White,8,Right,1888,Male,Yes,English,E,690,0,8,8,180.0,1.0,1.0,803.897,1.0,689.0,21.0,1.16045,0.907556
White,8,Right,1888,Male,Yes,English,E,691,1,16,8,0.0,0.0,1.0,670.301,1.0,690.0,21.0,1.18231,0.984966
White,8,Right,1888,Male,Yes,English,E,692,1,0,4,0.0,0.0,1.0,712.862,1.0,691.0,21.0,1.08908,0.864197
White,8,Right,1888,Male,Yes,English,E,693,1,4,16,180.0,1.0,1.0,780.206,1.0,692.0,21.0,1.17351,0.89913
White,8,Right,1888,Male,Yes,English,E,694,1,16,4,0.0,0.0,1.0,722.834,1.0,693.0,21.0,1.11072,0.822832
White,8,Right,1888,Male,Yes,English,E,695,1,8,4,180.0,1.0,1.0,692.463,1.0,694.0,21.0,1.1696,0.829742
White,8,Right,1888,Male,Yes,English,E,696,1,0,16,0.0,0.0,1.0,579.071,1.0,695.0,21.0,1.05234,0.949234
White,8,Right,1888,Male,Yes,English,E,697,0,4,16,0.0,0.0,1.0,853.665,1.0,696.0,21.0,1.19664,0.833228
White,8,Right,1888,Male,Yes,English,E,698,1,4,4,180.0,1.0,1.0,768.921,1.0,697.0,21.0,1.14916,0.956547
White,8,Right,1888,Male,Yes,English,E,699,1,8,8,180.0,1.0,1.0,178.032,1.0,698.0,21.0,1.11387,0.882626
White,8,Right,1888,Male,Yes,English,E,700,1,16,0,0.0,0.0,1.0,444.07,1.0,699.0,21.0,1.10499,0.831964
White,8,Right,1888,Male,Yes,English,E,701,1,0,0,0.0,0.0,1.0,601.081,1.0,700.0,21.0,1.14065,0.958139
White,8,Right,1888,Male,Yes,English,E,702,1,8,0,180.0,1.0,1.0,511.39,1.0,701.0,21.0,1.14447,0.947061
White,8,Right,1888,Male,Yes,English,E,703,1,4,0,180.0,1.0,1.0,587.138,1.0,702.0,21.0,1.12478,0.872931
White,8,Right,1888,Male,Yes,English,E,704,0,0,4,180.0,1.0,1.0,941.345,1.0,703.0,21.0,1.04243,0.887692
White,8,Right,1888,Male,Yes,English,E,705,0,0,4,0.0,0.0,1.0,595.726,1.0,704.0,22.0,1.07031,0.877128
White,8,Right,1888,Male,Yes,English,E,706,0,8,16,180.0,1.0,1.0,736.896,1.0,705.0,22.0,1.09098,0.905041
White,8,Right,1888,Male,Yes,English,E,707,0,4,8,180.0,1.0,1.0,817.404,1.0,706.0,22.0,1.09096,0.944781
White,8,Right,1888,Male,Yes,English,E,708,0,8,4,180.0,1.0,1.0,698.859,1.0,707.0,22.0,1.06705,0.862314
White,8,Right,1888,Male,Yes,English,E,709,1,4,8,180.0,1.0,1.0,569.056,1.0,708.0,22.0,1.18993,0.835102
White,8,Right,1888,Male,Yes,English,E,710,0,4,4,180.0,1.0,1.0,825.161,1.0,709.0,22.0,1.16441,0.8328
White,8,Right,1888,Male,Yes,English,E,711,0,16,0,0.0,1.0,0.0,560.85,1.0,710.0,22.0,1.19489,0.821526
White,8,Right,1888,Male,Yes,English,E,712,1,16,0,180.0,1.0,1.0,561.885,1.0,711.0,22.0,1.11464,0.885614
White,8,Right,1888,Male,Yes,English,E,713,1,8,16,180.0,1.0,1.0,728.975,1.0,712.0,22.0,1.00629,0.807808
White,8,Right,1888,Male,Yes,English,E,714,0,4,0,0.0,0.0,1.0,711.301,1.0,713.0,22.0,1.12031,0.967423
White,8,Right,1888,Male,Yes,English,E,715,1,4,4,0.0,0.0,1.0,815.566,1.0,714.0,22.0,1.06711,0.865701
White,8,Right,1888,Male,Yes,English,E,716,0,16,4,180.0,0.0,0.0,662.869,1.0,715.0,22.0,1.12822,0.815455
White,8,Right,1888,Male,Yes,English,E,717,1,4,16,180.0,0.0,0.0,556.791,1.0,716.0,22.0,1.15521,0.981573
White,8,Right,1888,Male,Yes,English,E,718,1,0,16,180.0,1.0,1.0,668.297,1.0,717.0,22.0,1.17145,0.895367
White,8,Right,1888,Male,Yes,English,E,719,1,4,0,180.0,1.0,1.0,673.107,1.0,718.0,22.0,1.08152,0.992212
White,8,Right,1888,Male,Yes,English,E,720,0,0,0,180.0,1.0,1.0,559.255,1.0,719.0,22.0,1.00342,0.842247
White,8,Right,1888,Male,Yes,English,E,721,0,0,16,0.0,0.0,1.0,577.394,1.0,720.0,22.0,1.15706,0.927815
White,8,Right,1888,Male,Yes,English,E,722,1,8,8,0.0,0.0,1.0,906.023,1.0,721.0,22.0,1.03832,0.832871
White,8,Right,1888,Male,Yes,English,E,723,0,16,16,180.0,1.0,1.0,985.073,1.0,722.0,22.0,1.09203,0.917452
White,8,Right,1888,Male,Yes,English,E,724,1,16,4,0.0,1.0,0.0,781.621,1.0,723.0,22.0,1.05633,0.884647
White,8,Right,1888,Male,Yes,English,E,725,0,0,8,0.0,0.0,1.0,737.672,1.0,724.0,22.0,1.17983,0.858922
White,8,Right,1888,Male,Yes,English,E,726,1,0,0,180.0,1.0,1.0,682.253,1.0,725.0,22.0,1.14398,0.961254
White,8,Right,1888,Male,Yes,English,E,727,1,16,16,0.0,0.0,1.0,675.817,1.0,726.0,22.0,1.03024,0.962225
White,8,Right,1888,Male,Yes,English,E,728,1,8,0,0.0,0.0,1.0,9.80653,1.0,727.0,22.0,1.10748,0.930811
White,8,Right,1888,Male,Yes,English,E,729,0,16,8,0.0,1.0,0.0,155.322,1.0,728.0,22.0,1.15521,0.923827
White,8,Right,1888,Male,Yes,English,E,730,1,0,8,0.0,0.0,1.0,568.347,1.0,729.0,22.0,1.01982,0.819713
White,8,Right,1888,Male,Yes,English,E,731,1,16,8,0.0,1.0,0.0,549.158,1.0,730.0,22.0,1.06231,0.878147
White,8,Right,1888,Male,Yes,English,E,732,0,4,16,180.0,1.0,1.0,708.739,1.0,731.0,22.0,1.0707,0.899607
White,8,Right,1888,Male,Yes,English,E,733,0,8,8,0.0,0.0,1.0,585.424,1.0,732.0,22.0,1.03871,0.835505
White,8,Right,1888,Male,Yes,English,E,734,0,8,0,0.0,0.0,1.0,643.807,1.0,733.0,22.0,1.13076,0.988966
White,8,Right,1888,Male,Yes,English,E,735,1,0,4,0.0,0.0,1.0,407.706,1.0,734.0,22.0,1.05342,0.816898
White,8,Right,1888,Male,Yes,English,E,736,1,8,4,180.0,0.0,0.0,559.745,1.0,735.0,22.0,1.15684,0.882221
White,8,Right,1888,Male,Yes,English,E,737,1,0,8,180.0,1.0,1.0,476.188,1.0,736.0,23.0,1.18389,0.846002
White,8,Right,1888,Male,Yes,English,E,738,0,16,16,180.0,1.0,1.0,680.724,1.0,737.0,23.0,1.08212,0.840336
White,8,Right,1888,Male,Yes,English,E,739,0,0,16,0.0,1.0,0.0,85.6099,1.0,738.0,23.0,1.14798,0.907238
White,8,Right,1888,Male,Yes,English,E,740,1,16,8,0.0,0.0,1.0,550.808,1.0,739.0,23.0,1.07386,0.895391
White,8,Right,1888,Male,Yes,English,E,741,0,16,8,0.0,1.0,0.0,289.731,1.0,740.0,23.0,1.15146,0.929858
White,8,Right,1888,Male,Yes,English,E,742,1,4,16,180.0,1.0,1.0,699.167,1.0,741.0,23.0,1.13447,0.967516
White,8,Right,1888,Male,Yes,English,E,743,1,16,4,0.0,0.0,1.0,650.877,1.0,742.0,23.0,1.13859,0.934735
White,8,Right,1888,Male,Yes,English,E,744,0,8,0,0.0,1.0,0.0,616.45,1.0,743.0,23.0,1.0484,0.877981
White,8,Right,1888,Male,Yes,English,E,745,1,16,0,0.0,0.0,1.0,1029.32,1.0,744.0,23.0,1.07869,0.955868
White,8,Right,1888,Male,Yes,English,E,746,0,4,0,180.0,1.0,1.0,663.315,1.0,745.0,23.0,1.14585,0.838774
White,8,Right,1888,Male,Yes,English,E,747,0,0,4,0.0,0.0,1.0,685.16,1.0,746.0,23.0,1.01508,0.819004
White,8,Right,1888,Male,Yes,English,E,748,0,4,4,180.0,1.0,1.0,791.295,1.0,747.0,23.0,1.0312,0.988142
White,8,Right,1888,Male,Yes,English,E,749,1,4,8,0.0,0.0,1.0,715.534,1.0,748.0,23.0,1.18561,0.87524
White,8,Right,1888,Male,Yes,English,E,750,1,8,8,0.0,0.0,1.0,668.076,1.0,749.0,23.0,1.0835,0.964247
White,8,Right,1888,Male,Yes,English,E,751,1,8,4,180.0,1.0,1.0,564.055,1.0,750.0,23.0,1.06399,0.917785
White,8,Right,1888,Male,Yes,English,E,752,1,8,0,180.0,0.0,0.0,640.516,1.0,751.0,23.0,1.17419,0.886592
White,8,Right,1888,Male,Yes,English,E,753,0,0,0,0.0,1.0,0.0,98.0388,1.0,752.0,23.0,1.18627,0.856638
White,8,Right,1888,Male,Yes,English,E,754,0,16,0,180.0,1.0,1.0,898.167,1.0,753.0,23.0,1.01029,0.803999
White,8,Right,1888,Male,Yes,English,E,755,0,4,16,180.0,1.0,1.0,716.785,1.0,754.0,23.0,1.15354,0.903906
White,8,Right,1888,Male,Yes,English,E,756,0,4,8,180.0,1.0,1.0,852.683,1.0,755.0,23.0,1.10142,0.948074
White,8,Right,1888,Male,Yes,English,E,757,1,0,4,180.0,1.0,1.0,913.265,1.0,756.0,23.0,1.01618,0.916667
White,8,Right,1888,Male,Yes,English,E,758,1,0,0,0.0,0.0,1.0,649.931,1.0,757.0,23.0,1.03783,0.892248
White,8,Right,1888,Male,Yes,English,E,759,1,4,0,0.0,0.0,1.0,648.525,1.0,758.0,23.0,1.08589,0.979783
White,8,Right,1888,Male,Yes,English,E,760,0,8,4,180.0,1.0,1.0,828.12,1.0,759.0,23.0,1.18286,0.924432
White,8,Right,1888,Male,Yes,English,E,761,0,16,4,180.0,1.0,1.0,861.654,1.0,760.0,23.0,1.03154,0.89742
White,8,Right,1888,Male,Yes,English,E,762,0,8,16,180.0,1.0,1.0,912.215,1.0,761.0,23.0,1.03359,0.962694
White,8,Right,1888,Male,Yes,English,E,763,1,8,16,180.0,0.0,0.0,665.83,1.0,762.0,23.0,1.0072,0.912162
White,8,Right,1888,Male,Yes,English,E,764,0,8,8,0.0,1.0,0.0,107.29,1.0,763.0,23.0,1.04076,0.891269
White,8,Right,1888,Male,Yes,English,E,765,1,16,16,0.0,0.0,1.0,664.442,1.0,764.0,23.0,1.18492,0.827738
White,8,Right,1888,Male,Yes,English,E,766,0,0,8,180.0,1.0,1.0,754.33,1.0,765.0,23.0,1.07577,0.83926
White,8,Right,1888,Male,Yes,English,E,767,1,4,4,0.0,0.0,1.0,638.713,1.0,766.0,23.0,1.00761,0.970874
White,8,Right,1888,Male,Yes,English,E,768,1,0,16,0.0,0.0,1.0,564.803,1.0,767.0,23.0,1.12497,0.846077
