Ethnicity,Subject Number,Preferred Hand,Age,Gender,Color blind,First Language,Room,TrialNumber,background,turtles,tortoises,target_id,resp,hit,rt,ran,order,block,iti,fix_duration
Asian,7,Right,21,Male,Yes,English,A,1,0,16,4,0.0,0.0,1.0,1110.35,1.0,0.0,0.0,1.08768,0.820431
Asian,7,Right,21,Male,Yes,English,A,2,0,0,16,0.0,0.0,1.0,828.205,1.0,1.0,0.0,1.01883,0.875005
Asian,7,Right,21,Male,Yes,English,A,3,1,4,16,180.0,1.0,1.0,734.838,1.0,2.0,0.0,1.00101,0.956072
Asian,7,Right,21,Male,Yes,English,A,4,1,8,0,180.0,1.0,1.0,1201.73,1.0,3.0,0.0,1.10142,0.89686
Asian,7,Right,21,Male,Yes,English,A,5,1,16,0,0.0,0.0,1.0,662.154,1.0,4.0,0.0,1.16112,0.810647
Asian,7,Right,21,Male,Yes,English,A,6,1,4,0,0.0,0.0,1.0,979.094,1.0,5.0,0.0,1.10031,0.873721
Asian,7,Right,21,Male,Yes,English,A,7,0,4,8,0.0,0.0,1.0,952.514,1.0,6.0,0.0,1.17508,0.927444
Asian,7,Right,21,Male,Yes,English,A,8,1,0,8,180.0,1.0,1.0,1122.64,1.0,7.0,0.0,1.17719,0.855609
Asian,7,Right,21,Male,Yes,English,A,9,0,8,16,180.0,1.0,1.0,940.396,1.0,8.0,0.0,1.15052,0.8047
Asian,7,Right,21,Male,Yes,English,A,10,0,8,4,180.0,1.0,1.0,916.026,1.0,9.0,0.0,1.07376,0.835148
Asian,7,Right,21,Male,Yes,English,A,11,0,4,16,0.0,0.0,1.0,813.243,1.0,10.0,0.0,1.12479,0.885855
Asian,7,Right,21,Male,Yes,English,A,12,0,0,4,0.0,0.0,1.0,853.797,1.0,11.0,0.0,1.19955,0.93162
Asian,7,Right,21,Male,Yes,English,A,13,0,0,0,0.0,0.0,1.0,684.315,1.0,12.0,0.0,1.12491,0.819403
Asian,7,Right,21,Male,Yes,English,A,14,1,16,8,180.0,1.0,1.0,1313.98,1.0,13.0,0.0,1.13153,0.945585
Asian,7,Right,21,Male,Yes,English,A,15,1,8,16,180.0,1.0,1.0,1174.97,1.0,14.0,0.0,1.17921,0.983305
Asian,7,Right,21,Male,Yes,English,A,16,1,0,16,0.0,0.0,1.0,595.323,1.0,15.0,0.0,1.1165,0.827666
Asian,7,Right,21,Male,Yes,English,A,17,0,0,8,180.0,1.0,1.0,632.931,1.0,16.0,0.0,1.04241,0.90372
Asian,7,Right,21,Male,Yes,English,A,18,1,4,4,180.0,1.0,1.0,536.24,1.0,17.0,0.0,1.01841,0.975952
Asian,7,Right,21,Male,Yes,English,A,19,0,16,8,180.0,1.0,1.0,634.971,1.0,18.0,0.0,1.14829,0.951416
Asian,7,Right,21,Male,Yes,English,A,20,0,16,0,0.0,0.0,1.0,1046.93,1.0,19.0,0.0,1.1607,0.884757
Asian,7,Right,21,Male,Yes,English,A,21,1,8,8,0.0,0.0,1.0,531.776,1.0,20.0,0.0,1.06668,0.972289
Asian,7,Right,21,Male,Yes,English,A,22,1,8,4,180.0,1.0,1.0,574.222,1.0,21.0,0.0,1.05543,0.956567
Asian,7,Right,21,Male,Yes,English,A,23,1,0,4,180.0,1.0,1.0,1065.31,1.0,22.0,0.0,1.07925,0.962417
Asian,7,Right,21,Male,Yes,English,A,24,0,4,0,180.0,1.0,1.0,501.648,1.0,23.0,0.0,1.19825,0.924406
Asian,7,Right,21,Male,Yes,English,A,25,1,16,16,0.0,0.0,1.0,683.775,1.0,24.0,0.0,1.09585,0.83732
Asian,7,Right,21,Male,Yes,English,A,26,0,8,8,0.0,0.0,1.0,863.694,1.0,25.0,0.0,1.04116,0.936501
Asian,7,Right,21,Male,Yes,English,A,27,0,16,16,180.0,1.0,1.0,1002.72,1.0,26.0,0.0,1.18318,0.965463
Asian,7,Right,21,Male,Yes,English,A,28,1,0,0,180.0,1.0,1.0,566.287,1.0,27.0,0.0,1.0524,0.885605
Asian,7,Right,21,Male,Yes,English,A,29,1,16,4,0.0,0.0,1.0,763.634,1.0,28.0,0.0,1.12159,0.972744
Asian,7,Right,21,Male,Yes,English,A,30,1,4,8,180.0,1.0,1.0,1043.45,1.0,29.0,0.0,1.07204,0.934524
Asian,7,Right,21,Male,Yes,English,A,31,0,8,0,0.0,0.0,1.0,752.799,1.0,30.0,0.0,1.11332,0.894908
Asian,7,Right,21,Male,Yes,English,A,32,0,4,4,0.0,0.0,1.0,1027.1,1.0,31.0,0.0,1.01015,0.98148
Asian,7,Right,21,Male,Yes,English,A,33,0,8,4,180.0,1.0,1.0,980.618,1.0,32.0,1.0,1.09092,0.826322
Asian,7,Right,21,Male,Yes,English,A,34,1,16,8,180.0,1.0,1.0,1133.1,1.0,33.0,1.0,1.10579,0.980197
Asian,7,Right,21,Male,Yes,English,A,35,1,8,16,180.0,1.0,1.0,565.685,1.0,34.0,1.0,1.08584,0.800291
Asian,7,Right,21,Male,Yes,English,A,36,0,4,16,0.0,0.0,1.0,886.56,1.0,35.0,1.0,1.04809,0.952344
Asian,7,Right,21,Male,Yes,English,A,37,0,16,8,0.0,0.0,1.0,481.09,1.0,36.0,1.0,1.19708,0.858823
Asian,7,Right,21,Male,Yes,English,A,38,1,4,4,0.0,0.0,1.0,859.596,1.0,37.0,1.0,1.06363,0.985153
Asian,7,Right,21,Male,Yes,English,A,39,1,0,4,0.0,0.0,1.0,726.399,1.0,38.0,1.0,1.05118,0.949002
Asian,7,Right,21,Male,Yes,English,A,40,1,16,0,180.0,1.0,1.0,628.327,1.0,39.0,1.0,1.00802,0.947127
Asian,7,Right,21,Male,Yes,English,A,41,1,4,0,180.0,1.0,1.0,518.429,1.0,40.0,1.0,1.13246,0.964698
Asian,7,Right,21,Male,Yes,English,A,42,0,0,4,180.0,1.0,1.0,643.826,1.0,41.0,1.0,1.07644,0.904502
Asian,7,Right,21,Male,Yes,English,A,43,1,8,8,0.0,0.0,1.0,704.909,1.0,42.0,1.0,1.19547,0.926591
Asian,7,Right,21,Male,Yes,English,A,44,0,0,16,0.0,0.0,1.0,1097.46,1.0,43.0,1.0,1.18376,0.963749
Asian,7,Right,21,Male,Yes,English,A,45,1,16,4,0.0,0.0,1.0,1188.02,1.0,44.0,1.0,1.19199,0.920114
Asian,7,Right,21,Male,Yes,English,A,46,1,0,8,180.0,1.0,1.0,983.862,1.0,45.0,1.0,1.15494,0.840781
Asian,7,Right,21,Male,Yes,English,A,47,0,4,4,0.0,0.0,1.0,566.402,1.0,46.0,1.0,1.13838,0.877719
Asian,7,Right,21,Male,Yes,English,A,48,1,16,16,180.0,1.0,1.0,1203.01,1.0,47.0,1.0,1.02664,0.892604
Asian,7,Right,21,Male,Yes,English,A,49,0,4,0,0.0,0.0,1.0,1158.43,1.0,48.0,1.0,1.05918,0.927644
Asian,7,Right,21,Male,Yes,English,A,50,0,16,16,180.0,1.0,1.0,769.394,1.0,49.0,1.0,1.14926,0.997179
Asian,7,Right,21,Male,Yes,English,A,51,1,4,16,180.0,1.0,1.0,577.763,1.0,50.0,1.0,1.15815,0.917038
Asian,7,Right,21,Male,Yes,English,A,52,1,0,0,0.0,0.0,1.0,625.162,1.0,51.0,1.0,1.04806,0.823594
Asian,7,Right,21,Male,Yes,English,A,53,0,8,8,180.0,1.0,1.0,930.832,1.0,52.0,1.0,1.0824,0.889178
Asian,7,Right,21,Male,Yes,English,A,54,1,0,16,0.0,0.0,1.0,598.607,1.0,53.0,1.0,1.14317,0.854059
Asian,7,Right,21,Male,Yes,English,A,55,0,16,4,180.0,1.0,1.0,597.111,1.0,54.0,1.0,1.14765,0.854404
Asian,7,Right,21,Male,Yes,English,A,56,1,4,8,180.0,1.0,1.0,657.122,1.0,55.0,1.0,1.14589,0.991803
Asian,7,Right,21,Male,Yes,English,A,57,0,0,0,0.0,0.0,1.0,663.391,1.0,56.0,1.0,1.10079,0.848339
Asian,7,Right,21,Male,Yes,English,A,58,0,8,0,180.0,1.0,1.0,725.102,1.0,57.0,1.0,1.11887,0.959323
Asian,7,Right,21,Male,Yes,English,A,59,0,16,0,0.0,0.0,1.0,968.589,1.0,58.0,1.0,1.08947,0.85492
Asian,7,Right,21,Male,Yes,English,A,60,0,4,8,0.0,0.0,1.0,653.478,1.0,59.0,1.0,1.09455,0.976568
Asian,7,Right,21,Male,Yes,English,A,61,1,8,0,180.0,1.0,1.0,769.873,1.0,60.0,1.0,1.19607,0.957518
Asian,7,Right,21,Male,Yes,English,A,62,0,8,16,0.0,0.0,1.0,568.871,1.0,61.0,1.0,1.13253,0.903802
Asian,7,Right,21,Male,Yes,English,A,63,1,8,4,0.0,0.0,1.0,664.921,1.0,62.0,1.0,1.04321,0.934338
Asian,7,Right,21,Male,Yes,English,A,64,0,0,8,180.0,1.0,1.0,825.383,1.0,63.0,1.0,1.19102,0.804235
Asian,7,Right,21,Male,Yes,English,A,65,1,16,8,180.0,1.0,1.0,1488.55,1.0,64.0,2.0,1.02275,0.902105
Asian,7,Right,21,Male,Yes,English,A,66,1,16,0,180.0,1.0,1.0,781.344,1.0,65.0,2.0,1.1061,0.956273
Asian,7,Right,21,Male,Yes,English,A,67,1,8,8,180.0,1.0,1.0,570.451,1.0,66.0,2.0,1.03402,0.935895
Asian,7,Right,21,Male,Yes,English,A,68,0,4,4,0.0,0.0,1.0,983.432,1.0,67.0,2.0,1.12536,0.884784
Asian,7,Right,21,Male,Yes,English,A,69,1,8,0,0.0,0.0,1.0,1103.75,1.0,68.0,2.0,1.02384,0.902108
Asian,7,Right,21,Male,Yes,English,A,70,1,8,16,0.0,0.0,1.0,892.442,1.0,69.0,2.0,1.11585,0.969589
Asian,7,Right,21,Male,Yes,English,A,71,0,16,16,180.0,1.0,1.0,676.944,1.0,70.0,2.0,1.08036,0.837639
Asian,7,Right,21,Male,Yes,English,A,72,1,0,16,180.0,1.0,1.0,532.936,1.0,71.0,2.0,1.00346,0.8246
Asian,7,Right,21,Male,Yes,English,A,73,0,0,16,0.0,0.0,1.0,635.902,1.0,72.0,2.0,1.00056,0.88635
Asian,7,Right,21,Male,Yes,English,A,74,0,8,4,180.0,1.0,1.0,727.703,1.0,73.0,2.0,1.07718,0.827717
Asian,7,Right,21,Male,Yes,English,A,75,1,4,8,180.0,1.0,1.0,841.022,1.0,74.0,2.0,1.15642,0.9997
Asian,7,Right,21,Male,Yes,English,A,76,0,4,0,180.0,1.0,1.0,812.271,1.0,75.0,2.0,1.18541,0.901339
Asian,7,Right,21,Male,Yes,English,A,77,0,8,16,180.0,1.0,1.0,595.193,1.0,76.0,2.0,1.16988,0.915579
Asian,7,Right,21,Male,Yes,English,A,78,1,8,4,0.0,0.0,1.0,1241.2,1.0,77.0,2.0,1.01123,0.926814
Asian,7,Right,21,Male,Yes,English,A,79,1,0,4,180.0,1.0,1.0,625.275,1.0,78.0,2.0,1.0979,0.944961
Asian,7,Right,21,Male,Yes,English,A,80,1,16,16,0.0,0.0,1.0,1182.68,1.0,79.0,2.0,1.07034,0.810424
Asian,7,Right,21,Male,Yes,English,A,81,0,0,4,180.0,1.0,1.0,622.267,1.0,80.0,2.0,1.0913,0.80776
Asian,7,Right,21,Male,Yes,English,A,82,0,8,0,0.0,0.0,1.0,863.447,1.0,81.0,2.0,1.00532,0.883492
Asian,7,Right,21,Male,Yes,English,A,83,0,0,0,0.0,0.0,1.0,490.083,1.0,82.0,2.0,1.14771,0.861639
Asian,7,Right,21,Male,Yes,English,A,84,0,8,8,0.0,0.0,1.0,665.031,1.0,83.0,2.0,1.1718,0.900144
Asian,7,Right,21,Male,Yes,English,A,85,0,4,8,180.0,1.0,1.0,847.583,1.0,84.0,2.0,1.02673,0.833355
Asian,7,Right,21,Male,Yes,English,A,86,1,0,0,0.0,0.0,1.0,559.237,1.0,85.0,2.0,1.13619,0.902773
Asian,7,Right,21,Male,Yes,English,A,87,0,16,0,180.0,1.0,1.0,812.11,1.0,86.0,2.0,1.05031,0.876166
Asian,7,Right,21,Male,Yes,English,A,88,0,0,8,180.0,1.0,1.0,692.977,1.0,87.0,2.0,1.1202,0.91288
Asian,7,Right,21,Male,Yes,English,A,89,1,16,4,0.0,0.0,1.0,1178.69,1.0,88.0,2.0,1.08199,0.891391
Asian,7,Right,21,Male,Yes,English,A,90,1,4,16,180.0,1.0,1.0,881.271,1.0,89.0,2.0,1.05086,0.945345
Asian,7,Right,21,Male,Yes,English,A,91,0,16,4,0.0,0.0,1.0,1559.11,1.0,90.0,2.0,1.0492,0.828487
Asian,7,Right,21,Male,Yes,English,A,92,1,0,8,0.0,0.0,1.0,648.905,1.0,91.0,2.0,1.19876,0.863344
Asian,7,Right,21,Male,Yes,English,A,93,0,16,8,0.0,1.0,0.0,1463.79,1.0,92.0,2.0,1.12051,0.918518
Asian,7,Right,21,Male,Yes,English,A,94,0,4,16,180.0,1.0,1.0,715.096,1.0,93.0,2.0,1.15636,0.919484
Asian,7,Right,21,Male,Yes,English,A,95,1,4,0,0.0,0.0,1.0,910.273,1.0,94.0,2.0,1.13352,0.913295
Asian,7,Right,21,Male,Yes,English,A,96,1,4,4,0.0,0.0,1.0,558.756,1.0,95.0,2.0,1.02916,0.919466
Asian,7,Right,21,Male,Yes,English,A,97,1,0,8,180.0,1.0,1.0,747.684,1.0,96.0,3.0,1.13555,0.831324
Asian,7,Right,21,Male,Yes,English,A,98,0,16,8,0.0,0.0,1.0,1899.48,1.0,97.0,3.0,1.0527,0.931438
Asian,7,Right,21,Male,Yes,English,A,99,1,0,16,0.0,0.0,1.0,810.724,1.0,98.0,3.0,1.17938,0.952314
Asian,7,Right,21,Male,Yes,English,A,100,0,4,0,0.0,0.0,1.0,588.355,1.0,99.0,3.0,1.14967,0.977387
Asian,7,Right,21,Male,Yes,English,A,101,1,16,16,0.0,0.0,1.0,542.246,1.0,100.0,3.0,1.08995,0.978022
Asian,7,Right,21,Male,Yes,English,A,102,0,16,0,0.0,0.0,1.0,524.088,1.0,101.0,3.0,1.0483,0.996238
Asian,7,Right,21,Male,Yes,English,A,103,1,16,0,0.0,0.0,1.0,675.378,1.0,102.0,3.0,1.00435,0.964126
Asian,7,Right,21,Male,Yes,English,A,104,0,4,16,180.0,1.0,1.0,1155.63,1.0,103.0,3.0,1.02633,0.914534
Asian,7,Right,21,Male,Yes,English,A,105,0,16,4,180.0,1.0,1.0,1113.0,1.0,104.0,3.0,1.0435,0.955256
Asian,7,Right,21,Male,Yes,English,A,106,1,8,16,0.0,0.0,1.0,605.535,1.0,105.0,3.0,1.12999,0.945299
Asian,7,Right,21,Male,Yes,English,A,107,0,0,16,0.0,0.0,1.0,587.585,1.0,106.0,3.0,1.11413,0.896092
Asian,7,Right,21,Male,Yes,English,A,108,0,0,8,180.0,1.0,1.0,1174.98,1.0,107.0,3.0,1.11695,0.855253
Asian,7,Right,21,Male,Yes,English,A,109,0,8,4,180.0,1.0,1.0,694.883,1.0,108.0,3.0,1.0693,0.879808
Asian,7,Right,21,Male,Yes,English,A,110,1,16,8,180.0,1.0,1.0,1205.05,1.0,109.0,3.0,1.1059,0.961174
Asian,7,Right,21,Male,Yes,English,A,111,0,8,8,180.0,1.0,1.0,589.151,1.0,110.0,3.0,1.02174,0.859845
Asian,7,Right,21,Male,Yes,English,A,112,1,8,8,0.0,0.0,1.0,889.83,1.0,111.0,3.0,1.04223,0.956402
Asian,7,Right,21,Male,Yes,English,A,113,0,0,0,180.0,1.0,1.0,645.24,1.0,112.0,3.0,1.10976,0.839835
Asian,7,Right,21,Male,Yes,English,A,114,1,4,0,180.0,1.0,1.0,641.662,1.0,113.0,3.0,1.13202,0.998669
Asian,7,Right,21,Male,Yes,English,A,115,1,8,0,0.0,0.0,1.0,1294.87,1.0,114.0,3.0,1.03462,0.922247
Asian,7,Right,21,Male,Yes,English,A,116,0,16,16,180.0,1.0,1.0,817.692,1.0,115.0,3.0,1.10717,0.835451
Asian,7,Right,21,Male,Yes,English,A,117,1,16,4,0.0,0.0,1.0,1030.73,1.0,116.0,3.0,1.06375,0.951137
Asian,7,Right,21,Male,Yes,English,A,118,1,4,8,180.0,1.0,1.0,979.838,1.0,117.0,3.0,1.12335,0.951186
Asian,7,Right,21,Male,Yes,English,A,119,1,8,4,180.0,1.0,1.0,951.794,1.0,118.0,3.0,1.0782,0.981701
Asian,7,Right,21,Male,Yes,English,A,120,0,0,4,180.0,1.0,1.0,774.824,1.0,119.0,3.0,1.03151,0.807948
Asian,7,Right,21,Male,Yes,English,A,121,0,4,4,0.0,0.0,1.0,596.453,1.0,120.0,3.0,1.01918,0.861896
Asian,7,Right,21,Male,Yes,English,A,122,1,0,4,0.0,0.0,1.0,847.012,1.0,121.0,3.0,1.06972,0.967853
Asian,7,Right,21,Male,Yes,English,A,123,1,4,16,0.0,0.0,1.0,1200.79,1.0,122.0,3.0,1.09783,0.936524
Asian,7,Right,21,Male,Yes,English,A,124,1,0,0,180.0,1.0,1.0,531.906,1.0,123.0,3.0,1.09465,0.901579
Asian,7,Right,21,Male,Yes,English,A,125,0,4,8,0.0,0.0,1.0,901.14,1.0,124.0,3.0,1.15659,0.86157
Asian,7,Right,21,Male,Yes,English,A,126,0,8,16,0.0,0.0,1.0,1017.97,1.0,125.0,3.0,1.09462,0.95319
Asian,7,Right,21,Male,Yes,English,A,127,0,8,0,180.0,1.0,1.0,930.472,1.0,126.0,3.0,1.06432,0.950789
Asian,7,Right,21,Male,Yes,English,A,128,1,4,4,180.0,1.0,1.0,593.357,1.0,127.0,3.0,1.15542,0.98888
Asian,7,Right,21,Male,Yes,English,A,129,0,8,0,0.0,0.0,1.0,929.218,1.0,128.0,4.0,1.02187,0.884536
Asian,7,Right,21,Male,Yes,English,A,130,0,16,4,180.0,1.0,1.0,639.381,1.0,129.0,4.0,1.00045,0.979366
Asian,7,Right,21,Male,Yes,English,A,131,0,4,8,180.0,1.0,1.0,817.131,1.0,130.0,4.0,1.0977,0.882981
Asian,7,Right,21,Male,Yes,English,A,132,0,4,4,180.0,1.0,1.0,708.342,1.0,131.0,4.0,1.00891,0.839969
Asian,7,Right,21,Male,Yes,English,A,133,1,4,4,0.0,0.0,1.0,708.951,1.0,132.0,4.0,1.11433,0.860143
Asian,7,Right,21,Male,Yes,English,A,134,0,0,16,0.0,1.0,0.0,761.107,1.0,133.0,4.0,1.19831,0.861943
Asian,7,Right,21,Male,Yes,English,A,135,0,16,0,180.0,1.0,1.0,561.848,1.0,134.0,4.0,1.15623,0.969851
Asian,7,Right,21,Male,Yes,English,A,136,1,4,16,180.0,1.0,1.0,688.838,1.0,135.0,4.0,1.14976,0.956067
Asian,7,Right,21,Male,Yes,English,A,137,0,0,8,0.0,0.0,1.0,694.095,1.0,136.0,4.0,1.06875,0.823435
Asian,7,Right,21,Male,Yes,English,A,138,0,4,16,0.0,0.0,1.0,511.324,1.0,137.0,4.0,1.07554,0.969711
Asian,7,Right,21,Male,Yes,English,A,139,0,16,16,0.0,0.0,1.0,727.942,1.0,138.0,4.0,1.18708,0.811326
Asian,7,Right,21,Male,Yes,English,A,140,1,0,4,180.0,1.0,1.0,824.088,1.0,139.0,4.0,1.00623,0.828391
Asian,7,Right,21,Male,Yes,English,A,141,1,16,4,180.0,1.0,1.0,761.677,1.0,140.0,4.0,1.11587,0.969914
Asian,7,Right,21,Male,Yes,English,A,142,0,16,8,0.0,0.0,1.0,601.786,1.0,141.0,4.0,1.04417,0.903143
Asian,7,Right,21,Male,Yes,English,A,143,1,16,0,0.0,0.0,1.0,855.694,1.0,142.0,4.0,1.1148,0.931824
Asian,7,Right,21,Male,Yes,English,A,144,1,4,0,0.0,0.0,1.0,1062.71,1.0,143.0,4.0,1.08973,0.888526
Asian,7,Right,21,Male,Yes,English,A,145,1,16,16,180.0,1.0,1.0,1030.06,1.0,144.0,4.0,1.01617,0.985965
Asian,7,Right,21,Male,Yes,English,A,146,1,8,16,0.0,0.0,1.0,561.883,1.0,145.0,4.0,1.09667,0.817594
Asian,7,Right,21,Male,Yes,English,A,147,1,0,16,180.0,1.0,1.0,623.67,1.0,146.0,4.0,1.07239,0.810197
Asian,7,Right,21,Male,Yes,English,A,148,1,8,4,180.0,1.0,1.0,607.751,1.0,147.0,4.0,1.08425,0.934724
Asian,7,Right,21,Male,Yes,English,A,149,0,8,4,180.0,1.0,1.0,1123.92,1.0,148.0,4.0,1.00815,0.853767
Asian,7,Right,21,Male,Yes,English,A,150,1,8,0,0.0,0.0,1.0,662.107,1.0,149.0,4.0,1.19433,0.971862
Asian,7,Right,21,Male,Yes,English,A,151,1,4,8,0.0,0.0,1.0,859.921,1.0,150.0,4.0,1.05444,0.967779
Asian,7,Right,21,Male,Yes,English,A,152,0,0,0,0.0,0.0,1.0,621.978,1.0,151.0,4.0,1.05766,0.982853
Asian,7,Right,21,Male,Yes,English,A,153,1,8,8,0.0,0.0,1.0,974.847,1.0,152.0,4.0,1.00477,0.892039
Asian,7,Right,21,Male,Yes,English,A,154,1,16,8,0.0,0.0,1.0,806.616,1.0,153.0,4.0,1.00157,0.867766
Asian,7,Right,21,Male,Yes,English,A,155,0,4,0,180.0,1.0,1.0,639.155,1.0,154.0,4.0,1.19785,0.853342
Asian,7,Right,21,Male,Yes,English,A,156,0,0,4,180.0,0.0,0.0,953.277,1.0,155.0,4.0,1.02962,0.970958
Asian,7,Right,21,Male,Yes,English,A,157,1,0,0,180.0,1.0,1.0,604.051,1.0,156.0,4.0,1.19036,0.855905
Asian,7,Right,21,Male,Yes,English,A,158,1,0,8,180.0,1.0,1.0,677.442,1.0,157.0,4.0,1.04651,0.810866
Asian,7,Right,21,Male,Yes,English,A,159,0,8,16,180.0,1.0,1.0,1205.85,1.0,158.0,4.0,1.0676,0.81018
Asian,7,Right,21,Male,Yes,English,A,160,0,8,8,0.0,0.0,1.0,1078.59,1.0,159.0,4.0,1.14429,0.998829
Asian,7,Right,21,Male,Yes,English,A,161,0,4,0,0.0,0.0,1.0,631.582,1.0,160.0,5.0,1.01998,0.872723
Asian,7,Right,21,Male,Yes,English,A,162,1,0,0,0.0,0.0,1.0,694.498,1.0,161.0,5.0,1.06231,0.938477
Asian,7,Right,21,Male,Yes,English,A,163,1,16,4,0.0,0.0,1.0,565.313,1.0,162.0,5.0,1.16109,0.851267
Asian,7,Right,21,Male,Yes,English,A,164,1,16,0,0.0,0.0,1.0,744.851,1.0,163.0,5.0,1.0892,0.930556
Asian,7,Right,21,Male,Yes,English,A,165,1,16,16,0.0,0.0,1.0,814.332,1.0,164.0,5.0,1.00623,0.810527
Asian,7,Right,21,Male,Yes,English,A,166,1,0,8,0.0,0.0,1.0,764.016,1.0,165.0,5.0,1.1775,0.80083
Asian,7,Right,21,Male,Yes,English,A,167,0,4,8,180.0,1.0,1.0,703.434,1.0,166.0,5.0,1.03306,0.812117
Asian,7,Right,21,Male,Yes,English,A,168,0,8,4,180.0,1.0,1.0,621.961,1.0,167.0,5.0,1.02882,0.930849
Asian,7,Right,21,Male,Yes,English,A,169,1,0,16,180.0,1.0,1.0,595.88,1.0,168.0,5.0,1.01554,0.876301
Asian,7,Right,21,Male,Yes,English,A,170,0,8,0,0.0,0.0,1.0,992.693,1.0,169.0,5.0,1.05999,0.871627
Asian,7,Right,21,Male,Yes,English,A,171,1,4,16,0.0,0.0,1.0,1012.31,1.0,170.0,5.0,1.0767,0.849374
Asian,7,Right,21,Male,Yes,English,A,172,0,4,16,180.0,1.0,1.0,561.904,1.0,171.0,5.0,1.1576,0.915703
Asian,7,Right,21,Male,Yes,English,A,173,1,8,8,180.0,1.0,1.0,1078.88,1.0,172.0,5.0,1.01864,0.820883
Asian,7,Right,21,Male,Yes,English,A,174,1,16,8,180.0,1.0,1.0,540.839,1.0,173.0,5.0,1.14359,0.972789
Asian,7,Right,21,Male,Yes,English,A,175,1,0,4,180.0,1.0,1.0,435.433,1.0,174.0,5.0,1.14084,0.933219
Asian,7,Right,21,Male,Yes,English,A,176,0,8,8,0.0,0.0,1.0,614.743,1.0,175.0,5.0,1.02192,0.864651
Asian,7,Right,21,Male,Yes,English,A,177,0,0,4,0.0,0.0,1.0,1074.92,1.0,176.0,5.0,1.04816,0.916825
Asian,7,Right,21,Male,Yes,English,A,178,1,4,0,0.0,0.0,1.0,718.742,1.0,177.0,5.0,1.12061,0.907211
Asian,7,Right,21,Male,Yes,English,A,179,0,8,16,180.0,1.0,1.0,693.218,1.0,178.0,5.0,1.10061,0.851579
Asian,7,Right,21,Male,Yes,English,A,180,0,16,8,180.0,1.0,1.0,1005.06,1.0,179.0,5.0,1.12546,0.815499
Asian,7,Right,21,Male,Yes,English,A,181,1,4,4,180.0,1.0,1.0,719.287,1.0,180.0,5.0,1.00794,0.975038
Asian,7,Right,21,Male,Yes,English,A,182,0,0,8,0.0,0.0,1.0,576.688,1.0,181.0,5.0,1.18748,0.884304
Asian,7,Right,21,Male,Yes,English,A,183,1,8,0,0.0,0.0,1.0,960.352,1.0,182.0,5.0,1.06592,0.904811
Asian,7,Right,21,Male,Yes,English,A,184,0,4,4,180.0,1.0,1.0,746.221,1.0,183.0,5.0,1.18216,0.862805
Asian,7,Right,21,Male,Yes,English,A,185,1,4,8,180.0,1.0,1.0,694.92,1.0,184.0,5.0,1.13211,0.949981
Asian,7,Right,21,Male,Yes,English,A,186,0,0,16,0.0,0.0,1.0,576.704,1.0,185.0,5.0,1.13856,0.843849
Asian,7,Right,21,Male,Yes,English,A,187,0,16,16,0.0,0.0,1.0,706.271,1.0,186.0,5.0,1.00615,0.876087
Asian,7,Right,21,Male,Yes,English,A,188,0,0,0,180.0,1.0,1.0,585.106,1.0,187.0,5.0,1.03667,0.922745
Asian,7,Right,21,Male,Yes,English,A,189,0,16,4,0.0,0.0,1.0,1046.96,1.0,188.0,5.0,1.06998,0.990832
Asian,7,Right,21,Male,Yes,English,A,190,1,8,4,180.0,1.0,1.0,1132.92,1.0,189.0,5.0,1.10586,0.826532
Asian,7,Right,21,Male,Yes,English,A,191,0,16,0,180.0,1.0,1.0,761.77,1.0,190.0,5.0,1.00487,0.928255
Asian,7,Right,21,Male,Yes,English,A,192,1,8,16,180.0,1.0,1.0,744.115,1.0,191.0,5.0,1.01204,0.975383
Asian,7,Right,21,Male,Yes,English,A,193,0,4,4,180.0,1.0,1.0,618.115,1.0,192.0,6.0,1.10325,0.879369
Asian,7,Right,21,Male,Yes,English,A,194,1,4,0,180.0,1.0,1.0,602.091,1.0,193.0,6.0,1.15792,0.977099
Asian,7,Right,21,Male,Yes,English,A,195,1,4,8,0.0,0.0,1.0,757.098,1.0,194.0,6.0,1.05274,0.880028
Asian,7,Right,21,Male,Yes,English,A,196,0,0,4,180.0,1.0,1.0,521.819,1.0,195.0,6.0,1.03626,0.963162
Asian,7,Right,21,Male,Yes,English,A,197,1,16,0,0.0,0.0,1.0,841.813,1.0,196.0,6.0,1.15873,0.914556
Asian,7,Right,21,Male,Yes,English,A,198,0,0,16,180.0,1.0,1.0,849.811,1.0,197.0,6.0,1.04757,0.880498
Asian,7,Right,21,Male,Yes,English,A,199,1,16,16,180.0,1.0,1.0,1035.75,1.0,198.0,6.0,1.01811,0.957145
Asian,7,Right,21,Male,Yes,English,A,200,1,8,16,180.0,1.0,1.0,1015.83,1.0,199.0,6.0,1.14066,0.961452
Asian,7,Right,21,Male,Yes,English,A,201,1,8,4,0.0,1.0,0.0,526.724,1.0,200.0,6.0,1.17988,0.827154
Asian,7,Right,21,Male,Yes,English,A,202,1,8,0,0.0,0.0,1.0,602.576,1.0,201.0,6.0,1.14595,0.913781
Asian,7,Right,21,Male,Yes,English,A,203,0,16,4,0.0,0.0,1.0,750.054,1.0,202.0,6.0,1.04751,0.901705
Asian,7,Right,21,Male,Yes,English,A,204,1,0,16,0.0,0.0,1.0,610.089,1.0,203.0,6.0,1.11222,0.827196
Asian,7,Right,21,Male,Yes,English,A,205,0,16,0,0.0,0.0,1.0,684.329,1.0,204.0,6.0,1.06324,0.813553
Asian,7,Right,21,Male,Yes,English,A,206,0,4,8,0.0,0.0,1.0,603.204,1.0,205.0,6.0,1.13001,0.827707
Asian,7,Right,21,Male,Yes,English,A,207,0,8,16,180.0,1.0,1.0,738.963,1.0,206.0,6.0,1.06759,0.969093
Asian,7,Right,21,Male,Yes,English,A,208,1,8,8,0.0,0.0,1.0,688.789,1.0,207.0,6.0,1.03628,0.968458
Asian,7,Right,21,Male,Yes,English,A,209,0,16,8,180.0,1.0,1.0,866.306,1.0,208.0,6.0,1.13234,0.964556
Asian,7,Right,21,Male,Yes,English,A,210,0,0,0,180.0,1.0,1.0,628.014,1.0,209.0,6.0,1.00715,0.928211
Asian,7,Right,21,Male,Yes,English,A,211,0,4,0,0.0,0.0,1.0,927.93,1.0,210.0,6.0,1.17036,0.908059
Asian,7,Right,21,Male,Yes,English,A,212,1,4,4,0.0,0.0,1.0,1205.41,1.0,211.0,6.0,1.16893,0.808797
Asian,7,Right,21,Male,Yes,English,A,213,0,8,0,0.0,1.0,0.0,720.563,1.0,212.0,6.0,1.19389,0.825919
Asian,7,Right,21,Male,Yes,English,A,214,1,16,4,180.0,1.0,1.0,679.404,1.0,213.0,6.0,1.06097,0.803559
Asian,7,Right,21,Male,Yes,English,A,215,1,16,8,0.0,0.0,1.0,1128.72,1.0,214.0,6.0,1.13779,0.901657
Asian,7,Right,21,Male,Yes,English,A,216,1,0,4,180.0,1.0,1.0,541.031,1.0,215.0,6.0,1.03619,0.983695
Asian,7,Right,21,Male,Yes,English,A,217,0,8,8,0.0,0.0,1.0,771.171,1.0,216.0,6.0,1.12096,0.804399
Asian,7,Right,21,Male,Yes,English,A,218,0,16,16,180.0,1.0,1.0,1080.4,1.0,217.0,6.0,1.00123,0.943965
Asian,7,Right,21,Male,Yes,English,A,219,1,0,0,0.0,0.0,1.0,693.72,1.0,218.0,6.0,1.08549,0.9704
Asian,7,Right,21,Male,Yes,English,A,220,0,0,8,180.0,1.0,1.0,544.449,1.0,219.0,6.0,1.09597,0.938965
Asian,7,Right,21,Male,Yes,English,A,221,0,4,16,180.0,1.0,1.0,896.39,1.0,220.0,6.0,1.08554,0.876527
Asian,7,Right,21,Male,Yes,English,A,222,1,0,8,0.0,0.0,1.0,739.864,1.0,221.0,6.0,1.01806,0.976752
Asian,7,Right,21,Male,Yes,English,A,223,1,4,16,180.0,1.0,1.0,696.43,1.0,222.0,6.0,1.18059,0.836721
Asian,7,Right,21,Male,Yes,English,A,224,0,8,4,180.0,1.0,1.0,715.396,1.0,223.0,6.0,1.06161,0.805736
Asian,7,Right,21,Male,Yes,English,A,225,0,4,0,0.0,0.0,1.0,1028.95,1.0,224.0,7.0,1.1164,0.881347
Asian,7,Right,21,Male,Yes,English,A,226,1,0,16,0.0,0.0,1.0,495.218,1.0,225.0,7.0,1.176,0.896375
Asian,7,Right,21,Male,Yes,English,A,227,1,0,0,0.0,0.0,1.0,695.107,1.0,226.0,7.0,1.05618,0.91835
Asian,7,Right,21,Male,Yes,English,A,228,0,0,4,180.0,1.0,1.0,476.714,1.0,227.0,7.0,1.17664,0.870794
Asian,7,Right,21,Male,Yes,English,A,229,1,8,8,180.0,1.0,1.0,675.404,1.0,228.0,7.0,1.00446,0.859132
Asian,7,Right,21,Male,Yes,English,A,230,0,0,8,0.0,0.0,1.0,667.94,1.0,229.0,7.0,1.11473,0.984302
Asian,7,Right,21,Male,Yes,English,A,231,1,4,0,180.0,1.0,1.0,784.164,1.0,230.0,7.0,1.17516,0.920508
Asian,7,Right,21,Male,Yes,English,A,232,0,8,16,0.0,0.0,1.0,697.757,1.0,231.0,7.0,1.1128,0.988297
Asian,7,Right,21,Male,Yes,English,A,233,1,0,4,0.0,0.0,1.0,615.756,1.0,232.0,7.0,1.15809,0.926579
Asian,7,Right,21,Male,Yes,English,A,234,0,4,4,180.0,1.0,1.0,1529.02,1.0,233.0,7.0,1.18447,0.881004
Asian,7,Right,21,Male,Yes,English,A,235,1,8,16,180.0,1.0,1.0,719.717,1.0,234.0,7.0,1.00095,0.945385
Asian,7,Right,21,Male,Yes,English,A,236,1,0,8,0.0,0.0,1.0,654.122,1.0,235.0,7.0,1.15469,0.925759
Asian,7,Right,21,Male,Yes,English,A,237,0,4,8,180.0,1.0,1.0,1088.15,1.0,236.0,7.0,1.17282,0.834477
Asian,7,Right,21,Male,Yes,English,A,238,1,8,0,180.0,1.0,1.0,709.355,1.0,237.0,7.0,1.10501,0.843233
Asian,7,Right,21,Male,Yes,English,A,239,0,8,0,180.0,1.0,1.0,728.66,1.0,238.0,7.0,1.08888,0.883238
Asian,7,Right,21,Male,Yes,English,A,240,0,0,16,0.0,0.0,1.0,1066.76,1.0,239.0,7.0,1.14904,0.970137
Asian,7,Right,21,Male,Yes,English,A,241,0,8,4,0.0,0.0,1.0,1275.39,1.0,240.0,7.0,1.164,0.955664
Asian,7,Right,21,Male,Yes,English,A,242,1,16,0,180.0,1.0,1.0,520.257,1.0,241.0,7.0,1.09428,0.931361
Asian,7,Right,21,Male,Yes,English,A,243,1,8,4,180.0,1.0,1.0,699.103,1.0,242.0,7.0,1.01145,0.961652
Asian,7,Right,21,Male,Yes,English,A,244,0,16,4,0.0,0.0,1.0,871.507,1.0,243.0,7.0,1.12996,0.869706
Asian,7,Right,21,Male,Yes,English,A,245,1,16,16,0.0,0.0,1.0,819.006,1.0,244.0,7.0,1.04177,0.982606
Asian,7,Right,21,Male,Yes,English,A,246,0,16,0,0.0,0.0,1.0,647.042,1.0,245.0,7.0,1.18066,0.872845
Asian,7,Right,21,Male,Yes,English,A,247,1,4,8,180.0,1.0,1.0,884.614,1.0,246.0,7.0,1.12573,0.982848
Asian,7,Right,21,Male,Yes,English,A,248,1,4,4,180.0,1.0,1.0,605.315,1.0,247.0,7.0,1.06952,0.911786
Asian,7,Right,21,Male,Yes,English,A,249,0,8,8,180.0,1.0,1.0,1030.21,1.0,248.0,7.0,1.00807,0.902235
Asian,7,Right,21,Male,Yes,English,A,250,0,16,8,180.0,1.0,1.0,762.016,1.0,249.0,7.0,1.15528,0.979348
Asian,7,Right,21,Male,Yes,English,A,251,0,4,16,180.0,1.0,1.0,698.378,1.0,250.0,7.0,1.18357,0.864874
Asian,7,Right,21,Male,Yes,English,A,252,1,4,16,0.0,0.0,1.0,765.367,1.0,251.0,7.0,1.01597,0.991459
Asian,7,Right,21,Male,Yes,English,A,253,0,0,0,0.0,0.0,1.0,724.151,1.0,252.0,7.0,1.09166,0.853845
Asian,7,Right,21,Male,Yes,English,A,254,1,16,4,0.0,0.0,1.0,770.552,1.0,253.0,7.0,1.17925,0.975507
Asian,7,Right,21,Male,Yes,English,A,255,1,16,8,0.0,0.0,1.0,1148.05,1.0,254.0,7.0,1.18929,0.894798
Asian,7,Right,21,Male,Yes,English,A,256,0,16,16,180.0,1.0,1.0,1236.2,1.0,255.0,7.0,1.00739,0.935303
Asian,7,Right,21,Male,Yes,English,A,257,0,16,0,0.0,0.0,1.0,662.1,1.0,256.0,8.0,1.08369,0.925054
Asian,7,Right,21,Male,Yes,English,A,258,1,8,0,180.0,1.0,1.0,842.64,1.0,257.0,8.0,1.12811,0.962958
Asian,7,Right,21,Male,Yes,English,A,259,0,4,4,180.0,1.0,1.0,1198.0,1.0,258.0,8.0,1.11744,0.884675
Asian,7,Right,21,Male,Yes,English,A,260,0,16,4,180.0,1.0,1.0,831.664,1.0,259.0,8.0,1.00641,0.932778
Asian,7,Right,21,Male,Yes,English,A,261,1,0,0,0.0,0.0,1.0,858.466,1.0,260.0,8.0,1.1564,0.847354
Asian,7,Right,21,Male,Yes,English,A,262,0,16,8,180.0,1.0,1.0,964.906,1.0,261.0,8.0,1.02421,0.875633
Asian,7,Right,21,Male,Yes,English,A,263,0,0,8,0.0,0.0,1.0,900.879,1.0,262.0,8.0,1.01502,0.991971
Asian,7,Right,21,Male,Yes,English,A,264,1,16,8,180.0,1.0,1.0,1235.39,1.0,263.0,8.0,1.19611,0.882583
Asian,7,Right,21,Male,Yes,English,A,265,1,4,16,0.0,0.0,1.0,790.132,1.0,264.0,8.0,1.06539,0.977905
Asian,7,Right,21,Male,Yes,English,A,266,1,0,8,0.0,0.0,1.0,621.019,1.0,265.0,8.0,1.13154,0.827011
Asian,7,Right,21,Male,Yes,English,A,267,1,0,16,180.0,1.0,1.0,599.559,1.0,266.0,8.0,1.01289,0.854478
Asian,7,Right,21,Male,Yes,English,A,268,0,16,16,180.0,1.0,1.0,582.806,1.0,267.0,8.0,1.16043,0.809515
Asian,7,Right,21,Male,Yes,English,A,269,0,4,0,180.0,1.0,1.0,822.393,1.0,268.0,8.0,1.07387,0.927905
Asian,7,Right,21,Male,Yes,English,A,270,0,4,16,0.0,0.0,1.0,945.413,1.0,269.0,8.0,1.1008,0.92459
Asian,7,Right,21,Male,Yes,English,A,271,0,8,4,180.0,1.0,1.0,1447.8,1.0,270.0,8.0,1.10859,0.957232
Asian,7,Right,21,Male,Yes,English,A,272,1,8,16,180.0,1.0,1.0,745.541,1.0,271.0,8.0,1.1115,0.893975
Asian,7,Right,21,Male,Yes,English,A,273,0,8,16,180.0,1.0,1.0,1243.57,1.0,272.0,8.0,1.06253,0.96769
Asian,7,Right,21,Male,Yes,English,A,274,1,4,4,0.0,0.0,1.0,697.223,1.0,273.0,8.0,1.0264,0.920767
Asian,7,Right,21,Male,Yes,English,A,275,1,16,0,0.0,0.0,1.0,674.085,1.0,274.0,8.0,1.18267,0.857989
Asian,7,Right,21,Male,Yes,English,A,276,1,16,16,180.0,1.0,1.0,923.272,1.0,275.0,8.0,1.18361,0.821567
Asian,7,Right,21,Male,Yes,English,A,277,1,8,4,180.0,1.0,1.0,531.888,1.0,276.0,8.0,1.11401,0.91716
Asian,7,Right,21,Male,Yes,English,A,278,1,0,4,0.0,0.0,1.0,605.366,1.0,277.0,8.0,1.07471,0.875824
Asian,7,Right,21,Male,Yes,English,A,279,0,0,16,180.0,1.0,1.0,727.369,1.0,278.0,8.0,1.16214,0.807014
Asian,7,Right,21,Male,Yes,English,A,280,0,0,4,0.0,0.0,1.0,563.027,1.0,279.0,8.0,1.19538,0.833164
Asian,7,Right,21,Male,Yes,English,A,281,0,8,0,180.0,1.0,1.0,777.609,1.0,280.0,8.0,1.15808,0.90246
Asian,7,Right,21,Male,Yes,English,A,282,1,4,0,0.0,0.0,1.0,612.399,1.0,281.0,8.0,1.02799,0.94092
Asian,7,Right,21,Male,Yes,English,A,283,1,4,8,180.0,1.0,1.0,899.367,1.0,282.0,8.0,1.07074,0.844713
Asian,7,Right,21,Male,Yes,English,A,284,0,4,8,0.0,0.0,1.0,607.076,1.0,283.0,8.0,1.02613,0.999041
Asian,7,Right,21,Male,Yes,English,A,285,1,16,4,0.0,0.0,1.0,810.547,1.0,284.0,8.0,1.06898,0.811635
Asian,7,Right,21,Male,Yes,English,A,286,1,8,8,0.0,0.0,1.0,575.255,1.0,285.0,8.0,1.0487,0.847895
Asian,7,Right,21,Male,Yes,English,A,287,0,0,0,0.0,0.0,1.0,704.713,1.0,286.0,8.0,1.07939,0.935452
Asian,7,Right,21,Male,Yes,English,A,288,0,8,8,0.0,0.0,1.0,600.742,1.0,287.0,8.0,1.17073,0.847076
Asian,7,Right,21,Male,Yes,English,A,289,0,0,16,180.0,1.0,1.0,1017.11,1.0,288.0,9.0,1.16072,0.969062
Asian,7,Right,21,Male,Yes,English,A,290,0,8,0,180.0,1.0,1.0,805.811,1.0,289.0,9.0,1.17867,0.801151
Asian,7,Right,21,Male,Yes,English,A,291,1,0,8,180.0,1.0,1.0,507.034,1.0,290.0,9.0,1.04618,0.919901
Asian,7,Right,21,Male,Yes,English,A,292,1,0,4,0.0,0.0,1.0,632.658,1.0,291.0,9.0,1.03459,0.815361
Asian,7,Right,21,Male,Yes,English,A,293,1,8,0,0.0,0.0,1.0,485.871,1.0,292.0,9.0,1.08377,0.930071
Asian,7,Right,21,Male,Yes,English,A,294,1,16,16,0.0,0.0,1.0,1059.12,1.0,293.0,9.0,1.18463,0.959783
Asian,7,Right,21,Male,Yes,English,A,295,0,8,4,180.0,1.0,1.0,908.645,1.0,294.0,9.0,1.09705,0.872667
Asian,7,Right,21,Male,Yes,English,A,296,1,8,16,0.0,1.0,0.0,851.056,1.0,295.0,9.0,1.01846,0.933323
Asian,7,Right,21,Male,Yes,English,A,297,0,16,4,0.0,0.0,1.0,554.526,1.0,296.0,9.0,1.15974,0.828427
Asian,7,Right,21,Male,Yes,English,A,298,0,16,0,180.0,1.0,1.0,813.086,1.0,297.0,9.0,1.19612,0.893205
Asian,7,Right,21,Male,Yes,English,A,299,1,0,0,0.0,0.0,1.0,444.713,1.0,298.0,9.0,1.12521,0.80952
Asian,7,Right,21,Male,Yes,English,A,300,0,16,16,0.0,0.0,1.0,726.858,1.0,299.0,9.0,1.17215,0.951675
Asian,7,Right,21,Male,Yes,English,A,301,1,4,0,180.0,1.0,1.0,656.431,1.0,300.0,9.0,1.01309,0.965718
Asian,7,Right,21,Male,Yes,English,A,302,1,8,4,180.0,0.0,0.0,460.549,1.0,301.0,9.0,1.02954,0.908559
Asian,7,Right,21,Male,Yes,English,A,303,0,0,4,180.0,1.0,1.0,700.771,1.0,302.0,9.0,1.05135,0.814751
Asian,7,Right,21,Male,Yes,English,A,304,0,4,8,180.0,1.0,1.0,538.125,1.0,303.0,9.0,1.19217,0.907549
Asian,7,Right,21,Male,Yes,English,A,305,1,16,4,0.0,0.0,1.0,737.086,1.0,304.0,9.0,1.01838,0.89614
Asian,7,Right,21,Male,Yes,English,A,306,0,4,4,0.0,0.0,1.0,945.272,1.0,305.0,9.0,1.17329,0.89567
Asian,7,Right,21,Male,Yes,English,A,307,1,0,16,180.0,1.0,1.0,533.998,1.0,306.0,9.0,1.0819,0.914086
Asian,7,Right,21,Male,Yes,English,A,308,0,4,16,180.0,1.0,1.0,636.473,1.0,307.0,9.0,1.19554,0.937864
Asian,7,Right,21,Male,Yes,English,A,309,1,4,8,180.0,1.0,1.0,718.975,1.0,308.0,9.0,1.18522,0.829432
Asian,7,Right,21,Male,Yes,English,A,310,0,0,0,0.0,0.0,1.0,788.616,1.0,309.0,9.0,1.17352,0.874425
Asian,7,Right,21,Male,Yes,English,A,311,1,4,16,0.0,0.0,1.0,896.387,1.0,310.0,9.0,1.16312,0.896375
Asian,7,Right,21,Male,Yes,English,A,312,0,4,0,0.0,0.0,1.0,830.915,1.0,311.0,9.0,1.08249,0.809075
Asian,7,Right,21,Male,Yes,English,A,313,1,8,8,0.0,0.0,1.0,745.998,1.0,312.0,9.0,1.19549,0.862116
Asian,7,Right,21,Male,Yes,English,A,314,1,4,4,0.0,0.0,1.0,496.051,1.0,313.0,9.0,1.11542,0.952112
Asian,7,Right,21,Male,Yes,English,A,315,0,16,8,180.0,1.0,1.0,731.947,1.0,314.0,9.0,1.05265,0.905369
Asian,7,Right,21,Male,Yes,English,A,316,0,8,8,0.0,0.0,1.0,659.989,1.0,315.0,9.0,1.09469,0.902243
Asian,7,Right,21,Male,Yes,English,A,317,1,16,8,180.0,1.0,1.0,945.932,1.0,316.0,9.0,1.12058,0.953499
Asian,7,Right,21,Male,Yes,English,A,318,1,16,0,180.0,1.0,1.0,729.647,1.0,317.0,9.0,1.06703,0.857165
Asian,7,Right,21,Male,Yes,English,A,319,0,0,8,0.0,0.0,1.0,901.12,1.0,318.0,9.0,1.02679,0.869094
Asian,7,Right,21,Male,Yes,English,A,320,0,8,16,180.0,1.0,1.0,910.738,1.0,319.0,9.0,1.01105,0.871924
Asian,7,Right,21,Male,Yes,English,A,321,1,16,8,0.0,0.0,1.0,1316.99,1.0,320.0,10.0,1.0777,0.913868
Asian,7,Right,21,Male,Yes,English,A,322,1,0,0,0.0,0.0,1.0,612.338,1.0,321.0,10.0,1.1633,0.859718
Asian,7,Right,21,Male,Yes,English,A,323,0,16,0,0.0,0.0,1.0,702.911,1.0,322.0,10.0,1.07814,0.837806
Asian,7,Right,21,Male,Yes,English,A,324,0,16,4,180.0,1.0,1.0,673.376,1.0,323.0,10.0,1.08466,0.963518
Asian,7,Right,21,Male,Yes,English,A,325,0,4,0,180.0,1.0,1.0,718.507,1.0,324.0,10.0,1.18906,0.986327
Asian,7,Right,21,Male,Yes,English,A,326,1,4,0,180.0,1.0,1.0,893.847,1.0,325.0,10.0,1.16125,0.898154
Asian,7,Right,21,Male,Yes,English,A,327,1,8,4,0.0,0.0,1.0,1626.57,1.0,326.0,10.0,1.15934,0.863621
Asian,7,Right,21,Male,Yes,English,A,328,0,0,0,180.0,1.0,1.0,668.547,1.0,327.0,10.0,1.09392,0.909788
Asian,7,Right,21,Male,Yes,English,A,329,1,16,4,0.0,0.0,1.0,940.097,1.0,328.0,10.0,1.05506,0.824666
Asian,7,Right,21,Male,Yes,English,A,330,0,8,8,0.0,0.0,1.0,569.767,1.0,329.0,10.0,1.07034,0.971978
Asian,7,Right,21,Male,Yes,English,A,331,1,4,4,180.0,1.0,1.0,727.437,1.0,330.0,10.0,1.14909,0.980831
Asian,7,Right,21,Male,Yes,English,A,332,0,8,0,180.0,1.0,1.0,692.39,1.0,331.0,10.0,1.03356,0.806507
Asian,7,Right,21,Male,Yes,English,A,333,0,16,8,0.0,0.0,1.0,995.798,1.0,332.0,10.0,1.12783,0.808626
Asian,7,Right,21,Male,Yes,English,A,334,0,16,16,180.0,1.0,1.0,951.209,1.0,333.0,10.0,1.18412,0.979438
Asian,7,Right,21,Male,Yes,English,A,335,1,8,16,180.0,1.0,1.0,889.798,1.0,334.0,10.0,1.08068,0.865985
Asian,7,Right,21,Male,Yes,English,A,336,1,0,8,180.0,1.0,1.0,510.108,1.0,335.0,10.0,1.05435,0.945922
Asian,7,Right,21,Male,Yes,English,A,337,1,4,16,0.0,0.0,1.0,900.26,1.0,336.0,10.0,1.1521,0.974878
Asian,7,Right,21,Male,Yes,English,A,338,0,0,16,0.0,0.0,1.0,500.284,1.0,337.0,10.0,1.14037,0.98443
Asian,7,Right,21,Male,Yes,English,A,339,1,8,8,180.0,1.0,1.0,1007.12,1.0,338.0,10.0,1.19492,0.922393
Asian,7,Right,21,Male,Yes,English,A,340,1,4,8,180.0,1.0,1.0,713.383,1.0,339.0,10.0,1.081,0.904123
Asian,7,Right,21,Male,Yes,English,A,341,1,16,16,0.0,0.0,1.0,746.307,1.0,340.0,10.0,1.15158,0.921846
Asian,7,Right,21,Male,Yes,English,A,342,0,4,8,180.0,1.0,1.0,932.815,1.0,341.0,10.0,1.05159,0.822879
Asian,7,Right,21,Male,Yes,English,A,343,0,4,4,180.0,1.0,1.0,787.928,1.0,342.0,10.0,1.07112,0.963618
Asian,7,Right,21,Male,Yes,English,A,344,1,16,0,180.0,1.0,1.0,1207.35,1.0,343.0,10.0,1.03796,0.925269
Asian,7,Right,21,Male,Yes,English,A,345,0,4,16,0.0,0.0,1.0,868.312,1.0,344.0,10.0,1.00576,0.828722
Asian,7,Right,21,Male,Yes,English,A,346,0,8,4,0.0,0.0,1.0,646.508,1.0,345.0,10.0,1.05791,0.865967
Asian,7,Right,21,Male,Yes,English,A,347,0,8,16,0.0,0.0,1.0,650.958,1.0,346.0,10.0,1.04069,0.992218
Asian,7,Right,21,Male,Yes,English,A,348,0,0,4,0.0,0.0,1.0,909.171,1.0,347.0,10.0,1.05709,0.856838
Asian,7,Right,21,Male,Yes,English,A,349,1,8,0,0.0,0.0,1.0,1672.69,1.0,348.0,10.0,1.0684,0.899239
Asian,7,Right,21,Male,Yes,English,A,350,1,0,16,180.0,1.0,1.0,549.327,1.0,349.0,10.0,1.15295,0.831124
Asian,7,Right,21,Male,Yes,English,A,351,1,0,4,0.0,0.0,1.0,463.053,1.0,350.0,10.0,1.06827,0.973451
Asian,7,Right,21,Male,Yes,English,A,352,0,0,8,180.0,1.0,1.0,912.636,1.0,351.0,10.0,1.10532,0.940181
Asian,7,Right,21,Male,Yes,English,A,353,1,8,8,180.0,1.0,1.0,730.624,1.0,352.0,11.0,1.14573,0.854334
Asian,7,Right,21,Male,Yes,English,A,354,1,8,0,180.0,1.0,1.0,508.049,1.0,353.0,11.0,1.15462,0.932166
Asian,7,Right,21,Male,Yes,English,A,355,0,0,4,180.0,1.0,1.0,1046.34,1.0,354.0,11.0,1.00817,0.938105
Asian,7,Right,21,Male,Yes,English,A,356,1,4,8,180.0,1.0,1.0,880.821,1.0,355.0,11.0,1.03366,0.852201
Asian,7,Right,21,Male,Yes,English,A,357,0,16,8,0.0,1.0,0.0,761.472,1.0,356.0,11.0,1.02512,0.995799
Asian,7,Right,21,Male,Yes,English,A,358,0,8,0,180.0,1.0,1.0,1097.09,1.0,357.0,11.0,1.06148,0.97242
Asian,7,Right,21,Male,Yes,English,A,359,0,8,8,0.0,0.0,1.0,652.497,1.0,358.0,11.0,1.00405,0.837566
Asian,7,Right,21,Male,Yes,English,A,360,1,16,16,0.0,0.0,1.0,618.639,1.0,359.0,11.0,1.17906,0.870121
Asian,7,Right,21,Male,Yes,English,A,361,0,0,8,0.0,0.0,1.0,611.518,1.0,360.0,11.0,1.10321,0.830239
Asian,7,Right,21,Male,Yes,English,A,362,1,4,4,0.0,1.0,0.0,507.586,1.0,361.0,11.0,1.00694,0.876442
Asian,7,Right,21,Male,Yes,English,A,363,0,16,4,180.0,1.0,1.0,616.476,1.0,362.0,11.0,1.03616,0.901064
Asian,7,Right,21,Male,Yes,English,A,364,1,16,8,0.0,0.0,1.0,1184.52,1.0,363.0,11.0,1.14495,0.96199
Asian,7,Right,21,Male,Yes,English,A,365,0,4,0,180.0,1.0,1.0,667.891,1.0,364.0,11.0,1.13377,0.879503
Asian,7,Right,21,Male,Yes,English,A,366,0,4,4,0.0,0.0,1.0,1058.63,1.0,365.0,11.0,1.17116,0.881504
Asian,7,Right,21,Male,Yes,English,A,367,1,8,4,180.0,1.0,1.0,895.671,1.0,366.0,11.0,1.0261,0.808952
Asian,7,Right,21,Male,Yes,English,A,368,0,8,16,0.0,0.0,1.0,678.652,1.0,367.0,11.0,1.03049,0.946954
Asian,7,Right,21,Male,Yes,English,A,369,1,0,8,0.0,0.0,1.0,624.218,1.0,368.0,11.0,1.00567,0.964817
Asian,7,Right,21,Male,Yes,English,A,370,1,16,0,180.0,1.0,1.0,648.346,1.0,369.0,11.0,1.13521,0.962415
Asian,7,Right,21,Male,Yes,English,A,371,1,4,16,0.0,0.0,1.0,895.865,1.0,370.0,11.0,1.05054,0.859902
Asian,7,Right,21,Male,Yes,English,A,372,1,8,16,0.0,0.0,1.0,507.417,1.0,371.0,11.0,1.151,0.947745
Asian,7,Right,21,Male,Yes,English,A,373,0,8,4,180.0,1.0,1.0,853.33,1.0,372.0,11.0,1.15038,0.826128
Asian,7,Right,21,Male,Yes,English,A,374,0,4,16,180.0,1.0,1.0,1139.9,1.0,373.0,11.0,1.18725,0.848951
Asian,7,Right,21,Male,Yes,English,A,375,1,0,4,180.0,1.0,1.0,541.527,1.0,374.0,11.0,1.09849,0.836509
Asian,7,Right,21,Male,Yes,English,A,376,1,4,0,180.0,1.0,1.0,808.99,1.0,375.0,11.0,1.05858,0.866441
Asian,7,Right,21,Male,Yes,English,A,377,0,0,16,180.0,1.0,1.0,578.048,1.0,376.0,11.0,1.17237,0.967757
Asian,7,Right,21,Male,Yes,English,A,378,1,16,4,0.0,0.0,1.0,876.276,1.0,377.0,11.0,1.12077,0.938734
Asian,7,Right,21,Male,Yes,English,A,379,0,0,0,0.0,0.0,1.0,750.087,1.0,378.0,11.0,1.05458,0.835614
Asian,7,Right,21,Male,Yes,English,A,380,0,4,8,0.0,0.0,1.0,668.051,1.0,379.0,11.0,1.07666,0.93556
Asian,7,Right,21,Male,Yes,English,A,381,0,16,16,0.0,0.0,1.0,862.971,1.0,380.0,11.0,1.15128,0.912974
Asian,7,Right,21,Male,Yes,English,A,382,1,0,0,180.0,1.0,1.0,780.56,1.0,381.0,11.0,1.01669,0.858977
Asian,7,Right,21,Male,Yes,English,A,383,0,16,0,0.0,0.0,1.0,700.132,1.0,382.0,11.0,1.08665,0.863434
Asian,7,Right,21,Male,Yes,English,A,384,1,0,16,180.0,1.0,1.0,661.107,1.0,383.0,11.0,1.14385,0.852157
Asian,7,Right,21,Male,Yes,English,A,385,0,4,16,0.0,0.0,1.0,832.362,1.0,384.0,12.0,1.01442,0.831541
Asian,7,Right,21,Male,Yes,English,A,386,0,16,4,0.0,0.0,1.0,794.549,1.0,385.0,12.0,1.01465,0.975396
Asian,7,Right,21,Male,Yes,English,A,387,0,8,0,180.0,1.0,1.0,625.017,1.0,386.0,12.0,1.04539,0.862572
Asian,7,Right,21,Male,Yes,English,A,388,0,0,16,180.0,1.0,1.0,464.322,1.0,387.0,12.0,1.11898,0.940691
Asian,7,Right,21,Male,Yes,English,A,389,1,4,8,0.0,0.0,1.0,896.33,1.0,388.0,12.0,1.02877,0.955823
Asian,7,Right,21,Male,Yes,English,A,390,1,0,4,0.0,0.0,1.0,671.728,1.0,389.0,12.0,1.04215,0.989339
Asian,7,Right,21,Male,Yes,English,A,391,1,0,16,0.0,0.0,1.0,642.105,1.0,390.0,12.0,1.0957,0.888666
Asian,7,Right,21,Male,Yes,English,A,392,1,8,8,180.0,1.0,1.0,665.762,1.0,391.0,12.0,1.03034,0.972001
Asian,7,Right,21,Male,Yes,English,A,393,1,4,16,180.0,1.0,1.0,1550.5,1.0,392.0,12.0,1.06414,0.817959
Asian,7,Right,21,Male,Yes,English,A,394,1,16,4,0.0,0.0,1.0,1441.1,1.0,393.0,12.0,1.19191,0.938378
Asian,7,Right,21,Male,Yes,English,A,395,0,4,4,180.0,1.0,1.0,641.349,1.0,394.0,12.0,1.01072,0.920336
Asian,7,Right,21,Male,Yes,English,A,396,0,0,0,180.0,1.0,1.0,675.688,1.0,395.0,12.0,1.12962,0.908434
Asian,7,Right,21,Male,Yes,English,A,397,1,8,0,180.0,1.0,1.0,794.035,1.0,396.0,12.0,1.16206,0.84877
Asian,7,Right,21,Male,Yes,English,A,398,1,4,0,0.0,0.0,1.0,754.372,1.0,397.0,12.0,1.13982,0.861205
Asian,7,Right,21,Male,Yes,English,A,399,0,8,16,0.0,0.0,1.0,603.606,1.0,398.0,12.0,1.05171,0.986733
Asian,7,Right,21,Male,Yes,English,A,400,0,0,8,0.0,0.0,1.0,530.186,1.0,399.0,12.0,1.10534,0.964403
Asian,7,Right,21,Male,Yes,English,A,401,0,8,4,180.0,1.0,1.0,696.546,1.0,400.0,12.0,1.1368,0.960851
Asian,7,Right,21,Male,Yes,English,A,402,0,16,0,0.0,0.0,1.0,820.43,1.0,401.0,12.0,1.01921,0.944833
Asian,7,Right,21,Male,Yes,English,A,403,0,4,0,180.0,1.0,1.0,896.618,1.0,402.0,12.0,1.18943,0.914235
Asian,7,Right,21,Male,Yes,English,A,404,0,8,8,180.0,1.0,1.0,830.711,1.0,403.0,12.0,1.18995,0.886981
Asian,7,Right,21,Male,Yes,English,A,405,1,4,4,180.0,1.0,1.0,630.259,1.0,404.0,12.0,1.14602,0.895241
Asian,7,Right,21,Male,Yes,English,A,406,0,16,8,0.0,0.0,1.0,655.311,1.0,405.0,12.0,1.11123,0.801737
Asian,7,Right,21,Male,Yes,English,A,407,1,16,0,180.0,1.0,1.0,763.317,1.0,406.0,12.0,1.0001,0.91269
Asian,7,Right,21,Male,Yes,English,A,408,1,8,4,180.0,1.0,1.0,673.756,1.0,407.0,12.0,1.16151,0.988059
Asian,7,Right,21,Male,Yes,English,A,409,1,8,16,0.0,0.0,1.0,1414.62,1.0,408.0,12.0,1.02049,0.926557
Asian,7,Right,21,Male,Yes,English,A,410,0,16,16,180.0,1.0,1.0,783.337,1.0,409.0,12.0,1.19979,0.979918
Asian,7,Right,21,Male,Yes,English,A,411,1,0,8,0.0,0.0,1.0,641.599,1.0,410.0,12.0,1.06672,0.963679
Asian,7,Right,21,Male,Yes,English,A,412,1,0,0,0.0,0.0,1.0,1001.46,1.0,411.0,12.0,1.14165,0.883574
Asian,7,Right,21,Male,Yes,English,A,413,1,16,8,0.0,0.0,1.0,805.043,1.0,412.0,12.0,1.01985,0.851395
Asian,7,Right,21,Male,Yes,English,A,414,0,4,8,180.0,1.0,1.0,900.337,1.0,413.0,12.0,1.11175,0.828576
Asian,7,Right,21,Male,Yes,English,A,415,0,0,4,180.0,1.0,1.0,912.581,1.0,414.0,12.0,1.07517,0.891899
Asian,7,Right,21,Male,Yes,English,A,416,1,16,16,0.0,0.0,1.0,997.11,1.0,415.0,12.0,1.10338,0.809202
Asian,7,Right,21,Male,Yes,English,A,417,0,0,8,180.0,1.0,1.0,651.733,1.0,416.0,13.0,1.11129,0.922742
Asian,7,Right,21,Male,Yes,English,A,418,1,8,4,180.0,1.0,1.0,673.629,1.0,417.0,13.0,1.01973,0.871342
Asian,7,Right,21,Male,Yes,English,A,419,0,8,0,180.0,1.0,1.0,891.302,1.0,418.0,13.0,1.09057,0.885724
Asian,7,Right,21,Male,Yes,English,A,420,1,8,0,0.0,0.0,1.0,854.065,1.0,419.0,13.0,1.11378,0.857429
Asian,7,Right,21,Male,Yes,English,A,421,0,4,16,0.0,0.0,1.0,707.814,1.0,420.0,13.0,1.1208,0.898312
Asian,7,Right,21,Male,Yes,English,A,422,1,4,16,0.0,0.0,1.0,1098.98,1.0,421.0,13.0,1.149,0.90072
Asian,7,Right,21,Male,Yes,English,A,423,0,16,4,0.0,0.0,1.0,550.603,1.0,422.0,13.0,1.03101,0.906957
Asian,7,Right,21,Male,Yes,English,A,424,1,0,4,180.0,1.0,1.0,971.577,1.0,423.0,13.0,1.11348,0.954751
Asian,7,Right,21,Male,Yes,English,A,425,0,4,8,180.0,1.0,1.0,826.769,1.0,424.0,13.0,1.0568,0.868305
Asian,7,Right,21,Male,Yes,English,A,426,1,8,8,0.0,0.0,1.0,534.231,1.0,425.0,13.0,1.0512,0.815656
Asian,7,Right,21,Male,Yes,English,A,427,0,4,0,180.0,0.0,0.0,736.659,1.0,426.0,13.0,1.12994,0.97816
Asian,7,Right,21,Male,Yes,English,A,428,0,16,8,0.0,0.0,1.0,938.882,1.0,427.0,13.0,1.03252,0.816926
Asian,7,Right,21,Male,Yes,English,A,429,1,16,16,0.0,0.0,1.0,900.407,1.0,428.0,13.0,1.19983,0.821594
Asian,7,Right,21,Male,Yes,English,A,430,1,16,0,0.0,0.0,1.0,1143.29,1.0,429.0,13.0,1.01747,0.915578
Asian,7,Right,21,Male,Yes,English,A,431,0,8,16,180.0,0.0,0.0,887.873,1.0,430.0,13.0,1.04512,0.840741
Asian,7,Right,21,Male,Yes,English,A,432,0,8,4,0.0,0.0,1.0,999.925,1.0,431.0,13.0,1.18382,0.912159
Asian,7,Right,21,Male,Yes,English,A,433,1,4,8,0.0,0.0,1.0,532.335,1.0,432.0,13.0,1.02697,0.970624
Asian,7,Right,21,Male,Yes,English,A,434,0,0,16,180.0,1.0,1.0,658.568,1.0,433.0,13.0,1.17864,0.921552
Asian,7,Right,21,Male,Yes,English,A,435,1,16,8,0.0,0.0,1.0,666.527,1.0,434.0,13.0,1.01177,0.916801
Asian,7,Right,21,Male,Yes,English,A,436,1,8,16,180.0,1.0,1.0,910.393,1.0,435.0,13.0,1.00996,0.842203
Asian,7,Right,21,Male,Yes,English,A,437,0,0,0,180.0,1.0,1.0,528.028,1.0,436.0,13.0,1.17094,0.85824
Asian,7,Right,21,Male,Yes,English,A,438,1,4,4,180.0,1.0,1.0,606.132,1.0,437.0,13.0,1.02029,0.890759
Asian,7,Right,21,Male,Yes,English,A,439,1,16,4,180.0,1.0,1.0,798.336,1.0,438.0,13.0,1.01435,0.904591
Asian,7,Right,21,Male,Yes,English,A,440,1,0,16,0.0,0.0,1.0,800.071,1.0,439.0,13.0,1.17355,0.905283
Asian,7,Right,21,Male,Yes,English,A,441,0,4,4,180.0,1.0,1.0,701.415,1.0,440.0,13.0,1.04863,0.829406
Asian,7,Right,21,Male,Yes,English,A,442,0,0,4,0.0,0.0,1.0,959.868,1.0,441.0,13.0,1.1613,0.96321
Asian,7,Right,21,Male,Yes,English,A,443,1,0,0,180.0,1.0,1.0,730.533,1.0,442.0,13.0,1.02418,0.867504
Asian,7,Right,21,Male,Yes,English,A,444,0,16,0,180.0,1.0,1.0,512.507,1.0,443.0,13.0,1.14696,0.906433
Asian,7,Right,21,Male,Yes,English,A,445,1,0,8,0.0,0.0,1.0,1597.62,1.0,444.0,13.0,1.03174,0.988247
Asian,7,Right,21,Male,Yes,English,A,446,0,8,8,0.0,0.0,1.0,869.64,1.0,445.0,13.0,1.09295,0.800898
Asian,7,Right,21,Male,Yes,English,A,447,1,4,0,0.0,0.0,1.0,738.312,1.0,446.0,13.0,1.05725,0.967935
Asian,7,Right,21,Male,Yes,English,A,448,0,16,16,180.0,1.0,1.0,1173.16,1.0,447.0,13.0,1.06317,0.971598
Asian,7,Right,21,Male,Yes,English,A,449,0,0,4,0.0,0.0,1.0,889.61,1.0,448.0,14.0,1.08478,0.930097
Asian,7,Right,21,Male,Yes,English,A,450,0,4,16,0.0,0.0,1.0,1331.83,1.0,449.0,14.0,1.00318,0.91176
Asian,7,Right,21,Male,Yes,English,A,451,1,16,0,0.0,0.0,1.0,1094.78,1.0,450.0,14.0,1.11501,0.98964
Asian,7,Right,21,Male,Yes,English,A,452,0,16,4,180.0,1.0,1.0,924.577,1.0,451.0,14.0,1.05262,0.856215
Asian,7,Right,21,Male,Yes,English,A,453,0,8,8,180.0,1.0,1.0,888.439,1.0,452.0,14.0,1.07587,0.991713
Asian,7,Right,21,Male,Yes,English,A,454,1,8,8,0.0,0.0,1.0,914.041,1.0,453.0,14.0,1.19902,0.99474
Asian,7,Right,21,Male,Yes,English,A,455,0,16,0,0.0,0.0,1.0,1039.38,1.0,454.0,14.0,1.04087,0.938531
Asian,7,Right,21,Male,Yes,English,A,456,0,8,4,180.0,1.0,1.0,989.753,1.0,455.0,14.0,1.19506,0.881668
Asian,7,Right,21,Male,Yes,English,A,457,0,8,16,0.0,0.0,1.0,920.461,1.0,456.0,14.0,1.19741,0.917053
Asian,7,Right,21,Male,Yes,English,A,458,1,16,8,0.0,0.0,1.0,867.578,1.0,457.0,14.0,1.09416,0.861331
Asian,7,Right,21,Male,Yes,English,A,459,1,0,4,180.0,1.0,1.0,824.561,1.0,458.0,14.0,1.04692,0.989241
Asian,7,Right,21,Male,Yes,English,A,460,0,4,8,180.0,1.0,1.0,602.939,1.0,459.0,14.0,1.05828,0.867492
Asian,7,Right,21,Male,Yes,English,A,461,0,0,8,0.0,0.0,1.0,780.216,1.0,460.0,14.0,1.19239,0.983458
Asian,7,Right,21,Male,Yes,English,A,462,1,0,16,180.0,1.0,1.0,999.228,1.0,461.0,14.0,1.17622,0.906698
Asian,7,Right,21,Male,Yes,English,A,463,1,16,4,180.0,1.0,1.0,1228.85,1.0,462.0,14.0,1.09306,0.972036
Asian,7,Right,21,Male,Yes,English,A,464,0,4,4,0.0,0.0,1.0,642.081,1.0,463.0,14.0,1.01748,0.92665
Asian,7,Right,21,Male,Yes,English,A,465,1,8,4,180.0,1.0,1.0,842.11,1.0,464.0,14.0,1.06977,0.884119
Asian,7,Right,21,Male,Yes,English,A,466,1,16,16,0.0,0.0,1.0,1100.19,1.0,465.0,14.0,1.15467,0.979536
Asian,7,Right,21,Male,Yes,English,A,467,0,4,0,0.0,0.0,1.0,686.645,1.0,466.0,14.0,1.05417,0.805459
Asian,7,Right,21,Male,Yes,English,A,468,1,8,0,0.0,0.0,1.0,791.8,1.0,467.0,14.0,1.1651,0.806784
Asian,7,Right,21,Male,Yes,English,A,469,0,0,0,180.0,1.0,1.0,727.887,1.0,468.0,14.0,1.05952,0.832218
Asian,7,Right,21,Male,Yes,English,A,470,1,4,8,180.0,1.0,1.0,600.566,1.0,469.0,14.0,1.00132,0.971676
Asian,7,Right,21,Male,Yes,English,A,471,0,16,16,180.0,1.0,1.0,718.823,1.0,470.0,14.0,1.13617,0.974138
Asian,7,Right,21,Male,Yes,English,A,472,1,4,16,0.0,0.0,1.0,857.994,1.0,471.0,14.0,1.07707,0.916575
Asian,7,Right,21,Male,Yes,English,A,473,0,8,0,180.0,1.0,1.0,664.037,1.0,472.0,14.0,1.04433,0.952055
Asian,7,Right,21,Male,Yes,English,A,474,1,4,0,0.0,0.0,1.0,725.143,1.0,473.0,14.0,1.1158,0.898562
Asian,7,Right,21,Male,Yes,English,A,475,1,0,8,180.0,1.0,1.0,743.378,1.0,474.0,14.0,1.1321,0.921099
Asian,7,Right,21,Male,Yes,English,A,476,1,0,0,180.0,1.0,1.0,724.639,1.0,475.0,14.0,1.06108,0.980721
Asian,7,Right,21,Male,Yes,English,A,477,1,4,4,0.0,0.0,1.0,870.579,1.0,476.0,14.0,1.0237,0.802515
Asian,7,Right,21,Male,Yes,English,A,478,0,0,16,0.0,0.0,1.0,895.785,1.0,477.0,14.0,1.03945,0.953499
Asian,7,Right,21,Male,Yes,English,A,479,1,8,16,180.0,1.0,1.0,510.974,1.0,478.0,14.0,1.04729,0.990741
Asian,7,Right,21,Male,Yes,English,A,480,0,16,8,180.0,1.0,1.0,682.593,1.0,479.0,14.0,1.18758,0.994565
Asian,7,Right,21,Male,Yes,English,A,481,1,8,0,180.0,1.0,1.0,783.638,1.0,480.0,15.0,1.02288,0.836
Asian,7,Right,21,Male,Yes,English,A,482,1,16,8,0.0,0.0,1.0,1095.48,1.0,481.0,15.0,1.05945,0.957442
Asian,7,Right,21,Male,Yes,English,A,483,1,8,16,0.0,0.0,1.0,861.222,1.0,482.0,15.0,1.09339,0.900619
Asian,7,Right,21,Male,Yes,English,A,484,1,16,16,0.0,0.0,1.0,991.522,1.0,483.0,15.0,1.14498,0.823108
Asian,7,Right,21,Male,Yes,English,A,485,0,4,16,0.0,0.0,1.0,593.866,1.0,484.0,15.0,1.105,0.895316
Asian,7,Right,21,Male,Yes,English,A,486,0,0,4,0.0,0.0,1.0,643.532,1.0,485.0,15.0,1.12907,0.869077
Asian,7,Right,21,Male,Yes,English,A,487,0,16,16,180.0,1.0,1.0,1006.87,1.0,486.0,15.0,1.17054,0.816298
Asian,7,Right,21,Male,Yes,English,A,488,1,4,0,180.0,1.0,1.0,921.721,1.0,487.0,15.0,1.16982,0.811775
Asian,7,Right,21,Male,Yes,English,A,489,1,8,8,180.0,1.0,1.0,542.871,1.0,488.0,15.0,1.16678,0.893906
Asian,7,Right,21,Male,Yes,English,A,490,1,0,4,0.0,0.0,1.0,685.5,1.0,489.0,15.0,1.09808,0.855898
Asian,7,Right,21,Male,Yes,English,A,491,1,8,4,0.0,0.0,1.0,1381.25,1.0,490.0,15.0,1.04422,0.932492
Asian,7,Right,21,Male,Yes,English,A,492,0,8,4,0.0,0.0,1.0,841.918,1.0,491.0,15.0,1.18728,0.903369
Asian,7,Right,21,Male,Yes,English,A,493,1,4,16,0.0,0.0,1.0,610.911,1.0,492.0,15.0,1.19578,0.84093
Asian,7,Right,21,Male,Yes,English,A,494,0,4,8,180.0,1.0,1.0,677.966,1.0,493.0,15.0,1.09298,0.832438
Asian,7,Right,21,Male,Yes,English,A,495,0,16,4,0.0,0.0,1.0,608.465,1.0,494.0,15.0,1.00519,0.930219
Asian,7,Right,21,Male,Yes,English,A,496,0,16,8,180.0,1.0,1.0,775.251,1.0,495.0,15.0,1.15739,0.805907
Asian,7,Right,21,Male,Yes,English,A,497,0,8,0,180.0,1.0,1.0,902.486,1.0,496.0,15.0,1.1818,0.813449
Asian,7,Right,21,Male,Yes,English,A,498,1,4,4,180.0,1.0,1.0,1199.76,1.0,497.0,15.0,1.06468,0.820544
Asian,7,Right,21,Male,Yes,English,A,499,1,0,16,0.0,0.0,1.0,895.053,1.0,498.0,15.0,1.15222,0.892169
Asian,7,Right,21,Male,Yes,English,A,500,0,0,0,0.0,0.0,1.0,574.443,1.0,499.0,15.0,1.03863,0.955992
Asian,7,Right,21,Male,Yes,English,A,501,0,0,8,180.0,1.0,1.0,862.436,1.0,500.0,15.0,1.01637,0.863753
Asian,7,Right,21,Male,Yes,English,A,502,0,16,0,180.0,1.0,1.0,1158.09,1.0,501.0,15.0,1.1102,0.880924
Asian,7,Right,21,Male,Yes,English,A,503,0,4,4,180.0,1.0,1.0,852.557,1.0,502.0,15.0,1.01833,0.898672
Asian,7,Right,21,Male,Yes,English,A,504,0,8,16,180.0,1.0,1.0,1017.66,1.0,503.0,15.0,1.13635,0.856101
Asian,7,Right,21,Male,Yes,English,A,505,1,16,0,0.0,0.0,1.0,1023.14,1.0,504.0,15.0,1.15764,0.95108
Asian,7,Right,21,Male,Yes,English,A,506,1,4,8,180.0,1.0,1.0,480.01,1.0,505.0,15.0,1.08294,0.996576
Asian,7,Right,21,Male,Yes,English,A,507,0,0,16,180.0,1.0,1.0,566.37,1.0,506.0,15.0,1.19925,0.819259
Asian,7,Right,21,Male,Yes,English,A,508,1,0,8,0.0,0.0,1.0,631.088,1.0,507.0,15.0,1.12105,0.955179
Asian,7,Right,21,Male,Yes,English,A,509,0,8,8,0.0,0.0,1.0,605.398,1.0,508.0,15.0,1.19955,0.886952
Asian,7,Right,21,Male,Yes,English,A,510,1,0,0,180.0,1.0,1.0,560.756,1.0,509.0,15.0,1.07183,0.80661
Asian,7,Right,21,Male,Yes,English,A,511,0,4,0,0.0,0.0,1.0,1106.12,1.0,510.0,15.0,1.0137,0.924132
Asian,7,Right,21,Male,Yes,English,A,512,1,16,4,180.0,1.0,1.0,621.846,1.0,511.0,15.0,1.05297,0.978123
Asian,7,Right,21,Male,Yes,English,A,513,1,4,8,180.0,1.0,1.0,570.031,1.0,512.0,16.0,1.03638,0.920898
Asian,7,Right,21,Male,Yes,English,A,514,1,0,16,0.0,0.0,1.0,571.809,1.0,513.0,16.0,1.17323,0.823306
Asian,7,Right,21,Male,Yes,English,A,515,0,16,0,180.0,1.0,1.0,910.402,1.0,514.0,16.0,1.19027,0.879435
Asian,7,Right,21,Male,Yes,English,A,516,1,8,8,180.0,1.0,1.0,544.429,1.0,515.0,16.0,1.0301,0.935886
Asian,7,Right,21,Male,Yes,English,A,517,0,4,8,0.0,0.0,1.0,805.152,1.0,516.0,16.0,1.15061,0.948141
Asian,7,Right,21,Male,Yes,English,A,518,0,0,8,0.0,0.0,1.0,627.97,1.0,517.0,16.0,1.09857,0.880587
Asian,7,Right,21,Male,Yes,English,A,519,1,16,8,180.0,1.0,1.0,651.728,1.0,518.0,16.0,1.16531,0.931624
Asian,7,Right,21,Male,Yes,English,A,520,0,16,16,180.0,1.0,1.0,1070.04,1.0,519.0,16.0,1.16911,0.96591
Asian,7,Right,21,Male,Yes,English,A,521,1,8,0,180.0,1.0,1.0,800.771,1.0,520.0,16.0,1.02333,0.881195
Asian,7,Right,21,Male,Yes,English,A,522,1,16,16,0.0,0.0,1.0,1200.42,1.0,521.0,16.0,1.11805,0.869686
Asian,7,Right,21,Male,Yes,English,A,523,0,0,0,180.0,1.0,1.0,677.512,1.0,522.0,16.0,1.05085,0.878703
Asian,7,Right,21,Male,Yes,English,A,524,0,8,0,180.0,1.0,1.0,881.27,1.0,523.0,16.0,1.05143,0.898622
Asian,7,Right,21,Male,Yes,English,A,525,0,8,16,180.0,1.0,1.0,1092.62,1.0,524.0,16.0,1.09257,0.997848
Asian,7,Right,21,Male,Yes,English,A,526,0,4,16,0.0,0.0,1.0,792.268,1.0,525.0,16.0,1.17997,0.964957
Asian,7,Right,21,Male,Yes,English,A,527,1,16,4,0.0,0.0,1.0,1160.03,1.0,526.0,16.0,1.00044,0.886512
Asian,7,Right,21,Male,Yes,English,A,528,0,8,4,0.0,0.0,1.0,522.372,1.0,527.0,16.0,1.04278,0.896089
Asian,7,Right,21,Male,Yes,English,A,529,1,16,0,180.0,1.0,1.0,865.421,1.0,528.0,16.0,1.11936,0.83329
Asian,7,Right,21,Male,Yes,English,A,530,0,4,0,0.0,0.0,1.0,548.73,1.0,529.0,16.0,1.16659,0.867559
Asian,7,Right,21,Male,Yes,English,A,531,1,0,8,0.0,0.0,1.0,792.317,1.0,530.0,16.0,1.18936,0.905432
Asian,7,Right,21,Male,Yes,English,A,532,1,0,0,0.0,0.0,1.0,736.933,1.0,531.0,16.0,1.16966,0.838804
Asian,7,Right,21,Male,Yes,English,A,533,1,0,4,180.0,1.0,1.0,666.799,1.0,532.0,16.0,1.04004,0.887545
Asian,7,Right,21,Male,Yes,English,A,534,0,8,8,0.0,0.0,1.0,917.781,1.0,533.0,16.0,1.0957,0.823935
Asian,7,Right,21,Male,Yes,English,A,535,0,16,8,180.0,1.0,1.0,909.403,1.0,534.0,16.0,1.11008,0.930347
Asian,7,Right,21,Male,Yes,English,A,536,1,8,4,180.0,1.0,1.0,1279.0,1.0,535.0,16.0,1.17856,0.947941
Asian,7,Right,21,Male,Yes,English,A,537,0,16,4,0.0,0.0,1.0,1209.76,1.0,536.0,16.0,1.053,0.805897
Asian,7,Right,21,Male,Yes,English,A,538,1,4,0,0.0,0.0,1.0,876.232,1.0,537.0,16.0,1.14967,0.852663
Asian,7,Right,21,Male,Yes,English,A,539,1,4,16,180.0,1.0,1.0,881.357,1.0,538.0,16.0,1.07935,0.95372
Asian,7,Right,21,Male,Yes,English,A,540,1,4,4,180.0,1.0,1.0,1297.46,1.0,539.0,16.0,1.10855,0.830891
Asian,7,Right,21,Male,Yes,English,A,541,1,8,16,180.0,1.0,1.0,685.105,1.0,540.0,16.0,1.13518,0.894517
Asian,7,Right,21,Male,Yes,English,A,542,0,0,16,0.0,0.0,1.0,1041.36,1.0,541.0,16.0,1.02643,0.92668
Asian,7,Right,21,Male,Yes,English,A,543,0,0,4,0.0,0.0,1.0,532.387,1.0,542.0,16.0,1.01106,0.978677
Asian,7,Right,21,Male,Yes,English,A,544,0,4,4,0.0,0.0,1.0,1181.46,1.0,543.0,16.0,1.05781,0.885737
Asian,7,Right,21,Male,Yes,English,A,545,1,4,16,0.0,0.0,1.0,935.167,1.0,544.0,17.0,1.03268,0.86032
Asian,7,Right,21,Male,Yes,English,A,546,0,16,8,0.0,0.0,1.0,653.513,1.0,545.0,17.0,1.04768,0.828349
Asian,7,Right,21,Male,Yes,English,A,547,0,16,16,0.0,0.0,1.0,535.1,1.0,546.0,17.0,1.01552,0.843691
Asian,7,Right,21,Male,Yes,English,A,548,1,16,16,180.0,0.0,0.0,1222.89,1.0,547.0,17.0,1.04617,0.902728
Asian,7,Right,21,Male,Yes,English,A,549,1,0,8,180.0,1.0,1.0,552.45,1.0,548.0,17.0,1.07157,0.837632
Asian,7,Right,21,Male,Yes,English,A,550,1,0,0,0.0,0.0,1.0,551.226,1.0,549.0,17.0,1.04668,0.999328
Asian,7,Right,21,Male,Yes,English,A,551,1,8,8,180.0,1.0,1.0,714.531,1.0,550.0,17.0,1.07039,0.82783
Asian,7,Right,21,Male,Yes,English,A,552,0,0,16,180.0,1.0,1.0,718.412,1.0,551.0,17.0,1.04057,0.835401
Asian,7,Right,21,Male,Yes,English,A,553,0,8,8,180.0,1.0,1.0,529.875,1.0,552.0,17.0,1.18502,0.898825
Asian,7,Right,21,Male,Yes,English,A,554,1,4,4,180.0,1.0,1.0,535.807,1.0,553.0,17.0,1.13579,0.820547
Asian,7,Right,21,Male,Yes,English,A,555,0,16,4,180.0,1.0,1.0,937.938,1.0,554.0,17.0,1.04944,0.913919
Asian,7,Right,21,Male,Yes,English,A,556,0,0,0,180.0,1.0,1.0,561.939,1.0,555.0,17.0,1.09398,0.91272
Asian,7,Right,21,Male,Yes,English,A,557,1,16,0,180.0,1.0,1.0,474.816,1.0,556.0,17.0,1.05133,0.915351
Asian,7,Right,21,Male,Yes,English,A,558,0,4,0,180.0,1.0,1.0,663.981,1.0,557.0,17.0,1.09334,0.872435
Asian,7,Right,21,Male,Yes,English,A,559,0,4,16,0.0,0.0,1.0,846.803,1.0,558.0,17.0,1.12794,0.856924
Asian,7,Right,21,Male,Yes,English,A,560,1,8,0,180.0,1.0,1.0,783.321,1.0,559.0,17.0,1.11711,0.890321
Asian,7,Right,21,Male,Yes,English,A,561,0,8,16,0.0,0.0,1.0,647.102,1.0,560.0,17.0,1.01381,0.903684
Asian,7,Right,21,Male,Yes,English,A,562,1,16,4,180.0,1.0,1.0,1177.54,1.0,561.0,17.0,1.06118,0.875207
Asian,7,Right,21,Male,Yes,English,A,563,0,4,8,0.0,0.0,1.0,722.854,1.0,562.0,17.0,1.18801,0.805415
Asian,7,Right,21,Male,Yes,English,A,564,0,0,8,180.0,1.0,1.0,909.207,1.0,563.0,17.0,1.13026,0.888603
Asian,7,Right,21,Male,Yes,English,A,565,0,16,0,0.0,0.0,1.0,823.646,1.0,564.0,17.0,1.02111,0.905271
Asian,7,Right,21,Male,Yes,English,A,566,0,0,4,0.0,0.0,1.0,692.761,1.0,565.0,17.0,1.18192,0.908132
Asian,7,Right,21,Male,Yes,English,A,567,1,4,0,0.0,0.0,1.0,829.921,1.0,566.0,17.0,1.10566,0.920332
Asian,7,Right,21,Male,Yes,English,A,568,1,0,4,0.0,0.0,1.0,708.652,1.0,567.0,17.0,1.1926,0.937954
Asian,7,Right,21,Male,Yes,English,A,569,0,4,4,0.0,0.0,1.0,560.2,1.0,568.0,17.0,1.13168,0.964775
Asian,7,Right,21,Male,Yes,English,A,570,1,16,8,0.0,0.0,1.0,604.306,1.0,569.0,17.0,1.07586,0.888507
Asian,7,Right,21,Male,Yes,English,A,571,1,4,8,180.0,1.0,1.0,1442.69,1.0,570.0,17.0,1.15704,0.926854
Asian,7,Right,21,Male,Yes,English,A,572,1,0,16,0.0,0.0,1.0,699.577,1.0,571.0,17.0,1.09906,0.937552
Asian,7,Right,21,Male,Yes,English,A,573,1,8,16,180.0,1.0,1.0,1276.4,1.0,572.0,17.0,1.01128,0.815618
Asian,7,Right,21,Male,Yes,English,A,574,0,8,0,0.0,0.0,1.0,609.095,1.0,573.0,17.0,1.17304,0.885873
Asian,7,Right,21,Male,Yes,English,A,575,1,8,4,0.0,0.0,1.0,767.699,1.0,574.0,17.0,1.17288,0.849067
Asian,7,Right,21,Male,Yes,English,A,576,0,8,4,180.0,1.0,1.0,764.127,1.0,575.0,17.0,1.15083,0.97509
Asian,7,Right,21,Male,Yes,English,A,577,1,4,8,0.0,0.0,1.0,482.672,1.0,576.0,18.0,1.15127,0.969707
Asian,7,Right,21,Male,Yes,English,A,578,1,8,16,0.0,0.0,1.0,564.497,1.0,577.0,18.0,1.10948,0.812725
Asian,7,Right,21,Male,Yes,English,A,579,1,16,16,0.0,1.0,0.0,616.362,1.0,578.0,18.0,1.04256,0.830132
Asian,7,Right,21,Male,Yes,English,A,580,1,16,4,180.0,1.0,1.0,523.127,1.0,579.0,18.0,1.18159,0.803942
Asian,7,Right,21,Male,Yes,English,A,581,0,0,8,180.0,1.0,1.0,908.013,1.0,580.0,18.0,1.17303,0.976892
Asian,7,Right,21,Male,Yes,English,A,582,1,0,4,0.0,0.0,1.0,787.271,1.0,581.0,18.0,1.05767,0.98267
Asian,7,Right,21,Male,Yes,English,A,583,0,0,0,180.0,1.0,1.0,552.93,1.0,582.0,18.0,1.05857,0.882843
Asian,7,Right,21,Male,Yes,English,A,584,0,4,4,180.0,1.0,1.0,563.542,1.0,583.0,18.0,1.12671,0.849396
Asian,7,Right,21,Male,Yes,English,A,585,1,8,8,0.0,0.0,1.0,625.899,1.0,584.0,18.0,1.13584,0.849926
Asian,7,Right,21,Male,Yes,English,A,586,0,4,8,180.0,1.0,1.0,1336.97,1.0,585.0,18.0,1.01664,0.874324
Asian,7,Right,21,Male,Yes,English,A,587,0,16,4,0.0,0.0,1.0,1543.88,1.0,586.0,18.0,1.06675,0.966218
Asian,7,Right,21,Male,Yes,English,A,588,1,0,0,180.0,1.0,1.0,700.033,1.0,587.0,18.0,1.01997,0.987542
Asian,7,Right,21,Male,Yes,English,A,589,1,4,16,0.0,0.0,1.0,1717.72,1.0,588.0,18.0,1.11138,0.988198
Asian,7,Right,21,Male,Yes,English,A,590,0,8,8,0.0,0.0,1.0,678.628,1.0,589.0,18.0,1.05788,0.895528
Asian,7,Right,21,Male,Yes,English,A,591,1,4,4,180.0,1.0,1.0,781.8,1.0,590.0,18.0,1.00261,0.862673
Asian,7,Right,21,Male,Yes,English,A,592,0,4,0,180.0,1.0,1.0,576.788,1.0,591.0,18.0,1.10232,0.858027
Asian,7,Right,21,Male,Yes,English,A,593,1,4,0,0.0,0.0,1.0,640.864,1.0,592.0,18.0,1.01212,0.961819
Asian,7,Right,21,Male,Yes,English,A,594,1,0,8,180.0,1.0,1.0,705.514,1.0,593.0,18.0,1.1769,0.910506
Asian,7,Right,21,Male,Yes,English,A,595,0,16,0,180.0,1.0,1.0,1225.07,1.0,594.0,18.0,1.19482,0.975529
Asian,7,Right,21,Male,Yes,English,A,596,1,16,8,180.0,1.0,1.0,1349.93,1.0,595.0,18.0,1.0551,0.942233
Asian,7,Right,21,Male,Yes,English,A,597,1,8,4,0.0,0.0,1.0,1041.88,1.0,596.0,18.0,1.06275,0.890086
Asian,7,Right,21,Male,Yes,English,A,598,0,16,16,0.0,0.0,1.0,1370.97,1.0,597.0,18.0,1.12921,0.827801
Asian,7,Right,21,Male,Yes,English,A,599,1,0,16,180.0,1.0,1.0,610.79,1.0,598.0,18.0,1.19255,0.823776
Asian,7,Right,21,Male,Yes,English,A,600,0,0,16,180.0,1.0,1.0,590.427,1.0,599.0,18.0,1.04124,0.95526
Asian,7,Right,21,Male,Yes,English,A,601,1,16,0,180.0,1.0,1.0,945.732,1.0,600.0,18.0,1.14888,0.858768
Asian,7,Right,21,Male,Yes,English,A,602,0,8,16,180.0,1.0,1.0,755.6,1.0,601.0,18.0,1.18737,0.822432
Asian,7,Right,21,Male,Yes,English,A,603,0,4,16,0.0,0.0,1.0,697.329,1.0,602.0,18.0,1.01377,0.953219
Asian,7,Right,21,Male,Yes,English,A,604,0,8,0,0.0,0.0,1.0,793.711,1.0,603.0,18.0,1.10487,0.841446
Asian,7,Right,21,Male,Yes,English,A,605,0,8,4,180.0,1.0,1.0,615.124,1.0,604.0,18.0,1.19344,0.822924
Asian,7,Right,21,Male,Yes,English,A,606,0,16,8,0.0,0.0,1.0,741.666,1.0,605.0,18.0,1.06951,0.879408
Asian,7,Right,21,Male,Yes,English,A,607,0,0,4,0.0,0.0,1.0,608.397,1.0,606.0,18.0,1.1479,0.908744
Asian,7,Right,21,Male,Yes,English,A,608,1,8,0,0.0,0.0,1.0,1016.08,1.0,607.0,18.0,1.11129,0.826709
Asian,7,Right,21,Male,Yes,English,A,609,1,4,16,180.0,1.0,1.0,814.095,1.0,608.0,19.0,1.04162,0.899789
Asian,7,Right,21,Male,Yes,English,A,610,0,4,0,180.0,1.0,1.0,684.261,1.0,609.0,19.0,1.15594,0.898611
Asian,7,Right,21,Male,Yes,English,A,611,1,4,4,0.0,0.0,1.0,782.317,1.0,610.0,19.0,1.15425,0.996768
Asian,7,Right,21,Male,Yes,English,A,612,1,0,16,0.0,0.0,1.0,760.607,1.0,611.0,19.0,1.11995,0.916703
Asian,7,Right,21,Male,Yes,English,A,613,0,4,4,0.0,0.0,1.0,773.083,1.0,612.0,19.0,1.1444,0.833955
Asian,7,Right,21,Male,Yes,English,A,614,0,16,4,180.0,1.0,1.0,584.84,1.0,613.0,19.0,1.03271,0.940244
Asian,7,Right,21,Male,Yes,English,A,615,0,8,8,0.0,0.0,1.0,652.55,1.0,614.0,19.0,1.06472,0.897929
Asian,7,Right,21,Male,Yes,English,A,616,0,16,8,0.0,0.0,1.0,867.698,1.0,615.0,19.0,1.05021,0.813101
Asian,7,Right,21,Male,Yes,English,A,617,0,8,0,180.0,1.0,1.0,851.907,1.0,616.0,19.0,1.13664,0.83517
Asian,7,Right,21,Male,Yes,English,A,618,1,0,0,0.0,0.0,1.0,630.87,1.0,617.0,19.0,1.00363,0.955056
Asian,7,Right,21,Male,Yes,English,A,619,0,0,0,180.0,1.0,1.0,544.99,1.0,618.0,19.0,1.1844,0.965231
Asian,7,Right,21,Male,Yes,English,A,620,1,4,0,0.0,0.0,1.0,1033.91,1.0,619.0,19.0,1.15986,0.809417
Asian,7,Right,21,Male,Yes,English,A,621,0,16,16,0.0,0.0,1.0,640.307,1.0,620.0,19.0,1.01261,0.892035
Asian,7,Right,21,Male,Yes,English,A,622,0,8,4,180.0,1.0,1.0,765.38,1.0,621.0,19.0,1.10227,0.883896
Asian,7,Right,21,Male,Yes,English,A,623,1,0,4,180.0,1.0,1.0,697.342,1.0,622.0,19.0,1.00849,0.829152
Asian,7,Right,21,Male,Yes,English,A,624,1,16,0,180.0,1.0,1.0,699.239,1.0,623.0,19.0,1.10157,0.880821
Asian,7,Right,21,Male,Yes,English,A,625,1,16,4,180.0,1.0,1.0,757.046,1.0,624.0,19.0,1.06824,0.811486
Asian,7,Right,21,Male,Yes,English,A,626,0,16,0,0.0,0.0,1.0,638.141,1.0,625.0,19.0,1.13027,0.812261
Asian,7,Right,21,Male,Yes,English,A,627,1,8,8,0.0,0.0,1.0,991.811,1.0,626.0,19.0,1.0231,0.996385
Asian,7,Right,21,Male,Yes,English,A,628,0,8,16,180.0,1.0,1.0,965.579,1.0,627.0,19.0,1.13657,0.991161
Asian,7,Right,21,Male,Yes,English,A,629,0,4,16,180.0,1.0,1.0,633.376,1.0,628.0,19.0,1.11141,0.913575
Asian,7,Right,21,Male,Yes,English,A,630,1,8,4,180.0,1.0,1.0,837.626,1.0,629.0,19.0,1.11714,0.951991
Asian,7,Right,21,Male,Yes,English,A,631,0,0,8,0.0,0.0,1.0,726.414,1.0,630.0,19.0,1.1342,0.914626
Asian,7,Right,21,Male,Yes,English,A,632,1,16,16,0.0,0.0,1.0,658.061,1.0,631.0,19.0,1.07734,0.843006
Asian,7,Right,21,Male,Yes,English,A,633,1,16,8,180.0,1.0,1.0,659.651,1.0,632.0,19.0,1.15391,0.913281
Asian,7,Right,21,Male,Yes,English,A,634,1,8,16,180.0,1.0,1.0,608.637,1.0,633.0,19.0,1.05324,0.847427
Asian,7,Right,21,Male,Yes,English,A,635,1,8,0,0.0,0.0,1.0,748.873,1.0,634.0,19.0,1.08459,0.841283
Asian,7,Right,21,Male,Yes,English,A,636,1,4,8,0.0,0.0,1.0,828.228,1.0,635.0,19.0,1.12493,0.972331
Asian,7,Right,21,Male,Yes,English,A,637,1,0,8,0.0,0.0,1.0,685.284,1.0,636.0,19.0,1.18918,0.945646
Asian,7,Right,21,Male,Yes,English,A,638,0,0,4,180.0,1.0,1.0,635.57,1.0,637.0,19.0,1.05614,0.934604
Asian,7,Right,21,Male,Yes,English,A,639,0,0,16,0.0,0.0,1.0,623.347,1.0,638.0,19.0,1.04113,0.977062
Asian,7,Right,21,Male,Yes,English,A,640,0,4,8,180.0,1.0,1.0,608.424,1.0,639.0,19.0,1.06218,0.989979
Asian,7,Right,21,Male,Yes,English,A,641,1,4,4,0.0,0.0,1.0,745.276,1.0,640.0,20.0,1.06465,0.904382
Asian,7,Right,21,Male,Yes,English,A,642,0,4,8,180.0,1.0,1.0,794.258,1.0,641.0,20.0,1.03556,0.926014
Asian,7,Right,21,Male,Yes,English,A,643,0,16,0,180.0,1.0,1.0,995.098,1.0,642.0,20.0,1.01216,0.98862
Asian,7,Right,21,Male,Yes,English,A,644,0,0,0,0.0,0.0,1.0,696.565,1.0,643.0,20.0,1.12797,0.85656
Asian,7,Right,21,Male,Yes,English,A,645,1,8,16,0.0,0.0,1.0,733.317,1.0,644.0,20.0,1.07214,0.84043
Asian,7,Right,21,Male,Yes,English,A,646,0,0,16,0.0,0.0,1.0,942.249,1.0,645.0,20.0,1.17644,0.954179
Asian,7,Right,21,Male,Yes,English,A,647,0,8,4,180.0,1.0,1.0,684.894,1.0,646.0,20.0,1.11833,0.839512
Asian,7,Right,21,Male,Yes,English,A,648,0,4,16,0.0,0.0,1.0,674.259,1.0,647.0,20.0,1.12514,0.939855
Asian,7,Right,21,Male,Yes,English,A,649,0,16,8,0.0,0.0,1.0,899.008,1.0,648.0,20.0,1.1418,0.904255
Asian,7,Right,21,Male,Yes,English,A,650,1,16,16,0.0,0.0,1.0,630.255,1.0,649.0,20.0,1.06303,0.988636
Asian,7,Right,21,Male,Yes,English,A,651,1,16,8,0.0,0.0,1.0,1199.22,1.0,650.0,20.0,1.09326,0.822645
Asian,7,Right,21,Male,Yes,English,A,652,1,0,0,180.0,1.0,1.0,543.264,1.0,651.0,20.0,1.1395,0.940024
Asian,7,Right,21,Male,Yes,English,A,653,1,8,4,180.0,1.0,1.0,495.282,1.0,652.0,20.0,1.1642,0.859171
Asian,7,Right,21,Male,Yes,English,A,654,1,0,16,0.0,0.0,1.0,696.9,1.0,653.0,20.0,1.12932,0.9027
Asian,7,Right,21,Male,Yes,English,A,655,0,4,4,180.0,1.0,1.0,898.085,1.0,654.0,20.0,1.06318,0.910366
Asian,7,Right,21,Male,Yes,English,A,656,0,8,8,180.0,1.0,1.0,639.311,1.0,655.0,20.0,1.07672,0.940064
Asian,7,Right,21,Male,Yes,English,A,657,1,0,8,180.0,1.0,1.0,670.018,1.0,656.0,20.0,1.0162,0.964049
Asian,7,Right,21,Male,Yes,English,A,658,1,8,8,0.0,0.0,1.0,595.465,1.0,657.0,20.0,1.07347,0.850239
Asian,7,Right,21,Male,Yes,English,A,659,1,4,16,180.0,1.0,1.0,577.316,1.0,658.0,20.0,1.1061,0.948496
Asian,7,Right,21,Male,Yes,English,A,660,1,8,0,0.0,0.0,1.0,813.132,1.0,659.0,20.0,1.11243,0.93844
Asian,7,Right,21,Male,Yes,English,A,661,0,8,0,180.0,1.0,1.0,748.012,1.0,660.0,20.0,1.01179,0.910434
Asian,7,Right,21,Male,Yes,English,A,662,0,8,16,0.0,0.0,1.0,1221.14,1.0,661.0,20.0,1.15957,0.966618
Asian,7,Right,21,Male,Yes,English,A,663,0,16,4,0.0,0.0,1.0,923.077,1.0,662.0,20.0,1.08685,0.885143
Asian,7,Right,21,Male,Yes,English,A,664,1,16,4,180.0,1.0,1.0,665.876,1.0,663.0,20.0,1.17419,0.853593
Asian,7,Right,21,Male,Yes,English,A,665,0,0,8,180.0,1.0,1.0,960.043,1.0,664.0,20.0,1.10648,0.921399
Asian,7,Right,21,Male,Yes,English,A,666,0,4,0,0.0,0.0,1.0,641.339,1.0,665.0,20.0,1.1542,0.985935
Asian,7,Right,21,Male,Yes,English,A,667,1,0,4,180.0,1.0,1.0,777.397,1.0,666.0,20.0,1.09422,0.847676
Asian,7,Right,21,Male,Yes,English,A,668,1,4,8,0.0,0.0,1.0,697.681,1.0,667.0,20.0,1.12331,0.96786
Asian,7,Right,21,Male,Yes,English,A,669,1,16,0,180.0,1.0,1.0,880.264,1.0,668.0,20.0,1.09251,0.978899
Asian,7,Right,21,Male,Yes,English,A,670,0,0,4,180.0,1.0,1.0,857.726,1.0,669.0,20.0,1.1062,0.938113
Asian,7,Right,21,Male,Yes,English,A,671,1,4,0,0.0,0.0,1.0,660.095,1.0,670.0,20.0,1.16252,0.840198
Asian,7,Right,21,Male,Yes,English,A,672,0,16,16,180.0,1.0,1.0,827.869,1.0,671.0,20.0,1.16768,0.981144
Asian,7,Right,21,Male,Yes,English,A,673,0,4,0,0.0,0.0,1.0,727.969,1.0,672.0,21.0,1.09883,0.952146
Asian,7,Right,21,Male,Yes,English,A,674,0,8,0,180.0,1.0,1.0,1198.73,1.0,673.0,21.0,1.02578,0.851794
Asian,7,Right,21,Male,Yes,English,A,675,1,0,0,180.0,1.0,1.0,382.816,1.0,674.0,21.0,1.06636,0.925258
Asian,7,Right,21,Male,Yes,English,A,676,1,0,16,0.0,0.0,1.0,708.74,1.0,675.0,21.0,1.11583,0.933851
Asian,7,Right,21,Male,Yes,English,A,677,1,16,16,0.0,1.0,0.0,798.484,1.0,676.0,21.0,1.09615,0.937532
Asian,7,Right,21,Male,Yes,English,A,678,1,16,4,180.0,1.0,1.0,515.607,1.0,677.0,21.0,1.11418,0.972013
Asian,7,Right,21,Male,Yes,English,A,679,1,8,0,180.0,1.0,1.0,699.518,1.0,678.0,21.0,1.14778,0.951456
Asian,7,Right,21,Male,Yes,English,A,680,1,4,4,0.0,0.0,1.0,714.555,1.0,679.0,21.0,1.1005,0.998627
Asian,7,Right,21,Male,Yes,English,A,681,0,16,4,180.0,1.0,1.0,722.647,1.0,680.0,21.0,1.05813,0.971475
Asian,7,Right,21,Male,Yes,English,A,682,0,0,16,0.0,0.0,1.0,509.443,1.0,681.0,21.0,1.1974,0.929145
Asian,7,Right,21,Male,Yes,English,A,683,0,8,4,0.0,0.0,1.0,820.569,1.0,682.0,21.0,1.17368,0.845257
Asian,7,Right,21,Male,Yes,English,A,684,1,16,8,0.0,0.0,1.0,493.123,1.0,683.0,21.0,1.15677,0.816081
Asian,7,Right,21,Male,Yes,English,A,685,1,16,0,0.0,0.0,1.0,620.604,1.0,684.0,21.0,1.08439,0.893761
Asian,7,Right,21,Male,Yes,English,A,686,1,4,8,180.0,1.0,1.0,967.413,1.0,685.0,21.0,1.14801,0.924541
Asian,7,Right,21,Male,Yes,English,A,687,0,0,4,180.0,1.0,1.0,474.042,1.0,686.0,21.0,1.07491,0.862143
Asian,7,Right,21,Male,Yes,English,A,688,0,4,16,0.0,0.0,1.0,649.128,1.0,687.0,21.0,1.0122,0.827906
Asian,7,Right,21,Male,Yes,English,A,689,1,0,8,0.0,0.0,1.0,594.394,1.0,688.0,21.0,1.0305,0.830169
Asian,7,Right,21,Male,Yes,English,A,690,0,4,4,0.0,0.0,1.0,757.394,1.0,689.0,21.0,1.00066,0.921668
Asian,7,Right,21,Male,Yes,English,A,691,1,8,16,180.0,1.0,1.0,695.577,1.0,690.0,21.0,1.06358,0.917528
Asian,7,Right,21,Male,Yes,English,A,692,0,0,8,0.0,0.0,1.0,642.122,1.0,691.0,21.0,1.07636,0.900831
Asian,7,Right,21,Male,Yes,English,A,693,0,16,16,180.0,1.0,1.0,588.992,1.0,692.0,21.0,1.03749,0.997912
Asian,7,Right,21,Male,Yes,English,A,694,0,0,0,180.0,1.0,1.0,663.106,1.0,693.0,21.0,1.1522,0.813433
Asian,7,Right,21,Male,Yes,English,A,695,1,8,4,180.0,1.0,1.0,494.598,1.0,694.0,21.0,1.07289,0.890198
Asian,7,Right,21,Male,Yes,English,A,696,0,16,8,0.0,0.0,1.0,651.698,1.0,695.0,21.0,1.05702,0.997319
Asian,7,Right,21,Male,Yes,English,A,697,1,8,8,0.0,0.0,1.0,751.904,1.0,696.0,21.0,1.07292,0.81488
Asian,7,Right,21,Male,Yes,English,A,698,0,4,8,180.0,1.0,1.0,557.528,1.0,697.0,21.0,1.10014,0.939328
Asian,7,Right,21,Male,Yes,English,A,699,1,4,0,0.0,0.0,1.0,431.741,1.0,698.0,21.0,1.19624,0.890619
Asian,7,Right,21,Male,Yes,English,A,700,0,8,16,180.0,1.0,1.0,479.644,1.0,699.0,21.0,1.12715,0.899164
Asian,7,Right,21,Male,Yes,English,A,701,0,8,8,180.0,1.0,1.0,839.727,1.0,700.0,21.0,1.14603,0.827104
Asian,7,Right,21,Male,Yes,English,A,702,0,16,0,0.0,0.0,1.0,501.415,1.0,701.0,21.0,1.14832,0.940481
Asian,7,Right,21,Male,Yes,English,A,703,1,4,16,180.0,1.0,1.0,772.261,1.0,702.0,21.0,1.01239,0.969313
Asian,7,Right,21,Male,Yes,English,A,704,1,0,4,180.0,1.0,1.0,522.675,1.0,703.0,21.0,1.06915,0.981414
Asian,7,Right,21,Male,Yes,English,A,705,0,16,16,0.0,0.0,1.0,703.339,1.0,704.0,22.0,1.14305,0.917158
Asian,7,Right,21,Male,Yes,English,A,706,0,4,0,0.0,0.0,1.0,866.583,1.0,705.0,22.0,1.11405,0.84384
Asian,7,Right,21,Male,Yes,English,A,707,0,4,4,180.0,1.0,1.0,718.994,1.0,706.0,22.0,1.16317,0.886757
Asian,7,Right,21,Male,Yes,English,A,708,1,4,16,180.0,1.0,1.0,1017.02,1.0,707.0,22.0,1.1639,0.894852
Asian,7,Right,21,Male,Yes,English,A,709,0,8,0,180.0,1.0,1.0,487.003,1.0,708.0,22.0,1.11071,0.911923
Asian,7,Right,21,Male,Yes,English,A,710,1,8,8,0.0,0.0,1.0,1166.92,1.0,709.0,22.0,1.0611,0.939596
Asian,7,Right,21,Male,Yes,English,A,711,0,16,8,0.0,0.0,1.0,531.004,1.0,710.0,22.0,1.17012,0.986027
Asian,7,Right,21,Male,Yes,English,A,712,1,8,0,0.0,0.0,1.0,840.479,1.0,711.0,22.0,1.1894,0.811396
Asian,7,Right,21,Male,Yes,English,A,713,0,0,4,180.0,1.0,1.0,750.492,1.0,712.0,22.0,1.12105,0.862726
Asian,7,Right,21,Male,Yes,English,A,714,1,4,0,0.0,0.0,1.0,783.203,1.0,713.0,22.0,1.18035,0.85111
Asian,7,Right,21,Male,Yes,English,A,715,1,16,8,180.0,1.0,1.0,883.372,1.0,714.0,22.0,1.02348,0.962545
Asian,7,Right,21,Male,Yes,English,A,716,1,0,8,180.0,1.0,1.0,682.623,1.0,715.0,22.0,1.12982,0.83717
Asian,7,Right,21,Male,Yes,English,A,717,1,4,4,0.0,0.0,1.0,660.077,1.0,716.0,22.0,1.13292,0.898881
Asian,7,Right,21,Male,Yes,English,A,718,1,8,4,0.0,0.0,1.0,728.168,1.0,717.0,22.0,1.07843,0.999941
Asian,7,Right,21,Male,Yes,English,A,719,0,8,8,0.0,0.0,1.0,585.834,1.0,718.0,22.0,1.03161,0.909229
Asian,7,Right,21,Male,Yes,English,A,720,0,0,8,0.0,0.0,1.0,674.574,1.0,719.0,22.0,1.04803,0.956532
Asian,7,Right,21,Male,Yes,English,A,721,0,8,16,180.0,1.0,1.0,1016.19,1.0,720.0,22.0,1.05937,0.975696
Asian,7,Right,21,Male,Yes,English,A,722,0,8,4,0.0,0.0,1.0,610.343,1.0,721.0,22.0,1.00058,0.966929
Asian,7,Right,21,Male,Yes,English,A,723,0,0,0,0.0,0.0,1.0,632.703,1.0,722.0,22.0,1.08373,0.946622
Asian,7,Right,21,Male,Yes,English,A,724,1,16,4,180.0,0.0,0.0,511.241,1.0,723.0,22.0,1.15583,0.871555
Asian,7,Right,21,Male,Yes,English,A,725,0,0,16,180.0,1.0,1.0,525.329,1.0,724.0,22.0,1.11479,0.958722
Asian,7,Right,21,Male,Yes,English,A,726,1,4,8,180.0,1.0,1.0,1375.52,1.0,725.0,22.0,1.02739,0.967451
Asian,7,Right,21,Male,Yes,English,A,727,1,16,16,180.0,1.0,1.0,642.294,1.0,726.0,22.0,1.08955,0.94779
Asian,7,Right,21,Male,Yes,English,A,728,1,0,0,180.0,1.0,1.0,525.914,1.0,727.0,22.0,1.11729,0.891705
Asian,7,Right,21,Male,Yes,English,A,729,1,0,4,0.0,0.0,1.0,491.795,1.0,728.0,22.0,1.1406,0.940417
Asian,7,Right,21,Male,Yes,English,A,730,0,16,0,0.0,0.0,1.0,1102.39,1.0,729.0,22.0,1.16961,0.986089
Asian,7,Right,21,Male,Yes,English,A,731,0,4,16,0.0,0.0,1.0,738.116,1.0,730.0,22.0,1.1953,0.995894
Asian,7,Right,21,Male,Yes,English,A,732,1,16,0,180.0,1.0,1.0,874.104,1.0,731.0,22.0,1.14688,0.96033
Asian,7,Right,21,Male,Yes,English,A,733,1,8,16,180.0,1.0,1.0,826.274,1.0,732.0,22.0,1.19042,0.949843
Asian,7,Right,21,Male,Yes,English,A,734,1,0,16,180.0,1.0,1.0,539.772,1.0,733.0,22.0,1.03726,0.929767
Asian,7,Right,21,Male,Yes,English,A,735,0,4,8,180.0,1.0,1.0,1265.93,1.0,734.0,22.0,1.05189,0.910711
Asian,7,Right,21,Male,Yes,English,A,736,0,16,4,0.0,0.0,1.0,780.604,1.0,735.0,22.0,1.13848,0.98708
Asian,7,Right,21,Male,Yes,English,A,737,1,8,16,0.0,0.0,1.0,686.054,1.0,736.0,23.0,1.12061,0.975412
Asian,7,Right,21,Male,Yes,English,A,738,0,8,0,0.0,0.0,1.0,1532.65,1.0,737.0,23.0,1.07156,0.809595
Asian,7,Right,21,Male,Yes,English,A,739,1,0,16,0.0,0.0,1.0,1163.87,1.0,738.0,23.0,1.03335,0.880659
Asian,7,Right,21,Male,Yes,English,A,740,0,4,16,180.0,1.0,1.0,762.12,1.0,739.0,23.0,1.19176,0.889322
Asian,7,Right,21,Male,Yes,English,A,741,1,4,8,180.0,1.0,1.0,1950.08,1.0,740.0,23.0,1.18294,0.928228
Asian,7,Right,21,Male,Yes,English,A,742,0,4,4,180.0,0.0,0.0,794.27,1.0,741.0,23.0,1.1613,0.808481
Asian,7,Right,21,Male,Yes,English,A,743,1,16,16,180.0,1.0,1.0,640.344,1.0,742.0,23.0,1.18864,0.825609
Asian,7,Right,21,Male,Yes,English,A,744,0,8,16,0.0,0.0,1.0,704.469,1.0,743.0,23.0,1.0291,0.949719
Asian,7,Right,21,Male,Yes,English,A,745,1,16,4,0.0,0.0,1.0,520.378,1.0,744.0,23.0,1.02539,0.825843
Asian,7,Right,21,Male,Yes,English,A,746,0,8,4,0.0,0.0,1.0,810.584,1.0,745.0,23.0,1.05814,0.839305
Asian,7,Right,21,Male,Yes,English,A,747,0,4,0,0.0,0.0,1.0,678.743,1.0,746.0,23.0,1.07251,0.819799
Asian,7,Right,21,Male,Yes,English,A,748,1,4,0,0.0,0.0,1.0,570.562,1.0,747.0,23.0,1.04872,0.878196
Asian,7,Right,21,Male,Yes,English,A,749,1,8,4,180.0,1.0,1.0,715.371,1.0,748.0,23.0,1.19738,0.855559
Asian,7,Right,21,Male,Yes,English,A,750,0,8,8,180.0,1.0,1.0,901.117,1.0,749.0,23.0,1.02929,0.948759
Asian,7,Right,21,Male,Yes,English,A,751,1,0,0,0.0,0.0,1.0,579.632,1.0,750.0,23.0,1.1816,0.941359
Asian,7,Right,21,Male,Yes,English,A,752,0,16,0,180.0,1.0,1.0,702.508,1.0,751.0,23.0,1.16218,0.821288
Asian,7,Right,21,Male,Yes,English,A,753,0,0,0,180.0,1.0,1.0,487.819,1.0,752.0,23.0,1.18056,0.952083
Asian,7,Right,21,Male,Yes,English,A,754,1,16,0,0.0,0.0,1.0,720.37,1.0,753.0,23.0,1.08394,0.824678
Asian,7,Right,21,Male,Yes,English,A,755,0,16,4,180.0,1.0,1.0,663.785,1.0,754.0,23.0,1.00877,0.938993
Asian,7,Right,21,Male,Yes,English,A,756,0,16,16,180.0,1.0,1.0,651.425,1.0,755.0,23.0,1.05097,0.830943
Asian,7,Right,21,Male,Yes,English,A,757,1,8,0,0.0,0.0,1.0,498.523,1.0,756.0,23.0,1.03339,0.935393
Asian,7,Right,21,Male,Yes,English,A,758,1,4,16,0.0,0.0,1.0,644.722,1.0,757.0,23.0,1.12589,0.801547
Asian,7,Right,21,Male,Yes,English,A,759,1,16,8,180.0,1.0,1.0,989.344,1.0,758.0,23.0,1.18859,0.972505
Asian,7,Right,21,Male,Yes,English,A,760,1,8,8,0.0,0.0,1.0,1082.27,1.0,759.0,23.0,1.17411,0.983358
Asian,7,Right,21,Male,Yes,English,A,761,1,4,4,0.0,0.0,1.0,561.874,1.0,760.0,23.0,1.01434,0.917601
Asian,7,Right,21,Male,Yes,English,A,762,1,0,8,180.0,1.0,1.0,546.247,1.0,761.0,23.0,1.06973,0.883527
Asian,7,Right,21,Male,Yes,English,A,763,0,4,8,0.0,0.0,1.0,539.362,1.0,762.0,23.0,1.03339,0.925659
Asian,7,Right,21,Male,Yes,English,A,764,0,0,16,0.0,0.0,1.0,754.659,1.0,763.0,23.0,1.07447,0.881931
Asian,7,Right,21,Male,Yes,English,A,765,0,16,8,180.0,1.0,1.0,1092.78,1.0,764.0,23.0,1.18806,0.940782
Asian,7,Right,21,Male,Yes,English,A,766,0,0,4,180.0,1.0,1.0,475.006,1.0,765.0,23.0,1.17526,0.862486
Asian,7,Right,21,Male,Yes,English,A,767,1,0,4,180.0,1.0,1.0,629.111,1.0,766.0,23.0,1.13453,0.897613
Asian,7,Right,21,Male,Yes,English,A,768,0,0,8,180.0,1.0,1.0,781.049,1.0,767.0,23.0,1.08814,0.976982
