Ethnicity,Subject Number,Preferred Hand,Age,Gender,Color blind,First Language,Room,TrialNumber,background,turtles,tortoises,target_id,resp,hit,rt,ran,order,block,iti,fix_duration
White,12,Right,19,Male,Yes,English,B,1,0,8,8,0.0,0.0,1.0,752.321,1.0,0.0,0.0,1.1572,0.962992
White,12,Right,19,Male,Yes,English,B,2,1,4,4,180.0,1.0,1.0,752.228,1.0,1.0,0.0,1.12225,0.826018
White,12,Right,19,Male,Yes,English,B,3,1,16,0,180.0,1.0,1.0,1198.04,1.0,2.0,0.0,1.18578,0.85242
White,12,Right,19,Male,Yes,English,B,4,1,8,4,0.0,0.0,1.0,773.839,1.0,3.0,0.0,1.13351,0.842252
White,12,Right,19,Male,Yes,English,B,5,0,4,8,180.0,1.0,1.0,1704.64,1.0,4.0,0.0,1.1944,0.864766
White,12,Right,19,Male,Yes,English,B,6,0,0,0,180.0,1.0,1.0,2003.54,1.0,5.0,0.0,1.0224,0.994417
White,12,Right,19,Male,Yes,English,B,7,1,16,16,180.0,1.0,1.0,1608.9,1.0,6.0,0.0,1.19285,0.90749
White,12,Right,19,Male,Yes,English,B,8,0,8,16,0.0,0.0,1.0,993.771,1.0,7.0,0.0,1.03242,0.857199
White,12,Right,19,Male,Yes,English,B,9,0,0,8,0.0,0.0,1.0,1047.89,1.0,8.0,0.0,1.10277,0.980739
White,12,Right,19,Male,Yes,English,B,10,0,16,8,180.0,1.0,1.0,772.555,1.0,9.0,0.0,1.03625,0.909802
White,12,Right,19,Male,Yes,English,B,11,0,4,16,180.0,1.0,1.0,689.03,1.0,10.0,0.0,1.09151,0.989149
White,12,Right,19,Male,Yes,English,B,12,1,8,8,0.0,0.0,1.0,701.487,1.0,11.0,0.0,1.09934,0.935665
White,12,Right,19,Male,Yes,English,B,13,1,16,8,180.0,1.0,1.0,1233.93,1.0,12.0,0.0,1.14061,0.899488
White,12,Right,19,Male,Yes,English,B,14,0,8,0,0.0,0.0,1.0,917.826,1.0,13.0,0.0,1.08609,0.904385
White,12,Right,19,Male,Yes,English,B,15,0,8,4,0.0,0.0,1.0,717.673,1.0,14.0,0.0,1.08178,0.975782
White,12,Right,19,Male,Yes,English,B,16,0,4,4,0.0,0.0,1.0,682.408,1.0,15.0,0.0,1.09193,0.872422
White,12,Right,19,Male,Yes,English,B,17,0,16,0,180.0,1.0,1.0,778.326,1.0,16.0,0.0,1.01557,0.961513
White,12,Right,19,Male,Yes,English,B,18,1,0,4,0.0,0.0,1.0,649.143,1.0,17.0,0.0,1.14143,0.940027
White,12,Right,19,Male,Yes,English,B,19,0,4,0,180.0,1.0,1.0,587.547,1.0,18.0,0.0,1.18072,0.966769
White,12,Right,19,Male,Yes,English,B,20,1,16,4,180.0,1.0,1.0,774.57,1.0,19.0,0.0,1.02516,0.848005
White,12,Right,19,Male,Yes,English,B,21,1,4,8,180.0,0.0,0.0,769.591,1.0,20.0,0.0,1.0615,0.837897
White,12,Right,19,Male,Yes,English,B,22,1,4,16,0.0,0.0,1.0,1083.26,1.0,21.0,0.0,1.08373,0.832305
White,12,Right,19,Male,Yes,English,B,23,0,0,16,0.0,0.0,1.0,867.128,1.0,22.0,0.0,1.14177,0.959052
White,12,Right,19,Male,Yes,English,B,24,1,0,0,180.0,1.0,1.0,754.265,1.0,23.0,0.0,1.16296,0.94053
White,12,Right,19,Male,Yes,English,B,25,0,16,16,180.0,1.0,1.0,736.692,1.0,24.0,0.0,1.13242,0.933285
White,12,Right,19,Male,Yes,English,B,26,0,16,4,0.0,0.0,1.0,923.909,1.0,25.0,0.0,1.01953,0.927918
White,12,Right,19,Male,Yes,English,B,27,1,0,8,0.0,0.0,1.0,611.066,1.0,26.0,0.0,1.03065,0.857638
White,12,Right,19,Male,Yes,English,B,28,0,0,4,0.0,0.0,1.0,1018.63,1.0,27.0,0.0,1.05873,0.97769
White,12,Right,19,Male,Yes,English,B,29,1,0,16,180.0,0.0,0.0,131.572,1.0,28.0,0.0,1.0595,0.807479
White,12,Right,19,Male,Yes,English,B,30,1,8,0,180.0,1.0,1.0,1198.72,1.0,29.0,0.0,1.15988,0.951991
White,12,Right,19,Male,Yes,English,B,31,1,4,0,0.0,0.0,1.0,807.029,1.0,30.0,0.0,1.0761,0.999472
White,12,Right,19,Male,Yes,English,B,32,1,8,16,0.0,0.0,1.0,894.057,1.0,31.0,0.0,1.02188,0.945581
White,12,Right,19,Male,Yes,English,B,33,0,4,16,0.0,0.0,1.0,782.23,1.0,32.0,1.0,1.07984,0.969884
White,12,Right,19,Male,Yes,English,B,34,0,8,4,180.0,1.0,1.0,1009.14,1.0,33.0,1.0,1.15826,0.832832
White,12,Right,19,Male,Yes,English,B,35,0,16,0,0.0,0.0,1.0,905.504,1.0,34.0,1.0,1.01016,0.979483
White,12,Right,19,Male,Yes,English,B,36,0,4,0,180.0,1.0,1.0,711.076,1.0,35.0,1.0,1.14476,0.859484
White,12,Right,19,Male,Yes,English,B,37,1,0,16,0.0,0.0,1.0,675.251,1.0,36.0,1.0,1.15716,0.889424
White,12,Right,19,Male,Yes,English,B,38,0,16,8,0.0,0.0,1.0,937.227,1.0,37.0,1.0,1.1662,0.994248
White,12,Right,19,Male,Yes,English,B,39,1,4,16,0.0,9999.0,0.0,9999.0,1.0,38.0,1.0,1.00291,0.881865
White,12,Right,19,Male,Yes,English,B,40,0,0,0,0.0,0.0,1.0,800.003,1.0,39.0,1.0,1.03368,0.919632
White,12,Right,19,Male,Yes,English,B,41,1,8,4,180.0,1.0,1.0,740.52,1.0,40.0,1.0,1.14565,0.837047
White,12,Right,19,Male,Yes,English,B,42,1,4,0,0.0,0.0,1.0,646.349,1.0,41.0,1.0,1.12275,0.892634
White,12,Right,19,Male,Yes,English,B,43,0,0,4,180.0,1.0,1.0,726.61,1.0,42.0,1.0,1.19543,0.880753
White,12,Right,19,Male,Yes,English,B,44,1,4,8,180.0,1.0,1.0,827.2,1.0,43.0,1.0,1.06502,0.862551
White,12,Right,19,Male,Yes,English,B,45,0,8,8,180.0,1.0,1.0,554.638,1.0,44.0,1.0,1.19049,0.97278
White,12,Right,19,Male,Yes,English,B,46,1,0,4,180.0,1.0,1.0,746.64,1.0,45.0,1.0,1.07714,0.899197
White,12,Right,19,Male,Yes,English,B,47,1,16,16,180.0,1.0,1.0,954.994,1.0,46.0,1.0,1.06776,0.868429
White,12,Right,19,Male,Yes,English,B,48,1,16,4,0.0,0.0,1.0,807.038,1.0,47.0,1.0,1.14736,0.804239
White,12,Right,19,Male,Yes,English,B,49,0,0,16,0.0,0.0,1.0,1263.83,1.0,48.0,1.0,1.06435,0.920242
White,12,Right,19,Male,Yes,English,B,50,1,8,8,0.0,0.0,1.0,789.886,1.0,49.0,1.0,1.03191,0.813292
White,12,Right,19,Male,Yes,English,B,51,1,8,0,180.0,1.0,1.0,913.631,1.0,50.0,1.0,1.07645,0.954093
White,12,Right,19,Male,Yes,English,B,52,0,16,4,180.0,1.0,1.0,1154.1,1.0,51.0,1.0,1.19306,0.919609
White,12,Right,19,Male,Yes,English,B,53,1,0,0,180.0,1.0,1.0,568.415,1.0,52.0,1.0,1.09003,0.867211
White,12,Right,19,Male,Yes,English,B,54,1,0,8,0.0,1.0,0.0,564.918,1.0,53.0,1.0,1.03746,0.859337
White,12,Right,19,Male,Yes,English,B,55,1,16,8,180.0,1.0,1.0,944.616,1.0,54.0,1.0,1.06516,0.801125
White,12,Right,19,Male,Yes,English,B,56,1,4,4,0.0,0.0,1.0,2110.85,1.0,55.0,1.0,1.05879,0.889321
White,12,Right,19,Male,Yes,English,B,57,0,8,0,0.0,0.0,1.0,928.882,1.0,56.0,1.0,1.03581,0.922817
White,12,Right,19,Male,Yes,English,B,58,1,8,16,0.0,0.0,1.0,507.073,1.0,57.0,1.0,1.03882,0.911004
White,12,Right,19,Male,Yes,English,B,59,0,4,8,180.0,1.0,1.0,1113.95,1.0,58.0,1.0,1.12869,0.885423
White,12,Right,19,Male,Yes,English,B,60,0,16,16,180.0,1.0,1.0,1097.83,1.0,59.0,1.0,1.05864,0.973945
White,12,Right,19,Male,Yes,English,B,61,0,0,8,180.0,1.0,1.0,565.664,1.0,60.0,1.0,1.1323,0.864078
White,12,Right,19,Male,Yes,English,B,62,0,8,16,180.0,1.0,1.0,709.822,1.0,61.0,1.0,1.04631,0.829631
White,12,Right,19,Male,Yes,English,B,63,0,4,4,0.0,0.0,1.0,776.675,1.0,62.0,1.0,1.06629,0.974314
White,12,Right,19,Male,Yes,English,B,64,1,16,0,0.0,0.0,1.0,1020.86,1.0,63.0,1.0,1.16505,0.849118
White,12,Right,19,Male,Yes,English,B,65,0,8,4,180.0,1.0,1.0,1016.95,1.0,64.0,2.0,1.19742,0.945745
White,12,Right,19,Male,Yes,English,B,66,1,16,0,180.0,1.0,1.0,861.876,1.0,65.0,2.0,1.15136,0.929299
White,12,Right,19,Male,Yes,English,B,67,1,16,16,180.0,1.0,1.0,821.572,1.0,66.0,2.0,1.12668,0.902041
White,12,Right,19,Male,Yes,English,B,68,1,4,8,180.0,1.0,1.0,656.458,1.0,67.0,2.0,1.1625,0.931579
White,12,Right,19,Male,Yes,English,B,69,0,16,0,180.0,1.0,1.0,770.188,1.0,68.0,2.0,1.1693,0.806394
White,12,Right,19,Male,Yes,English,B,70,1,4,4,0.0,0.0,1.0,807.501,1.0,69.0,2.0,1.0352,0.867068
White,12,Right,19,Male,Yes,English,B,71,0,0,4,0.0,0.0,1.0,847.698,1.0,70.0,2.0,1.11846,0.862512
White,12,Right,19,Male,Yes,English,B,72,0,16,4,0.0,0.0,1.0,816.076,1.0,71.0,2.0,1.03362,0.918302
White,12,Right,19,Male,Yes,English,B,73,1,4,16,0.0,0.0,1.0,656.643,1.0,72.0,2.0,1.17601,0.962335
White,12,Right,19,Male,Yes,English,B,74,1,4,0,0.0,0.0,1.0,626.498,1.0,73.0,2.0,1.18761,0.898447
White,12,Right,19,Male,Yes,English,B,75,0,0,0,0.0,0.0,1.0,545.324,1.0,74.0,2.0,1.07639,0.812573
White,12,Right,19,Male,Yes,English,B,76,1,16,8,180.0,1.0,1.0,692.568,1.0,75.0,2.0,1.06798,0.970637
White,12,Right,19,Male,Yes,English,B,77,1,8,8,180.0,1.0,1.0,850.826,1.0,76.0,2.0,1.03112,0.941601
White,12,Right,19,Male,Yes,English,B,78,0,4,8,0.0,0.0,1.0,655.987,1.0,77.0,2.0,1.06601,0.815506
White,12,Right,19,Male,Yes,English,B,79,1,0,8,180.0,1.0,1.0,762.429,1.0,78.0,2.0,1.00001,0.950673
White,12,Right,19,Male,Yes,English,B,80,0,8,16,0.0,0.0,1.0,980.347,1.0,79.0,2.0,1.14089,0.949093
White,12,Right,19,Male,Yes,English,B,81,0,16,16,180.0,1.0,1.0,743.154,1.0,80.0,2.0,1.15871,0.943992
White,12,Right,19,Male,Yes,English,B,82,0,4,4,180.0,1.0,1.0,947.723,1.0,81.0,2.0,1.02502,0.810124
White,12,Right,19,Male,Yes,English,B,83,0,8,8,0.0,0.0,1.0,904.986,1.0,82.0,2.0,1.04808,0.831464
White,12,Right,19,Male,Yes,English,B,84,0,4,16,180.0,1.0,1.0,1351.14,1.0,83.0,2.0,1.07041,0.926503
White,12,Right,19,Male,Yes,English,B,85,1,8,4,180.0,1.0,1.0,748.405,1.0,84.0,2.0,1.14861,0.873339
White,12,Right,19,Male,Yes,English,B,86,1,0,16,180.0,1.0,1.0,1333.26,1.0,85.0,2.0,1.1311,0.843682
White,12,Right,19,Male,Yes,English,B,87,1,0,4,0.0,0.0,1.0,766.513,1.0,86.0,2.0,1.08058,0.937803
White,12,Right,19,Male,Yes,English,B,88,0,0,8,180.0,1.0,1.0,645.641,1.0,87.0,2.0,1.08347,0.955676
White,12,Right,19,Male,Yes,English,B,89,0,4,0,0.0,0.0,1.0,594.012,1.0,88.0,2.0,1.18928,0.973466
White,12,Right,19,Male,Yes,English,B,90,0,8,0,0.0,0.0,1.0,575.659,1.0,89.0,2.0,1.07383,0.936821
White,12,Right,19,Male,Yes,English,B,91,1,8,16,0.0,0.0,1.0,637.241,1.0,90.0,2.0,1.14902,0.897856
White,12,Right,19,Male,Yes,English,B,92,1,0,0,0.0,0.0,1.0,709.684,1.0,91.0,2.0,1.07853,0.928274
White,12,Right,19,Male,Yes,English,B,93,0,16,8,0.0,0.0,1.0,644.215,1.0,92.0,2.0,1.15124,0.818098
White,12,Right,19,Male,Yes,English,B,94,0,0,16,0.0,0.0,1.0,688.668,1.0,93.0,2.0,1.16614,0.866704
White,12,Right,19,Male,Yes,English,B,95,1,8,0,180.0,0.0,0.0,769.539,1.0,94.0,2.0,1.13353,0.978682
White,12,Right,19,Male,Yes,English,B,96,1,16,4,180.0,1.0,1.0,786.887,1.0,95.0,2.0,1.00791,0.996426
White,12,Right,19,Male,Yes,English,B,97,0,0,4,0.0,0.0,1.0,781.14,1.0,96.0,3.0,1.19528,0.978457
White,12,Right,19,Male,Yes,English,B,98,0,8,16,0.0,0.0,1.0,817.677,1.0,97.0,3.0,1.1219,0.830638
White,12,Right,19,Male,Yes,English,B,99,0,16,0,180.0,1.0,1.0,1093.15,1.0,98.0,3.0,1.11511,0.925831
White,12,Right,19,Male,Yes,English,B,100,1,8,4,0.0,0.0,1.0,687.316,1.0,99.0,3.0,1.04444,0.894811
White,12,Right,19,Male,Yes,English,B,101,0,4,0,180.0,1.0,1.0,680.76,1.0,100.0,3.0,1.12648,0.990318
White,12,Right,19,Male,Yes,English,B,102,0,4,4,180.0,0.0,0.0,616.876,1.0,101.0,3.0,1.0188,0.939516
White,12,Right,19,Male,Yes,English,B,103,0,8,0,0.0,0.0,1.0,690.652,1.0,102.0,3.0,1.0644,0.850068
White,12,Right,19,Male,Yes,English,B,104,0,8,8,0.0,0.0,1.0,570.343,1.0,103.0,3.0,1.0533,0.927756
White,12,Right,19,Male,Yes,English,B,105,1,16,8,180.0,1.0,1.0,744.78,1.0,104.0,3.0,1.11586,0.872863
White,12,Right,19,Male,Yes,English,B,106,1,0,8,180.0,1.0,1.0,684.032,1.0,105.0,3.0,1.10628,0.800679
White,12,Right,19,Male,Yes,English,B,107,1,16,0,180.0,1.0,1.0,596.868,1.0,106.0,3.0,1.11494,0.986367
White,12,Right,19,Male,Yes,English,B,108,1,0,4,0.0,0.0,1.0,714.933,1.0,107.0,3.0,1.19298,0.850802
White,12,Right,19,Male,Yes,English,B,109,0,8,4,180.0,1.0,1.0,699.909,1.0,108.0,3.0,1.09578,0.975382
White,12,Right,19,Male,Yes,English,B,110,1,0,16,0.0,0.0,1.0,737.181,1.0,109.0,3.0,1.02048,0.808931
White,12,Right,19,Male,Yes,English,B,111,0,16,4,180.0,1.0,1.0,724.181,1.0,110.0,3.0,1.14298,0.828199
White,12,Right,19,Male,Yes,English,B,112,1,16,4,0.0,0.0,1.0,709.036,1.0,111.0,3.0,1.07583,0.944391
White,12,Right,19,Male,Yes,English,B,113,1,8,8,180.0,1.0,1.0,864.688,1.0,112.0,3.0,1.18069,0.984053
White,12,Right,19,Male,Yes,English,B,114,0,0,0,180.0,0.0,0.0,572.387,1.0,113.0,3.0,1.01772,0.946186
White,12,Right,19,Male,Yes,English,B,115,1,4,16,180.0,1.0,1.0,532.605,1.0,114.0,3.0,1.12088,0.949963
White,12,Right,19,Male,Yes,English,B,116,1,8,0,0.0,0.0,1.0,527.332,1.0,115.0,3.0,1.00365,0.821462
White,12,Right,19,Male,Yes,English,B,117,0,16,16,180.0,1.0,1.0,942.122,1.0,116.0,3.0,1.1014,0.935981
White,12,Right,19,Male,Yes,English,B,118,1,0,0,180.0,1.0,1.0,634.284,1.0,117.0,3.0,1.12534,0.805333
White,12,Right,19,Male,Yes,English,B,119,1,4,8,0.0,0.0,1.0,669.317,1.0,118.0,3.0,1.11605,0.881559
White,12,Right,19,Male,Yes,English,B,120,0,16,8,180.0,1.0,1.0,739.136,1.0,119.0,3.0,1.06535,0.917984
White,12,Right,19,Male,Yes,English,B,121,1,4,4,180.0,1.0,1.0,679.118,1.0,120.0,3.0,1.00966,0.882337
White,12,Right,19,Male,Yes,English,B,122,0,0,8,0.0,0.0,1.0,756.429,1.0,121.0,3.0,1.00953,0.981828
White,12,Right,19,Male,Yes,English,B,123,0,4,8,0.0,0.0,1.0,622.558,1.0,122.0,3.0,1.04135,0.938516
White,12,Right,19,Male,Yes,English,B,124,1,8,16,180.0,1.0,1.0,1301.47,1.0,123.0,3.0,1.05194,0.847189
White,12,Right,19,Male,Yes,English,B,125,0,0,16,0.0,0.0,1.0,591.523,1.0,124.0,3.0,1.1483,0.837151
White,12,Right,19,Male,Yes,English,B,126,1,4,0,0.0,0.0,1.0,928.529,1.0,125.0,3.0,1.18635,0.908218
White,12,Right,19,Male,Yes,English,B,127,1,16,16,0.0,0.0,1.0,816.479,1.0,126.0,3.0,1.08201,0.861956
White,12,Right,19,Male,Yes,English,B,128,0,4,16,0.0,0.0,1.0,511.733,1.0,127.0,3.0,1.08308,0.985532
White,12,Right,19,Male,Yes,English,B,129,1,4,8,180.0,1.0,1.0,895.084,1.0,128.0,4.0,1.04669,0.803852
White,12,Right,19,Male,Yes,English,B,130,0,0,8,0.0,0.0,1.0,1019.49,1.0,129.0,4.0,1.05099,0.816318
White,12,Right,19,Male,Yes,English,B,131,1,8,4,0.0,0.0,1.0,586.782,1.0,130.0,4.0,1.18214,0.888344
White,12,Right,19,Male,Yes,English,B,132,1,8,8,0.0,0.0,1.0,614.05,1.0,131.0,4.0,1.0898,0.831663
White,12,Right,19,Male,Yes,English,B,133,0,16,4,180.0,1.0,1.0,686.229,1.0,132.0,4.0,1.16398,0.826923
White,12,Right,19,Male,Yes,English,B,134,1,4,4,180.0,1.0,1.0,921.354,1.0,133.0,4.0,1.04104,0.942388
White,12,Right,19,Male,Yes,English,B,135,1,0,0,180.0,1.0,1.0,779.899,1.0,134.0,4.0,1.15037,0.814491
White,12,Right,19,Male,Yes,English,B,136,0,4,16,0.0,0.0,1.0,1232.77,1.0,135.0,4.0,1.03086,0.903269
White,12,Right,19,Male,Yes,English,B,137,1,4,16,180.0,1.0,1.0,1505.33,1.0,136.0,4.0,1.02648,0.835624
White,12,Right,19,Male,Yes,English,B,138,1,16,8,0.0,0.0,1.0,1164.57,1.0,137.0,4.0,1.00707,0.847098
White,12,Right,19,Male,Yes,English,B,139,0,16,8,0.0,0.0,1.0,1696.9,1.0,138.0,4.0,1.04617,0.921223
White,12,Right,19,Male,Yes,English,B,140,1,8,16,180.0,1.0,1.0,713.739,1.0,139.0,4.0,1.15396,0.866196
White,12,Right,19,Male,Yes,English,B,141,0,8,4,180.0,1.0,1.0,915.732,1.0,140.0,4.0,1.16482,0.824573
White,12,Right,19,Male,Yes,English,B,142,0,4,0,0.0,0.0,1.0,902.695,1.0,141.0,4.0,1.10859,0.955773
White,12,Right,19,Male,Yes,English,B,143,0,8,0,0.0,0.0,1.0,1078.12,1.0,142.0,4.0,1.06313,0.85418
White,12,Right,19,Male,Yes,English,B,144,1,16,0,0.0,0.0,1.0,773.1,1.0,143.0,4.0,1.19411,0.949089
White,12,Right,19,Male,Yes,English,B,145,1,16,4,180.0,1.0,1.0,916.152,1.0,144.0,4.0,1.08564,0.869326
White,12,Right,19,Male,Yes,English,B,146,0,4,8,0.0,0.0,1.0,1274.67,1.0,145.0,4.0,1.16511,0.959796
White,12,Right,19,Male,Yes,English,B,147,1,16,16,0.0,0.0,1.0,854.394,1.0,146.0,4.0,1.012,0.919083
White,12,Right,19,Male,Yes,English,B,148,0,8,8,0.0,0.0,1.0,690.924,1.0,147.0,4.0,1.00309,0.996051
White,12,Right,19,Male,Yes,English,B,149,1,0,4,180.0,1.0,1.0,743.654,1.0,148.0,4.0,1.01358,0.984797
White,12,Right,19,Male,Yes,English,B,150,1,8,0,180.0,1.0,1.0,1062.1,1.0,149.0,4.0,1.16044,0.804689
White,12,Right,19,Male,Yes,English,B,151,1,4,0,180.0,1.0,1.0,810.536,1.0,150.0,4.0,1.05629,0.802974
White,12,Right,19,Male,Yes,English,B,152,1,0,8,180.0,1.0,1.0,534.828,1.0,151.0,4.0,1.1052,0.98247
White,12,Right,19,Male,Yes,English,B,153,0,0,0,0.0,1.0,0.0,662.977,1.0,152.0,4.0,1.07463,0.863897
White,12,Right,19,Male,Yes,English,B,154,0,16,0,180.0,1.0,1.0,828.412,1.0,153.0,4.0,1.08545,0.966171
White,12,Right,19,Male,Yes,English,B,155,0,16,16,0.0,0.0,1.0,644.268,1.0,154.0,4.0,1.13358,0.954106
White,12,Right,19,Male,Yes,English,B,156,0,0,16,0.0,0.0,1.0,387.742,1.0,155.0,4.0,1.06302,0.882653
White,12,Right,19,Male,Yes,English,B,157,0,0,4,180.0,0.0,0.0,462.396,1.0,156.0,4.0,1.15227,0.966303
White,12,Right,19,Male,Yes,English,B,158,0,8,16,180.0,1.0,1.0,517.422,1.0,157.0,4.0,1.07866,0.807645
White,12,Right,19,Male,Yes,English,B,159,1,0,16,0.0,0.0,1.0,700.819,1.0,158.0,4.0,1.16163,0.913391
White,12,Right,19,Male,Yes,English,B,160,0,4,4,180.0,1.0,1.0,573.266,1.0,159.0,4.0,1.18626,0.907984
White,12,Right,19,Male,Yes,English,B,161,0,16,8,180.0,0.0,0.0,615.396,1.0,160.0,5.0,1.00422,0.930011
White,12,Right,19,Male,Yes,English,B,162,1,8,0,180.0,1.0,1.0,772.755,1.0,161.0,5.0,1.13073,0.988181
White,12,Right,19,Male,Yes,English,B,163,0,4,0,0.0,0.0,1.0,808.989,1.0,162.0,5.0,1.04163,0.907677
White,12,Right,19,Male,Yes,English,B,164,0,0,4,0.0,0.0,1.0,572.136,1.0,163.0,5.0,1.12624,0.900932
White,12,Right,19,Male,Yes,English,B,165,1,16,16,180.0,1.0,1.0,1377.15,1.0,164.0,5.0,1.06866,0.833757
White,12,Right,19,Male,Yes,English,B,166,0,8,16,180.0,1.0,1.0,1070.75,1.0,165.0,5.0,1.03418,0.959539
White,12,Right,19,Male,Yes,English,B,167,1,4,16,0.0,0.0,1.0,586.597,1.0,166.0,5.0,1.16111,0.956732
White,12,Right,19,Male,Yes,English,B,168,0,8,4,180.0,1.0,1.0,1311.59,1.0,167.0,5.0,1.1292,0.985107
White,12,Right,19,Male,Yes,English,B,169,1,16,8,180.0,1.0,1.0,1185.16,1.0,168.0,5.0,1.00798,0.905836
White,12,Right,19,Male,Yes,English,B,170,1,4,0,0.0,0.0,1.0,1153.98,1.0,169.0,5.0,1.1085,0.995245
White,12,Right,19,Male,Yes,English,B,171,0,4,8,0.0,0.0,1.0,694.709,1.0,170.0,5.0,1.10808,0.958525
White,12,Right,19,Male,Yes,English,B,172,1,16,0,0.0,0.0,1.0,836.531,1.0,171.0,5.0,1.09749,0.862224
White,12,Right,19,Male,Yes,English,B,173,1,0,0,180.0,0.0,0.0,424.571,1.0,172.0,5.0,1.13229,0.809048
White,12,Right,19,Male,Yes,English,B,174,0,0,8,0.0,0.0,1.0,798.877,1.0,173.0,5.0,1.19345,0.846071
White,12,Right,19,Male,Yes,English,B,175,0,0,16,0.0,0.0,1.0,596.004,1.0,174.0,5.0,1.12694,0.945806
White,12,Right,19,Male,Yes,English,B,176,0,8,8,0.0,0.0,1.0,648.245,1.0,175.0,5.0,1.05222,0.987081
White,12,Right,19,Male,Yes,English,B,177,0,16,4,180.0,1.0,1.0,1127.85,1.0,176.0,5.0,1.11788,0.810667
White,12,Right,19,Male,Yes,English,B,178,1,8,4,180.0,1.0,1.0,898.301,1.0,177.0,5.0,1.05014,0.86176
White,12,Right,19,Male,Yes,English,B,179,0,0,0,0.0,0.0,1.0,781.61,1.0,178.0,5.0,1.06696,0.815569
White,12,Right,19,Male,Yes,English,B,180,1,4,8,180.0,1.0,1.0,1052.83,1.0,179.0,5.0,1.16844,0.859359
White,12,Right,19,Male,Yes,English,B,181,1,0,4,180.0,1.0,1.0,524.301,1.0,180.0,5.0,1.0159,0.995925
White,12,Right,19,Male,Yes,English,B,182,0,16,0,0.0,0.0,1.0,816.769,1.0,181.0,5.0,1.03275,0.974258
White,12,Right,19,Male,Yes,English,B,183,0,4,4,180.0,1.0,1.0,585.628,1.0,182.0,5.0,1.02432,0.892747
White,12,Right,19,Male,Yes,English,B,184,1,8,16,0.0,0.0,1.0,871.578,1.0,183.0,5.0,1.02456,0.856568
White,12,Right,19,Male,Yes,English,B,185,1,8,8,0.0,0.0,1.0,915.137,1.0,184.0,5.0,1.16922,0.86665
White,12,Right,19,Male,Yes,English,B,186,0,4,16,0.0,0.0,1.0,925.972,1.0,185.0,5.0,1.15766,0.921775
White,12,Right,19,Male,Yes,English,B,187,1,0,16,180.0,1.0,1.0,916.457,1.0,186.0,5.0,1.03695,0.932406
White,12,Right,19,Male,Yes,English,B,188,1,0,8,180.0,1.0,1.0,664.946,1.0,187.0,5.0,1.0071,0.90285
White,12,Right,19,Male,Yes,English,B,189,1,16,4,180.0,1.0,1.0,607.421,1.0,188.0,5.0,1.11252,0.870354
White,12,Right,19,Male,Yes,English,B,190,1,4,4,180.0,1.0,1.0,576.756,1.0,189.0,5.0,1.02777,0.995781
White,12,Right,19,Male,Yes,English,B,191,0,8,0,0.0,0.0,1.0,960.203,1.0,190.0,5.0,1.16334,0.853042
White,12,Right,19,Male,Yes,English,B,192,0,16,16,0.0,0.0,1.0,942.969,1.0,191.0,5.0,1.0581,0.836807
White,12,Right,19,Male,Yes,English,B,193,1,16,8,180.0,1.0,1.0,703.644,1.0,192.0,6.0,1.08325,0.891882
White,12,Right,19,Male,Yes,English,B,194,0,8,0,0.0,0.0,1.0,567.704,1.0,193.0,6.0,1.14249,0.841466
White,12,Right,19,Male,Yes,English,B,195,1,16,0,0.0,0.0,1.0,507.602,1.0,194.0,6.0,1.05213,0.966735
White,12,Right,19,Male,Yes,English,B,196,0,16,16,0.0,0.0,1.0,654.441,1.0,195.0,6.0,1.14113,0.950949
White,12,Right,19,Male,Yes,English,B,197,1,8,16,180.0,1.0,1.0,839.007,1.0,196.0,6.0,1.1833,0.847601
White,12,Right,19,Male,Yes,English,B,198,0,8,4,180.0,0.0,0.0,706.229,1.0,197.0,6.0,1.03208,0.98469
White,12,Right,19,Male,Yes,English,B,199,0,0,16,0.0,0.0,1.0,799.174,1.0,198.0,6.0,1.16252,0.954995
White,12,Right,19,Male,Yes,English,B,200,0,4,8,180.0,1.0,1.0,732.476,1.0,199.0,6.0,1.16443,0.8933
White,12,Right,19,Male,Yes,English,B,201,1,4,0,0.0,0.0,1.0,773.956,1.0,200.0,6.0,1.08695,0.960247
White,12,Right,19,Male,Yes,English,B,202,1,16,4,0.0,0.0,1.0,597.782,1.0,201.0,6.0,1.02225,0.902933
White,12,Right,19,Male,Yes,English,B,203,1,16,16,0.0,0.0,1.0,707.93,1.0,202.0,6.0,1.15684,0.862015
White,12,Right,19,Male,Yes,English,B,204,1,4,8,0.0,0.0,1.0,1068.94,1.0,203.0,6.0,1.19949,0.971853
White,12,Right,19,Male,Yes,English,B,205,1,8,8,0.0,0.0,1.0,508.932,1.0,204.0,6.0,1.06634,0.807196
White,12,Right,19,Male,Yes,English,B,206,0,8,16,180.0,1.0,1.0,808.271,1.0,205.0,6.0,1.07692,0.81104
White,12,Right,19,Male,Yes,English,B,207,1,8,0,180.0,0.0,0.0,777.89,1.0,206.0,6.0,1.00344,0.898565
White,12,Right,19,Male,Yes,English,B,208,0,16,4,0.0,0.0,1.0,946.261,1.0,207.0,6.0,1.04034,0.914891
White,12,Right,19,Male,Yes,English,B,209,0,4,4,0.0,0.0,1.0,582.928,1.0,208.0,6.0,1.11532,0.890753
White,12,Right,19,Male,Yes,English,B,210,0,0,4,0.0,0.0,1.0,569.839,1.0,209.0,6.0,1.02706,0.844317
White,12,Right,19,Male,Yes,English,B,211,1,0,8,180.0,1.0,1.0,864.13,1.0,210.0,6.0,1.10519,0.805166
White,12,Right,19,Male,Yes,English,B,212,0,8,8,180.0,1.0,1.0,623.356,1.0,211.0,6.0,1.02015,0.920967
White,12,Right,19,Male,Yes,English,B,213,0,16,0,180.0,1.0,1.0,1144.51,1.0,212.0,6.0,1.14468,0.904569
White,12,Right,19,Male,Yes,English,B,214,1,4,16,0.0,0.0,1.0,569.537,1.0,213.0,6.0,1.00797,0.883307
White,12,Right,19,Male,Yes,English,B,215,0,16,8,180.0,1.0,1.0,964.139,1.0,214.0,6.0,1.11884,0.981864
White,12,Right,19,Male,Yes,English,B,216,0,4,0,0.0,0.0,1.0,657.216,1.0,215.0,6.0,1.01977,0.857099
White,12,Right,19,Male,Yes,English,B,217,0,0,8,180.0,1.0,1.0,670.134,1.0,216.0,6.0,1.15306,0.956477
White,12,Right,19,Male,Yes,English,B,218,0,4,16,180.0,1.0,1.0,701.03,1.0,217.0,6.0,1.10334,0.945586
White,12,Right,19,Male,Yes,English,B,219,1,4,4,180.0,1.0,1.0,753.988,1.0,218.0,6.0,1.1632,0.935982
White,12,Right,19,Male,Yes,English,B,220,0,0,0,180.0,1.0,1.0,740.333,1.0,219.0,6.0,1.13634,0.851169
White,12,Right,19,Male,Yes,English,B,221,1,0,0,180.0,1.0,1.0,439.974,1.0,220.0,6.0,1.17667,0.853748
White,12,Right,19,Male,Yes,English,B,222,1,8,4,0.0,0.0,1.0,667.414,1.0,221.0,6.0,1.12063,0.84125
White,12,Right,19,Male,Yes,English,B,223,1,0,16,0.0,0.0,1.0,485.238,1.0,222.0,6.0,1.06357,0.885989
White,12,Right,19,Male,Yes,English,B,224,1,0,4,180.0,1.0,1.0,457.826,1.0,223.0,6.0,1.19572,0.830043
White,12,Right,19,Male,Yes,English,B,225,0,4,8,180.0,1.0,1.0,482.061,1.0,224.0,7.0,1.17897,0.842738
White,12,Right,19,Male,Yes,English,B,226,1,16,4,180.0,1.0,1.0,731.173,1.0,225.0,7.0,1.14615,0.820536
White,12,Right,19,Male,Yes,English,B,227,1,8,4,0.0,0.0,1.0,630.801,1.0,226.0,7.0,1.00232,0.892378
White,12,Right,19,Male,Yes,English,B,228,1,0,0,0.0,0.0,1.0,546.946,1.0,227.0,7.0,1.04468,0.92129
White,12,Right,19,Male,Yes,English,B,229,0,16,16,0.0,0.0,1.0,847.003,1.0,228.0,7.0,1.0477,0.9411
White,12,Right,19,Male,Yes,English,B,230,1,0,8,180.0,1.0,1.0,652.262,1.0,229.0,7.0,1.18255,0.848331
White,12,Right,19,Male,Yes,English,B,231,1,4,0,0.0,0.0,1.0,597.44,1.0,230.0,7.0,1.16901,0.980869
White,12,Right,19,Male,Yes,English,B,232,1,0,16,0.0,0.0,1.0,584.97,1.0,231.0,7.0,1.09985,0.888412
White,12,Right,19,Male,Yes,English,B,233,1,16,0,180.0,1.0,1.0,669.322,1.0,232.0,7.0,1.16223,0.876749
White,12,Right,19,Male,Yes,English,B,234,1,0,4,180.0,1.0,1.0,556.766,1.0,233.0,7.0,1.05188,0.883895
White,12,Right,19,Male,Yes,English,B,235,1,4,4,0.0,0.0,1.0,579.77,1.0,234.0,7.0,1.07734,0.830033
White,12,Right,19,Male,Yes,English,B,236,0,8,8,0.0,0.0,1.0,746.775,1.0,235.0,7.0,1.11745,0.981397
White,12,Right,19,Male,Yes,English,B,237,0,16,0,180.0,1.0,1.0,582.431,1.0,236.0,7.0,1.15591,0.906377
White,12,Right,19,Male,Yes,English,B,238,1,8,0,180.0,1.0,1.0,863.411,1.0,237.0,7.0,1.10746,0.802373
White,12,Right,19,Male,Yes,English,B,239,0,4,16,0.0,0.0,1.0,845.027,1.0,238.0,7.0,1.14461,0.885988
White,12,Right,19,Male,Yes,English,B,240,1,8,8,180.0,0.0,0.0,687.04,1.0,239.0,7.0,1.15351,0.997399
White,12,Right,19,Male,Yes,English,B,241,0,8,0,0.0,0.0,1.0,638.83,1.0,240.0,7.0,1.1413,0.837237
White,12,Right,19,Male,Yes,English,B,242,1,4,8,180.0,1.0,1.0,807.168,1.0,241.0,7.0,1.17792,0.924552
White,12,Right,19,Male,Yes,English,B,243,0,0,8,180.0,1.0,1.0,618.789,1.0,242.0,7.0,1.12211,0.984267
White,12,Right,19,Male,Yes,English,B,244,0,0,0,0.0,0.0,1.0,552.882,1.0,243.0,7.0,1.17253,0.860693
White,12,Right,19,Male,Yes,English,B,245,1,16,8,0.0,0.0,1.0,987.505,1.0,244.0,7.0,1.03431,0.975141
White,12,Right,19,Male,Yes,English,B,246,1,16,16,0.0,0.0,1.0,578.51,1.0,245.0,7.0,1.12666,0.945796
White,12,Right,19,Male,Yes,English,B,247,0,8,16,0.0,0.0,1.0,572.572,1.0,246.0,7.0,1.00508,0.927761
White,12,Right,19,Male,Yes,English,B,248,0,0,4,0.0,0.0,1.0,723.073,1.0,247.0,7.0,1.10586,0.89449
White,12,Right,19,Male,Yes,English,B,249,0,0,16,0.0,0.0,1.0,824.112,1.0,248.0,7.0,1.07378,0.960796
White,12,Right,19,Male,Yes,English,B,250,1,4,16,180.0,1.0,1.0,896.514,1.0,249.0,7.0,1.0181,0.838761
White,12,Right,19,Male,Yes,English,B,251,0,4,4,180.0,1.0,1.0,1019.59,1.0,250.0,7.0,1.1303,0.988669
White,12,Right,19,Male,Yes,English,B,252,0,8,4,180.0,1.0,1.0,777.003,1.0,251.0,7.0,1.13094,0.808441
White,12,Right,19,Male,Yes,English,B,253,0,4,0,180.0,1.0,1.0,420.722,1.0,252.0,7.0,1.16444,0.971708
White,12,Right,19,Male,Yes,English,B,254,0,16,8,180.0,0.0,0.0,1250.67,1.0,253.0,7.0,1.12778,0.890939
White,12,Right,19,Male,Yes,English,B,255,1,8,16,0.0,0.0,1.0,891.884,1.0,254.0,7.0,1.13247,0.905616
White,12,Right,19,Male,Yes,English,B,256,0,16,4,180.0,1.0,1.0,595.165,1.0,255.0,7.0,1.01563,0.961334
White,12,Right,19,Male,Yes,English,B,257,1,16,4,0.0,0.0,1.0,662.321,1.0,256.0,8.0,1.19147,0.824231
White,12,Right,19,Male,Yes,English,B,258,1,8,16,180.0,1.0,1.0,515.558,1.0,257.0,8.0,1.00911,0.873656
White,12,Right,19,Male,Yes,English,B,259,0,16,0,0.0,0.0,1.0,839.364,1.0,258.0,8.0,1.18198,0.850885
White,12,Right,19,Male,Yes,English,B,260,1,8,0,180.0,1.0,1.0,697.424,1.0,259.0,8.0,1.16856,0.826404
White,12,Right,19,Male,Yes,English,B,261,1,4,16,180.0,1.0,1.0,767.617,1.0,260.0,8.0,1.11597,0.926024
White,12,Right,19,Male,Yes,English,B,262,0,0,0,180.0,0.0,0.0,543.883,1.0,261.0,8.0,1.01356,0.831562
White,12,Right,19,Male,Yes,English,B,263,1,0,8,0.0,0.0,1.0,567.168,1.0,262.0,8.0,1.17453,0.995808
White,12,Right,19,Male,Yes,English,B,264,0,0,16,180.0,1.0,1.0,796.794,1.0,263.0,8.0,1.05518,0.881656
White,12,Right,19,Male,Yes,English,B,265,0,4,8,180.0,1.0,1.0,705.114,1.0,264.0,8.0,1.02302,0.86425
White,12,Right,19,Male,Yes,English,B,266,0,4,16,0.0,0.0,1.0,656.301,1.0,265.0,8.0,1.17582,0.845101
White,12,Right,19,Male,Yes,English,B,267,1,16,16,180.0,1.0,1.0,520.045,1.0,266.0,8.0,1.01373,0.823405
White,12,Right,19,Male,Yes,English,B,268,0,8,4,180.0,1.0,1.0,648.283,1.0,267.0,8.0,1.12469,0.909811
White,12,Right,19,Male,Yes,English,B,269,1,16,8,180.0,1.0,1.0,490.668,1.0,268.0,8.0,1.15987,0.92761
White,12,Right,19,Male,Yes,English,B,270,1,8,8,180.0,1.0,1.0,648.728,1.0,269.0,8.0,1.00908,0.801004
White,12,Right,19,Male,Yes,English,B,271,0,8,8,180.0,1.0,1.0,873.603,1.0,270.0,8.0,1.09223,0.87788
White,12,Right,19,Male,Yes,English,B,272,0,4,0,180.0,1.0,1.0,534.821,1.0,271.0,8.0,1.06648,0.900838
White,12,Right,19,Male,Yes,English,B,273,0,0,8,0.0,1.0,0.0,581.591,1.0,272.0,8.0,1.07277,0.886684
White,12,Right,19,Male,Yes,English,B,274,1,4,8,0.0,0.0,1.0,629.814,1.0,273.0,8.0,1.01204,0.995381
White,12,Right,19,Male,Yes,English,B,275,0,4,4,0.0,0.0,1.0,589.798,1.0,274.0,8.0,1.19955,0.99669
White,12,Right,19,Male,Yes,English,B,276,1,0,16,180.0,1.0,1.0,462.816,1.0,275.0,8.0,1.07874,0.846816
White,12,Right,19,Male,Yes,English,B,277,0,8,16,0.0,0.0,1.0,453.607,1.0,276.0,8.0,1.01517,0.876157
White,12,Right,19,Male,Yes,English,B,278,0,16,8,180.0,1.0,1.0,1110.04,1.0,277.0,8.0,1.08244,0.983876
White,12,Right,19,Male,Yes,English,B,279,0,0,4,0.0,0.0,1.0,632.728,1.0,278.0,8.0,1.06716,0.932196
White,12,Right,19,Male,Yes,English,B,280,1,16,0,180.0,1.0,1.0,720.148,1.0,279.0,8.0,1.03954,0.810594
White,12,Right,19,Male,Yes,English,B,281,0,8,0,180.0,1.0,1.0,510.829,1.0,280.0,8.0,1.10284,0.960937
White,12,Right,19,Male,Yes,English,B,282,1,0,4,0.0,0.0,1.0,528.333,1.0,281.0,8.0,1.17543,0.864881
White,12,Right,19,Male,Yes,English,B,283,1,4,0,0.0,0.0,1.0,790.478,1.0,282.0,8.0,1.10691,0.941631
White,12,Right,19,Male,Yes,English,B,284,1,4,4,0.0,0.0,1.0,581.604,1.0,283.0,8.0,1.19074,0.888686
White,12,Right,19,Male,Yes,English,B,285,1,0,0,0.0,0.0,1.0,407.639,1.0,284.0,8.0,1.03968,0.869735
White,12,Right,19,Male,Yes,English,B,286,1,8,4,0.0,0.0,1.0,744.713,1.0,285.0,8.0,1.01814,0.948744
White,12,Right,19,Male,Yes,English,B,287,0,16,16,0.0,0.0,1.0,1121.76,1.0,286.0,8.0,1.01132,0.968451
White,12,Right,19,Male,Yes,English,B,288,0,16,4,0.0,0.0,1.0,436.339,1.0,287.0,8.0,1.02971,0.916163
White,12,Right,19,Male,Yes,English,B,289,0,4,8,180.0,1.0,1.0,690.201,1.0,288.0,9.0,1.12478,0.82921
White,12,Right,19,Male,Yes,English,B,290,1,0,0,180.0,1.0,1.0,575.658,1.0,289.0,9.0,1.10204,0.857697
White,12,Right,19,Male,Yes,English,B,291,0,16,4,0.0,0.0,1.0,449.756,1.0,290.0,9.0,1.00955,0.89579
White,12,Right,19,Male,Yes,English,B,292,1,16,4,0.0,0.0,1.0,806.893,1.0,291.0,9.0,1.17648,0.880111
White,12,Right,19,Male,Yes,English,B,293,1,8,0,180.0,0.0,0.0,631.124,1.0,292.0,9.0,1.16689,0.918688
White,12,Right,19,Male,Yes,English,B,294,0,4,4,180.0,1.0,1.0,1178.24,1.0,293.0,9.0,1.16736,0.901015
White,12,Right,19,Male,Yes,English,B,295,1,4,8,180.0,1.0,1.0,548.372,1.0,294.0,9.0,1.10367,0.997106
White,12,Right,19,Male,Yes,English,B,296,0,4,0,0.0,0.0,1.0,762.923,1.0,295.0,9.0,1.14573,0.978465
White,12,Right,19,Male,Yes,English,B,297,1,0,16,0.0,0.0,1.0,564.46,1.0,296.0,9.0,1.15732,0.900241
White,12,Right,19,Male,Yes,English,B,298,1,16,0,180.0,1.0,1.0,505.141,1.0,297.0,9.0,1.07862,0.94813
White,12,Right,19,Male,Yes,English,B,299,1,4,4,0.0,0.0,1.0,568.736,1.0,298.0,9.0,1.06129,0.984251
White,12,Right,19,Male,Yes,English,B,300,1,0,8,0.0,0.0,1.0,738.596,1.0,299.0,9.0,1.03456,0.800849
White,12,Right,19,Male,Yes,English,B,301,1,16,8,180.0,1.0,1.0,630.121,1.0,300.0,9.0,1.01774,0.922938
White,12,Right,19,Male,Yes,English,B,302,1,8,8,0.0,0.0,1.0,671.572,1.0,301.0,9.0,1.06886,0.9076
White,12,Right,19,Male,Yes,English,B,303,0,0,16,0.0,0.0,1.0,647.066,1.0,302.0,9.0,1.05922,0.977947
White,12,Right,19,Male,Yes,English,B,304,0,8,16,0.0,0.0,1.0,530.211,1.0,303.0,9.0,1.15887,0.922649
White,12,Right,19,Male,Yes,English,B,305,1,0,4,180.0,1.0,1.0,628.111,1.0,304.0,9.0,1.16371,0.801053
White,12,Right,19,Male,Yes,English,B,306,1,4,16,0.0,0.0,1.0,587.783,1.0,305.0,9.0,1.03098,0.972567
White,12,Right,19,Male,Yes,English,B,307,0,4,16,180.0,0.0,0.0,486.032,1.0,306.0,9.0,1.09641,0.967402
White,12,Right,19,Male,Yes,English,B,308,1,8,16,0.0,0.0,1.0,645.12,1.0,307.0,9.0,1.08072,0.99578
White,12,Right,19,Male,Yes,English,B,309,0,8,0,0.0,0.0,1.0,468.384,1.0,308.0,9.0,1.05039,0.97822
White,12,Right,19,Male,Yes,English,B,310,0,8,4,180.0,0.0,0.0,618.248,1.0,309.0,9.0,1.17775,0.861759
White,12,Right,19,Male,Yes,English,B,311,1,8,4,180.0,1.0,1.0,1038.92,1.0,310.0,9.0,1.10778,0.87867
White,12,Right,19,Male,Yes,English,B,312,0,0,0,0.0,0.0,1.0,619.606,1.0,311.0,9.0,1.12512,0.927221
White,12,Right,19,Male,Yes,English,B,313,0,16,8,0.0,0.0,1.0,718.117,1.0,312.0,9.0,1.18915,0.810259
White,12,Right,19,Male,Yes,English,B,314,0,16,0,0.0,0.0,1.0,918.611,1.0,313.0,9.0,1.00802,0.844881
White,12,Right,19,Male,Yes,English,B,315,0,0,8,0.0,0.0,1.0,558.045,1.0,314.0,9.0,1.01891,0.990631
White,12,Right,19,Male,Yes,English,B,316,1,16,16,180.0,1.0,1.0,628.864,1.0,315.0,9.0,1.17285,0.944032
White,12,Right,19,Male,Yes,English,B,317,0,0,4,180.0,1.0,1.0,637.788,1.0,316.0,9.0,1.16802,0.946051
White,12,Right,19,Male,Yes,English,B,318,0,16,16,180.0,1.0,1.0,1391.22,1.0,317.0,9.0,1.12096,0.837072
White,12,Right,19,Male,Yes,English,B,319,1,4,0,180.0,0.0,0.0,354.754,1.0,318.0,9.0,1.06948,0.912904
White,12,Right,19,Male,Yes,English,B,320,0,8,8,180.0,1.0,1.0,731.206,1.0,319.0,9.0,1.04105,0.875141
White,12,Right,19,Male,Yes,English,B,321,1,0,0,0.0,0.0,1.0,981.421,1.0,320.0,10.0,1.10396,0.930023
White,12,Right,19,Male,Yes,English,B,322,0,4,16,180.0,1.0,1.0,558.536,1.0,321.0,10.0,1.07979,0.854578
White,12,Right,19,Male,Yes,English,B,323,1,4,0,0.0,0.0,1.0,460.235,1.0,322.0,10.0,1.14925,0.849231
White,12,Right,19,Male,Yes,English,B,324,0,16,8,180.0,1.0,1.0,915.632,1.0,323.0,10.0,1.15658,0.937642
White,12,Right,19,Male,Yes,English,B,325,0,8,8,0.0,0.0,1.0,797.141,1.0,324.0,10.0,1.14031,0.940435
White,12,Right,19,Male,Yes,English,B,326,0,0,16,0.0,0.0,1.0,645.837,1.0,325.0,10.0,1.08865,0.932145
White,12,Right,19,Male,Yes,English,B,327,0,16,4,0.0,0.0,1.0,577.132,1.0,326.0,10.0,1.00009,0.858306
White,12,Right,19,Male,Yes,English,B,328,0,16,0,180.0,1.0,1.0,525.977,1.0,327.0,10.0,1.01148,0.846097
White,12,Right,19,Male,Yes,English,B,329,0,8,16,0.0,0.0,1.0,736.831,1.0,328.0,10.0,1.03608,0.982834
White,12,Right,19,Male,Yes,English,B,330,0,4,0,180.0,1.0,1.0,1354.3,1.0,329.0,10.0,1.18573,0.894674
White,12,Right,19,Male,Yes,English,B,331,1,4,4,180.0,1.0,1.0,654.989,1.0,330.0,10.0,1.09271,0.989977
White,12,Right,19,Male,Yes,English,B,332,1,8,0,0.0,0.0,1.0,606.156,1.0,331.0,10.0,1.00092,0.969921
White,12,Right,19,Male,Yes,English,B,333,1,8,8,180.0,1.0,1.0,833.72,1.0,332.0,10.0,1.07546,0.808267
White,12,Right,19,Male,Yes,English,B,334,1,4,8,180.0,1.0,1.0,830.976,1.0,333.0,10.0,1.0399,0.892527
White,12,Right,19,Male,Yes,English,B,335,1,8,4,180.0,1.0,1.0,649.825,1.0,334.0,10.0,1.01678,0.967445
White,12,Right,19,Male,Yes,English,B,336,0,16,16,0.0,0.0,1.0,948.414,1.0,335.0,10.0,1.19279,0.988073
White,12,Right,19,Male,Yes,English,B,337,0,0,0,180.0,1.0,1.0,764.65,1.0,336.0,10.0,1.07575,0.868478
White,12,Right,19,Male,Yes,English,B,338,1,0,8,180.0,1.0,1.0,639.321,1.0,337.0,10.0,1.12905,0.975101
White,12,Right,19,Male,Yes,English,B,339,1,16,4,0.0,0.0,1.0,666.351,1.0,338.0,10.0,1.10085,0.809943
White,12,Right,19,Male,Yes,English,B,340,0,4,4,180.0,1.0,1.0,754.105,1.0,339.0,10.0,1.14529,0.912555
White,12,Right,19,Male,Yes,English,B,341,1,4,16,0.0,0.0,1.0,775.776,1.0,340.0,10.0,1.10581,0.954101
White,12,Right,19,Male,Yes,English,B,342,0,4,8,180.0,1.0,1.0,609.193,1.0,341.0,10.0,1.17922,0.818953
White,12,Right,19,Male,Yes,English,B,343,0,0,8,180.0,1.0,1.0,705.507,1.0,342.0,10.0,1.15376,0.860055
White,12,Right,19,Male,Yes,English,B,344,1,0,16,180.0,1.0,1.0,655.381,1.0,343.0,10.0,1.13263,0.868308
White,12,Right,19,Male,Yes,English,B,345,1,0,4,0.0,0.0,1.0,648.26,1.0,344.0,10.0,1.08483,0.950753
White,12,Right,19,Male,Yes,English,B,346,0,8,0,0.0,0.0,1.0,715.684,1.0,345.0,10.0,1.14747,0.828264
White,12,Right,19,Male,Yes,English,B,347,1,8,16,0.0,0.0,1.0,644.327,1.0,346.0,10.0,1.17222,0.991424
White,12,Right,19,Male,Yes,English,B,348,0,0,4,180.0,1.0,1.0,1742.62,1.0,347.0,10.0,1.09149,0.983815
White,12,Right,19,Male,Yes,English,B,349,0,8,4,180.0,1.0,1.0,663.949,1.0,348.0,10.0,1.13597,0.926937
White,12,Right,19,Male,Yes,English,B,350,1,16,16,0.0,0.0,1.0,708.649,1.0,349.0,10.0,1.12283,0.856338
White,12,Right,19,Male,Yes,English,B,351,1,16,0,0.0,1.0,0.0,613.021,1.0,350.0,10.0,1.05492,0.974985
White,12,Right,19,Male,Yes,English,B,352,1,16,8,0.0,0.0,1.0,1190.24,1.0,351.0,10.0,1.10386,0.917257
White,12,Right,19,Male,Yes,English,B,353,1,8,0,0.0,0.0,1.0,627.741,1.0,352.0,11.0,1.1671,0.974923
White,12,Right,19,Male,Yes,English,B,354,0,0,8,180.0,1.0,1.0,613.392,1.0,353.0,11.0,1.0822,0.929281
White,12,Right,19,Male,Yes,English,B,355,0,8,16,180.0,1.0,1.0,675.75,1.0,354.0,11.0,1.141,0.837455
White,12,Right,19,Male,Yes,English,B,356,0,4,8,180.0,1.0,1.0,555.242,1.0,355.0,11.0,1.12224,0.843748
White,12,Right,19,Male,Yes,English,B,357,0,8,8,180.0,1.0,1.0,514.88,1.0,356.0,11.0,1.17035,0.840891
White,12,Right,19,Male,Yes,English,B,358,1,0,0,0.0,0.0,1.0,726.786,1.0,357.0,11.0,1.179,0.858486
White,12,Right,19,Male,Yes,English,B,359,1,0,16,0.0,0.0,1.0,501.767,1.0,358.0,11.0,1.1588,0.971792
White,12,Right,19,Male,Yes,English,B,360,1,16,4,180.0,0.0,0.0,389.388,1.0,359.0,11.0,1.18036,0.851733
White,12,Right,19,Male,Yes,English,B,361,1,0,8,180.0,1.0,1.0,635.333,1.0,360.0,11.0,1.13067,0.814735
White,12,Right,19,Male,Yes,English,B,362,1,4,16,0.0,0.0,1.0,627.422,1.0,361.0,11.0,1.00108,0.90792
White,12,Right,19,Male,Yes,English,B,363,0,16,0,180.0,1.0,1.0,1050.05,1.0,362.0,11.0,1.17061,0.988995
White,12,Right,19,Male,Yes,English,B,364,1,8,16,0.0,0.0,1.0,724.391,1.0,363.0,11.0,1.04164,0.879232
White,12,Right,19,Male,Yes,English,B,365,1,4,8,0.0,0.0,1.0,587.763,1.0,364.0,11.0,1.15927,0.994952
White,12,Right,19,Male,Yes,English,B,366,0,4,16,0.0,0.0,1.0,372.877,1.0,365.0,11.0,1.05247,0.98331
White,12,Right,19,Male,Yes,English,B,367,0,0,16,180.0,0.0,0.0,628.977,1.0,366.0,11.0,1.09938,0.972336
White,12,Right,19,Male,Yes,English,B,368,1,8,4,180.0,1.0,1.0,526.456,1.0,367.0,11.0,1.01693,0.988239
White,12,Right,19,Male,Yes,English,B,369,0,16,4,180.0,1.0,1.0,638.234,1.0,368.0,11.0,1.11991,0.94077
White,12,Right,19,Male,Yes,English,B,370,0,0,0,0.0,0.0,1.0,472.119,1.0,369.0,11.0,1.16502,0.826061
White,12,Right,19,Male,Yes,English,B,371,1,16,0,0.0,0.0,1.0,749.546,1.0,370.0,11.0,1.18775,0.910195
White,12,Right,19,Male,Yes,English,B,372,0,8,4,0.0,0.0,1.0,910.957,1.0,371.0,11.0,1.15298,0.976802
White,12,Right,19,Male,Yes,English,B,373,0,16,8,180.0,1.0,1.0,749.263,1.0,372.0,11.0,1.18036,0.918906
White,12,Right,19,Male,Yes,English,B,374,1,4,4,180.0,0.0,0.0,855.82,1.0,373.0,11.0,1.0022,0.845378
White,12,Right,19,Male,Yes,English,B,375,1,16,16,0.0,0.0,1.0,925.611,1.0,374.0,11.0,1.17435,0.940181
White,12,Right,19,Male,Yes,English,B,376,0,8,0,0.0,0.0,1.0,680.386,1.0,375.0,11.0,1.08823,0.93556
White,12,Right,19,Male,Yes,English,B,377,0,16,16,180.0,1.0,1.0,1166.32,1.0,376.0,11.0,1.11681,0.845386
White,12,Right,19,Male,Yes,English,B,378,0,4,0,180.0,1.0,1.0,673.79,1.0,377.0,11.0,1.01275,0.99006
White,12,Right,19,Male,Yes,English,B,379,1,16,8,0.0,0.0,1.0,579.142,1.0,378.0,11.0,1.06358,0.896031
White,12,Right,19,Male,Yes,English,B,380,1,8,8,0.0,0.0,1.0,665.548,1.0,379.0,11.0,1.16608,0.822141
White,12,Right,19,Male,Yes,English,B,381,1,4,0,0.0,0.0,1.0,550.776,1.0,380.0,11.0,1.06507,0.916079
White,12,Right,19,Male,Yes,English,B,382,0,4,4,180.0,1.0,1.0,708.41,1.0,381.0,11.0,1.11816,0.899189
White,12,Right,19,Male,Yes,English,B,383,0,0,4,0.0,0.0,1.0,773.57,1.0,382.0,11.0,1.1691,0.916133
White,12,Right,19,Male,Yes,English,B,384,1,0,4,180.0,1.0,1.0,571.272,1.0,383.0,11.0,1.04869,0.925406
White,12,Right,19,Male,Yes,English,B,385,1,4,0,180.0,1.0,1.0,603.62,1.0,384.0,12.0,1.17718,0.86013
White,12,Right,19,Male,Yes,English,B,386,1,0,4,0.0,0.0,1.0,449.059,1.0,385.0,12.0,1.15588,0.934268
White,12,Right,19,Male,Yes,English,B,387,0,0,8,0.0,0.0,1.0,640.152,1.0,386.0,12.0,1.0134,0.985943
White,12,Right,19,Male,Yes,English,B,388,1,8,16,180.0,1.0,1.0,652.0,1.0,387.0,12.0,1.14129,0.862913
White,12,Right,19,Male,Yes,English,B,389,1,4,8,180.0,1.0,1.0,542.828,1.0,388.0,12.0,1.13994,0.833628
White,12,Right,19,Male,Yes,English,B,390,0,4,8,0.0,0.0,1.0,538.719,1.0,389.0,12.0,1.15142,0.850114
White,12,Right,19,Male,Yes,English,B,391,1,16,4,0.0,0.0,1.0,741.56,1.0,390.0,12.0,1.12848,0.875948
White,12,Right,19,Male,Yes,English,B,392,0,16,4,0.0,0.0,1.0,682.153,1.0,391.0,12.0,1.05242,0.844368
White,12,Right,19,Male,Yes,English,B,393,0,0,4,180.0,1.0,1.0,640.661,1.0,392.0,12.0,1.04774,0.883852
White,12,Right,19,Male,Yes,English,B,394,0,8,0,180.0,1.0,1.0,989.335,1.0,393.0,12.0,1.04464,0.933201
White,12,Right,19,Male,Yes,English,B,395,1,16,16,0.0,0.0,1.0,884.989,1.0,394.0,12.0,1.16081,0.977073
White,12,Right,19,Male,Yes,English,B,396,1,8,0,180.0,1.0,1.0,1052.17,1.0,395.0,12.0,1.04962,0.856354
White,12,Right,19,Male,Yes,English,B,397,0,8,16,0.0,0.0,1.0,706.144,1.0,396.0,12.0,1.14479,0.967371
White,12,Right,19,Male,Yes,English,B,398,1,16,0,0.0,0.0,1.0,1055.5,1.0,397.0,12.0,1.11225,0.901178
White,12,Right,19,Male,Yes,English,B,399,1,4,4,0.0,0.0,1.0,537.472,1.0,398.0,12.0,1.01243,0.923404
White,12,Right,19,Male,Yes,English,B,400,1,0,0,0.0,0.0,1.0,528.404,1.0,399.0,12.0,1.16316,0.94931
White,12,Right,19,Male,Yes,English,B,401,1,4,16,180.0,1.0,1.0,707.745,1.0,400.0,12.0,1.05809,0.896496
White,12,Right,19,Male,Yes,English,B,402,0,16,16,180.0,1.0,1.0,775.681,1.0,401.0,12.0,1.10952,0.843088
White,12,Right,19,Male,Yes,English,B,403,0,8,4,0.0,0.0,1.0,780.286,1.0,402.0,12.0,1.13927,0.979734
White,12,Right,19,Male,Yes,English,B,404,1,0,8,180.0,1.0,1.0,608.727,1.0,403.0,12.0,1.05249,0.904782
White,12,Right,19,Male,Yes,English,B,405,1,16,8,0.0,0.0,1.0,839.355,1.0,404.0,12.0,1.167,0.894488
White,12,Right,19,Male,Yes,English,B,406,1,8,8,180.0,1.0,1.0,532.281,1.0,405.0,12.0,1.04399,0.930664
White,12,Right,19,Male,Yes,English,B,407,0,16,8,180.0,1.0,1.0,877.433,1.0,406.0,12.0,1.05493,0.906905
White,12,Right,19,Male,Yes,English,B,408,0,0,0,180.0,1.0,1.0,737.287,1.0,407.0,12.0,1.00569,0.815421
White,12,Right,19,Male,Yes,English,B,409,1,8,4,0.0,0.0,1.0,473.718,1.0,408.0,12.0,1.10573,0.826612
White,12,Right,19,Male,Yes,English,B,410,0,4,4,180.0,1.0,1.0,718.826,1.0,409.0,12.0,1.17868,0.815224
White,12,Right,19,Male,Yes,English,B,411,0,16,0,180.0,1.0,1.0,625.035,1.0,410.0,12.0,1.0071,0.906511
White,12,Right,19,Male,Yes,English,B,412,0,0,16,0.0,0.0,1.0,585.022,1.0,411.0,12.0,1.09737,0.84957
White,12,Right,19,Male,Yes,English,B,413,0,8,8,180.0,1.0,1.0,926.742,1.0,412.0,12.0,1.00152,0.991549
White,12,Right,19,Male,Yes,English,B,414,0,4,16,0.0,0.0,1.0,698.584,1.0,413.0,12.0,1.09956,0.826534
White,12,Right,19,Male,Yes,English,B,415,1,0,16,0.0,0.0,1.0,934.947,1.0,414.0,12.0,1.06842,0.963548
White,12,Right,19,Male,Yes,English,B,416,0,4,0,180.0,1.0,1.0,887.844,1.0,415.0,12.0,1.14928,0.941289
White,12,Right,19,Male,Yes,English,B,417,1,16,4,0.0,0.0,1.0,867.249,1.0,416.0,13.0,1.12623,0.86092
White,12,Right,19,Male,Yes,English,B,418,0,8,8,180.0,1.0,1.0,819.94,1.0,417.0,13.0,1.04349,0.887812
White,12,Right,19,Male,Yes,English,B,419,1,0,4,0.0,0.0,1.0,856.137,1.0,418.0,13.0,1.02509,0.845939
White,12,Right,19,Male,Yes,English,B,420,0,16,4,0.0,0.0,1.0,1059.74,1.0,419.0,13.0,1.16092,0.812494
White,12,Right,19,Male,Yes,English,B,421,0,8,0,0.0,0.0,1.0,797.718,1.0,420.0,13.0,1.14216,0.922261
White,12,Right,19,Male,Yes,English,B,422,1,8,16,0.0,0.0,1.0,1129.25,1.0,421.0,13.0,1.03773,0.801806
White,12,Right,19,Male,Yes,English,B,423,0,8,16,180.0,1.0,1.0,579.66,1.0,422.0,13.0,1.006,0.916786
White,12,Right,19,Male,Yes,English,B,424,0,0,16,180.0,1.0,1.0,474.431,1.0,423.0,13.0,1.00252,0.892495
White,12,Right,19,Male,Yes,English,B,425,1,0,0,180.0,1.0,1.0,504.658,1.0,424.0,13.0,1.19917,0.974824
White,12,Right,19,Male,Yes,English,B,426,1,8,0,180.0,0.0,0.0,802.489,1.0,425.0,13.0,1.04206,0.868036
White,12,Right,19,Male,Yes,English,B,427,0,8,4,0.0,1.0,0.0,678.696,1.0,426.0,13.0,1.10247,0.856925
White,12,Right,19,Male,Yes,English,B,428,0,16,16,180.0,1.0,1.0,991.37,1.0,427.0,13.0,1.08061,0.833827
White,12,Right,19,Male,Yes,English,B,429,1,16,8,0.0,0.0,1.0,1086.14,1.0,428.0,13.0,1.16633,0.94018
White,12,Right,19,Male,Yes,English,B,430,0,4,4,180.0,1.0,1.0,579.409,1.0,429.0,13.0,1.11782,0.840007
White,12,Right,19,Male,Yes,English,B,431,0,4,16,180.0,1.0,1.0,730.923,1.0,430.0,13.0,1.08352,0.904297
White,12,Right,19,Male,Yes,English,B,432,1,16,0,0.0,0.0,1.0,849.62,1.0,431.0,13.0,1.13713,0.898369
White,12,Right,19,Male,Yes,English,B,433,0,16,8,180.0,1.0,1.0,678.757,1.0,432.0,13.0,1.00414,0.899629
White,12,Right,19,Male,Yes,English,B,434,1,8,8,0.0,0.0,1.0,547.977,1.0,433.0,13.0,1.04485,0.814158
White,12,Right,19,Male,Yes,English,B,435,1,4,4,180.0,1.0,1.0,743.899,1.0,434.0,13.0,1.08078,0.953697
White,12,Right,19,Male,Yes,English,B,436,0,0,8,180.0,1.0,1.0,1540.88,1.0,435.0,13.0,1.16072,0.872046
White,12,Right,19,Male,Yes,English,B,437,1,4,0,180.0,1.0,1.0,613.077,1.0,436.0,13.0,1.17114,0.911156
White,12,Right,19,Male,Yes,English,B,438,1,4,8,180.0,1.0,1.0,579.284,1.0,437.0,13.0,1.1075,0.915348
White,12,Right,19,Male,Yes,English,B,439,1,0,16,180.0,1.0,1.0,885.481,1.0,438.0,13.0,1.16291,0.805145
White,12,Right,19,Male,Yes,English,B,440,0,4,0,180.0,1.0,1.0,755.791,1.0,439.0,13.0,1.08978,0.923405
White,12,Right,19,Male,Yes,English,B,441,0,16,0,0.0,0.0,1.0,872.714,1.0,440.0,13.0,1.12787,0.888104
White,12,Right,19,Male,Yes,English,B,442,1,0,8,180.0,1.0,1.0,683.075,1.0,441.0,13.0,1.19909,0.911956
White,12,Right,19,Male,Yes,English,B,443,0,0,4,0.0,0.0,1.0,641.885,1.0,442.0,13.0,1.12963,0.939595
White,12,Right,19,Male,Yes,English,B,444,0,4,8,0.0,0.0,1.0,697.569,1.0,443.0,13.0,1.19172,0.944271
White,12,Right,19,Male,Yes,English,B,445,0,0,0,0.0,0.0,1.0,634.093,1.0,444.0,13.0,1.16347,0.92643
White,12,Right,19,Male,Yes,English,B,446,1,16,16,0.0,0.0,1.0,661.35,1.0,445.0,13.0,1.09947,0.993049
White,12,Right,19,Male,Yes,English,B,447,1,4,16,0.0,0.0,1.0,869.101,1.0,446.0,13.0,1.1906,0.901714
White,12,Right,19,Male,Yes,English,B,448,1,8,4,0.0,0.0,1.0,537.432,1.0,447.0,13.0,1.06755,0.893262
White,12,Right,19,Male,Yes,English,B,449,0,8,0,180.0,1.0,1.0,970.253,1.0,448.0,14.0,1.18,0.831224
White,12,Right,19,Male,Yes,English,B,450,0,4,8,180.0,1.0,1.0,831.752,1.0,449.0,14.0,1.01386,0.919867
White,12,Right,19,Male,Yes,English,B,451,0,4,16,180.0,1.0,1.0,1133.84,1.0,450.0,14.0,1.07064,0.838959
White,12,Right,19,Male,Yes,English,B,452,0,0,16,0.0,0.0,1.0,627.479,1.0,451.0,14.0,1.00085,0.811958
White,12,Right,19,Male,Yes,English,B,453,0,16,4,0.0,0.0,1.0,1089.67,1.0,452.0,14.0,1.19813,0.801764
White,12,Right,19,Male,Yes,English,B,454,0,4,0,0.0,0.0,1.0,620.933,1.0,453.0,14.0,1.05966,0.926992
White,12,Right,19,Male,Yes,English,B,455,0,16,0,0.0,0.0,1.0,1152.88,1.0,454.0,14.0,1.15637,0.846844
White,12,Right,19,Male,Yes,English,B,456,0,0,0,180.0,1.0,1.0,1018.84,1.0,455.0,14.0,1.08929,0.931769
White,12,Right,19,Male,Yes,English,B,457,1,16,8,0.0,0.0,1.0,982.823,1.0,456.0,14.0,1.00041,0.916154
White,12,Right,19,Male,Yes,English,B,458,1,0,8,0.0,0.0,1.0,495.03,1.0,457.0,14.0,1.11624,0.865376
White,12,Right,19,Male,Yes,English,B,459,0,0,4,0.0,0.0,1.0,753.177,1.0,458.0,14.0,1.16818,0.989288
White,12,Right,19,Male,Yes,English,B,460,1,16,16,0.0,0.0,1.0,1163.55,1.0,459.0,14.0,1.08758,0.918824
White,12,Right,19,Male,Yes,English,B,461,1,4,8,0.0,0.0,1.0,766.619,1.0,460.0,14.0,1.09929,0.9827
White,12,Right,19,Male,Yes,English,B,462,1,8,4,180.0,1.0,1.0,853.966,1.0,461.0,14.0,1.06635,0.891484
White,12,Right,19,Male,Yes,English,B,463,1,0,0,0.0,0.0,1.0,835.057,1.0,462.0,14.0,1.04328,0.882126
White,12,Right,19,Male,Yes,English,B,464,1,16,0,0.0,0.0,1.0,994.099,1.0,463.0,14.0,1.13464,0.964041
White,12,Right,19,Male,Yes,English,B,465,0,8,4,0.0,0.0,1.0,704.041,1.0,464.0,14.0,1.01762,0.916157
White,12,Right,19,Male,Yes,English,B,466,1,8,0,180.0,1.0,1.0,903.173,1.0,465.0,14.0,1.14498,0.875774
White,12,Right,19,Male,Yes,English,B,467,0,4,4,0.0,0.0,1.0,509.822,1.0,466.0,14.0,1.13254,0.823497
White,12,Right,19,Male,Yes,English,B,468,0,0,8,180.0,0.0,0.0,698.373,1.0,467.0,14.0,1.04169,0.827844
White,12,Right,19,Male,Yes,English,B,469,0,8,8,0.0,0.0,1.0,962.922,1.0,468.0,14.0,1.03058,0.832251
White,12,Right,19,Male,Yes,English,B,470,1,4,4,180.0,1.0,1.0,669.407,1.0,469.0,14.0,1.04854,0.868938
White,12,Right,19,Male,Yes,English,B,471,1,16,4,180.0,1.0,1.0,1332.05,1.0,470.0,14.0,1.0168,0.976214
White,12,Right,19,Male,Yes,English,B,472,1,0,16,0.0,0.0,1.0,548.288,1.0,471.0,14.0,1.02875,0.905655
White,12,Right,19,Male,Yes,English,B,473,1,8,16,180.0,1.0,1.0,938.261,1.0,472.0,14.0,1.14043,0.898162
White,12,Right,19,Male,Yes,English,B,474,0,8,16,180.0,1.0,1.0,649.597,1.0,473.0,14.0,1.08842,0.86822
White,12,Right,19,Male,Yes,English,B,475,1,4,0,180.0,1.0,1.0,681.267,1.0,474.0,14.0,1.08013,0.985809
White,12,Right,19,Male,Yes,English,B,476,0,16,8,180.0,1.0,1.0,1187.73,1.0,475.0,14.0,1.11628,0.884264
White,12,Right,19,Male,Yes,English,B,477,0,16,16,180.0,1.0,1.0,947.25,1.0,476.0,14.0,1.06224,0.84954
White,12,Right,19,Male,Yes,English,B,478,1,8,8,180.0,1.0,1.0,919.38,1.0,477.0,14.0,1.03676,0.978395
White,12,Right,19,Male,Yes,English,B,479,1,4,16,180.0,1.0,1.0,757.679,1.0,478.0,14.0,1.15776,0.823565
White,12,Right,19,Male,Yes,English,B,480,1,0,4,0.0,0.0,1.0,671.161,1.0,479.0,14.0,1.08567,0.948352
White,12,Right,19,Male,Yes,English,B,481,0,16,16,180.0,1.0,1.0,1137.66,1.0,480.0,15.0,1.08502,0.97586
White,12,Right,19,Male,Yes,English,B,482,0,0,0,0.0,0.0,1.0,697.39,1.0,481.0,15.0,1.04869,0.906612
White,12,Right,19,Male,Yes,English,B,483,0,8,4,180.0,1.0,1.0,693.012,1.0,482.0,15.0,1.18633,0.970403
White,12,Right,19,Male,Yes,English,B,484,0,16,0,180.0,1.0,1.0,746.823,1.0,483.0,15.0,1.13591,0.94888
White,12,Right,19,Male,Yes,English,B,485,1,8,8,180.0,1.0,1.0,741.861,1.0,484.0,15.0,1.02464,0.909097
White,12,Right,19,Male,Yes,English,B,486,0,8,16,0.0,1.0,0.0,469.814,1.0,485.0,15.0,1.02622,0.895562
White,12,Right,19,Male,Yes,English,B,487,0,16,4,0.0,0.0,1.0,579.042,1.0,486.0,15.0,1.1656,0.987793
White,12,Right,19,Male,Yes,English,B,488,1,0,16,0.0,0.0,1.0,1084.72,1.0,487.0,15.0,1.17022,0.925219
White,12,Right,19,Male,Yes,English,B,489,0,4,4,180.0,1.0,1.0,529.023,1.0,488.0,15.0,1.05939,0.80202
White,12,Right,19,Male,Yes,English,B,490,1,0,4,180.0,1.0,1.0,781.271,1.0,489.0,15.0,1.04741,0.809934
White,12,Right,19,Male,Yes,English,B,491,1,0,8,180.0,1.0,1.0,822.63,1.0,490.0,15.0,1.17135,0.929985
White,12,Right,19,Male,Yes,English,B,492,1,8,16,0.0,0.0,1.0,967.304,1.0,491.0,15.0,1.06886,0.905686
White,12,Right,19,Male,Yes,English,B,493,1,4,16,0.0,0.0,1.0,653.322,1.0,492.0,15.0,1.06787,0.846085
White,12,Right,19,Male,Yes,English,B,494,0,16,8,0.0,0.0,1.0,1150.4,1.0,493.0,15.0,1.07394,0.964266
White,12,Right,19,Male,Yes,English,B,495,0,8,0,180.0,1.0,1.0,934.413,1.0,494.0,15.0,1.02405,0.806333
White,12,Right,19,Male,Yes,English,B,496,0,8,8,180.0,1.0,1.0,713.425,1.0,495.0,15.0,1.1125,0.876236
White,12,Right,19,Male,Yes,English,B,497,1,4,8,180.0,1.0,1.0,766.729,1.0,496.0,15.0,1.00414,0.838076
White,12,Right,19,Male,Yes,English,B,498,1,16,8,0.0,0.0,1.0,799.254,1.0,497.0,15.0,1.19215,0.981371
White,12,Right,19,Male,Yes,English,B,499,1,16,4,0.0,0.0,1.0,1220.05,1.0,498.0,15.0,1.11074,0.811845
White,12,Right,19,Male,Yes,English,B,500,1,16,0,0.0,0.0,1.0,966.022,1.0,499.0,15.0,1.15907,0.869513
White,12,Right,19,Male,Yes,English,B,501,0,4,16,0.0,0.0,1.0,748.031,1.0,500.0,15.0,1.05652,0.999821
White,12,Right,19,Male,Yes,English,B,502,0,0,8,0.0,0.0,1.0,422.15,1.0,501.0,15.0,1.13131,0.857399
White,12,Right,19,Male,Yes,English,B,503,1,4,4,180.0,0.0,0.0,654.57,1.0,502.0,15.0,1.17132,0.999793
White,12,Right,19,Male,Yes,English,B,504,1,0,0,180.0,1.0,1.0,551.46,1.0,503.0,15.0,1.02539,0.923031
White,12,Right,19,Male,Yes,English,B,505,1,8,4,0.0,0.0,1.0,1460.58,1.0,504.0,15.0,1.12434,0.958544
White,12,Right,19,Male,Yes,English,B,506,1,8,0,180.0,1.0,1.0,939.985,1.0,505.0,15.0,1.18735,0.981556
White,12,Right,19,Male,Yes,English,B,507,0,4,8,0.0,0.0,1.0,624.506,1.0,506.0,15.0,1.03603,0.880614
White,12,Right,19,Male,Yes,English,B,508,1,16,16,0.0,0.0,1.0,1030.62,1.0,507.0,15.0,1.0455,0.969562
White,12,Right,19,Male,Yes,English,B,509,1,4,0,180.0,1.0,1.0,626.678,1.0,508.0,15.0,1.00534,0.829896
White,12,Right,19,Male,Yes,English,B,510,0,4,0,180.0,1.0,1.0,608.027,1.0,509.0,15.0,1.15535,0.934419
White,12,Right,19,Male,Yes,English,B,511,0,0,4,0.0,1.0,0.0,345.264,1.0,510.0,15.0,1.17626,0.897041
White,12,Right,19,Male,Yes,English,B,512,0,0,16,180.0,1.0,1.0,622.662,1.0,511.0,15.0,1.18787,0.827692
White,12,Right,19,Male,Yes,English,B,513,0,0,16,180.0,1.0,1.0,845.877,1.0,512.0,16.0,1.0055,0.827976
White,12,Right,19,Male,Yes,English,B,514,0,8,0,0.0,0.0,1.0,667.256,1.0,513.0,16.0,1.12223,0.957931
White,12,Right,19,Male,Yes,English,B,515,0,4,0,180.0,1.0,1.0,605.395,1.0,514.0,16.0,1.16889,0.916946
White,12,Right,19,Male,Yes,English,B,516,1,16,4,0.0,0.0,1.0,1020.03,1.0,515.0,16.0,1.01008,0.988126
White,12,Right,19,Male,Yes,English,B,517,0,4,8,0.0,0.0,1.0,690.55,1.0,516.0,16.0,1.08315,0.999043
White,12,Right,19,Male,Yes,English,B,518,1,0,8,180.0,1.0,1.0,583.403,1.0,517.0,16.0,1.14604,0.815457
White,12,Right,19,Male,Yes,English,B,519,0,8,8,0.0,0.0,1.0,694.53,1.0,518.0,16.0,1.14269,0.972269
White,12,Right,19,Male,Yes,English,B,520,1,0,16,180.0,1.0,1.0,582.759,1.0,519.0,16.0,1.00743,0.803473
White,12,Right,19,Male,Yes,English,B,521,0,16,16,0.0,0.0,1.0,617.518,1.0,520.0,16.0,1.13784,0.825356
White,12,Right,19,Male,Yes,English,B,522,0,16,8,0.0,0.0,1.0,659.924,1.0,521.0,16.0,1.06826,0.988911
White,12,Right,19,Male,Yes,English,B,523,0,4,16,180.0,1.0,1.0,632.997,1.0,522.0,16.0,1.02354,0.847134
White,12,Right,19,Male,Yes,English,B,524,0,16,0,180.0,1.0,1.0,813.069,1.0,523.0,16.0,1.15513,0.988504
White,12,Right,19,Male,Yes,English,B,525,0,0,8,0.0,0.0,1.0,641.571,1.0,524.0,16.0,1.11997,0.887088
White,12,Right,19,Male,Yes,English,B,526,0,8,16,0.0,0.0,1.0,1129.05,1.0,525.0,16.0,1.178,0.996426
White,12,Right,19,Male,Yes,English,B,527,1,4,4,180.0,1.0,1.0,1099.12,1.0,526.0,16.0,1.13519,0.880542
White,12,Right,19,Male,Yes,English,B,528,0,0,4,180.0,1.0,1.0,786.721,1.0,527.0,16.0,1.00459,0.938935
White,12,Right,19,Male,Yes,English,B,529,1,4,16,0.0,0.0,1.0,872.69,1.0,528.0,16.0,1.04505,0.881318
White,12,Right,19,Male,Yes,English,B,530,0,8,4,180.0,1.0,1.0,692.429,1.0,529.0,16.0,1.17125,0.965919
White,12,Right,19,Male,Yes,English,B,531,1,16,0,180.0,1.0,1.0,897.757,1.0,530.0,16.0,1.101,0.88664
White,12,Right,19,Male,Yes,English,B,532,0,16,4,180.0,1.0,1.0,876.436,1.0,531.0,16.0,1.03042,0.864218
White,12,Right,19,Male,Yes,English,B,533,1,16,16,180.0,1.0,1.0,725.656,1.0,532.0,16.0,1.00487,0.933826
White,12,Right,19,Male,Yes,English,B,534,1,8,4,0.0,0.0,1.0,1101.06,1.0,533.0,16.0,1.07425,0.831351
White,12,Right,19,Male,Yes,English,B,535,1,16,8,180.0,1.0,1.0,548.074,1.0,534.0,16.0,1.1163,0.80882
White,12,Right,19,Male,Yes,English,B,536,1,8,0,0.0,0.0,1.0,688.421,1.0,535.0,16.0,1.09164,0.950584
White,12,Right,19,Male,Yes,English,B,537,1,0,4,0.0,0.0,1.0,632.565,1.0,536.0,16.0,1.05436,0.975857
White,12,Right,19,Male,Yes,English,B,538,1,0,0,0.0,0.0,1.0,661.12,1.0,537.0,16.0,1.04498,0.884911
White,12,Right,19,Male,Yes,English,B,539,0,0,0,0.0,0.0,1.0,474.899,1.0,538.0,16.0,1.04757,0.931157
White,12,Right,19,Male,Yes,English,B,540,1,4,8,180.0,1.0,1.0,727.233,1.0,539.0,16.0,1.01659,0.930287
White,12,Right,19,Male,Yes,English,B,541,1,4,0,0.0,0.0,1.0,943.97,1.0,540.0,16.0,1.14424,0.88764
White,12,Right,19,Male,Yes,English,B,542,0,4,4,180.0,1.0,1.0,1069.5,1.0,541.0,16.0,1.19773,0.929484
White,12,Right,19,Male,Yes,English,B,543,1,8,8,0.0,0.0,1.0,922.54,1.0,542.0,16.0,1.01867,0.924083
White,12,Right,19,Male,Yes,English,B,544,1,8,16,180.0,1.0,1.0,543.238,1.0,543.0,16.0,1.05431,0.919693
White,12,Right,19,Male,Yes,English,B,545,0,4,8,180.0,1.0,1.0,670.142,1.0,544.0,17.0,1.1683,0.937028
White,12,Right,19,Male,Yes,English,B,546,1,8,4,0.0,0.0,1.0,724.508,1.0,545.0,17.0,1.05096,0.912763
White,12,Right,19,Male,Yes,English,B,547,1,4,0,180.0,1.0,1.0,1116.92,1.0,546.0,17.0,1.01681,0.947088
White,12,Right,19,Male,Yes,English,B,548,0,8,8,180.0,1.0,1.0,705.801,1.0,547.0,17.0,1.04487,0.992717
White,12,Right,19,Male,Yes,English,B,549,1,4,16,0.0,0.0,1.0,771.104,1.0,548.0,17.0,1.04431,0.8465
White,12,Right,19,Male,Yes,English,B,550,0,16,8,180.0,1.0,1.0,991.961,1.0,549.0,17.0,1.12213,0.951686
White,12,Right,19,Male,Yes,English,B,551,0,4,4,180.0,1.0,1.0,710.132,1.0,550.0,17.0,1.13766,0.835396
White,12,Right,19,Male,Yes,English,B,552,1,16,0,180.0,1.0,1.0,1033.31,1.0,551.0,17.0,1.00057,0.804677
White,12,Right,19,Male,Yes,English,B,553,0,0,4,180.0,1.0,1.0,572.522,1.0,552.0,17.0,1.05718,0.854938
White,12,Right,19,Male,Yes,English,B,554,0,4,16,0.0,0.0,1.0,646.87,1.0,553.0,17.0,1.12483,0.964128
White,12,Right,19,Male,Yes,English,B,555,0,0,16,180.0,1.0,1.0,563.541,1.0,554.0,17.0,1.09384,0.901083
White,12,Right,19,Male,Yes,English,B,556,1,0,16,180.0,1.0,1.0,626.88,1.0,555.0,17.0,1.08895,0.939763
White,12,Right,19,Male,Yes,English,B,557,1,4,4,0.0,0.0,1.0,703.857,1.0,556.0,17.0,1.12505,0.927391
White,12,Right,19,Male,Yes,English,B,558,0,16,0,180.0,1.0,1.0,874.746,1.0,557.0,17.0,1.19557,0.902769
White,12,Right,19,Male,Yes,English,B,559,1,8,8,0.0,0.0,1.0,649.557,1.0,558.0,17.0,1.01047,0.915323
White,12,Right,19,Male,Yes,English,B,560,1,8,0,0.0,0.0,1.0,888.865,1.0,559.0,17.0,1.09639,0.940233
White,12,Right,19,Male,Yes,English,B,561,1,16,16,180.0,1.0,1.0,1401.14,1.0,560.0,17.0,1.07989,0.958088
White,12,Right,19,Male,Yes,English,B,562,0,0,8,0.0,0.0,1.0,1041.66,1.0,561.0,17.0,1.14649,0.987238
White,12,Right,19,Male,Yes,English,B,563,0,0,0,0.0,0.0,1.0,528.893,1.0,562.0,17.0,1.07452,0.877011
White,12,Right,19,Male,Yes,English,B,564,0,8,0,0.0,0.0,1.0,673.267,1.0,563.0,17.0,1.06065,0.805995
White,12,Right,19,Male,Yes,English,B,565,0,4,0,0.0,0.0,1.0,754.997,1.0,564.0,17.0,1.1173,0.890608
White,12,Right,19,Male,Yes,English,B,566,1,4,8,180.0,1.0,1.0,1016.01,1.0,565.0,17.0,1.19472,0.815002
White,12,Right,19,Male,Yes,English,B,567,1,0,8,0.0,0.0,1.0,676.112,1.0,566.0,17.0,1.14852,0.89419
White,12,Right,19,Male,Yes,English,B,568,0,8,16,180.0,0.0,0.0,672.029,1.0,567.0,17.0,1.14316,0.894354
White,12,Right,19,Male,Yes,English,B,569,1,8,16,180.0,1.0,1.0,742.743,1.0,568.0,17.0,1.14893,0.835357
White,12,Right,19,Male,Yes,English,B,570,1,16,4,0.0,0.0,1.0,1163.58,1.0,569.0,17.0,1.02839,0.8791
White,12,Right,19,Male,Yes,English,B,571,1,16,8,0.0,0.0,1.0,1002.26,1.0,570.0,17.0,1.05752,0.868998
White,12,Right,19,Male,Yes,English,B,572,0,16,4,0.0,0.0,1.0,757.051,1.0,571.0,17.0,1.06821,0.954509
White,12,Right,19,Male,Yes,English,B,573,1,0,4,0.0,0.0,1.0,722.416,1.0,572.0,17.0,1.15453,0.938598
White,12,Right,19,Male,Yes,English,B,574,0,8,4,180.0,1.0,1.0,973.852,1.0,573.0,17.0,1.01383,0.98459
White,12,Right,19,Male,Yes,English,B,575,1,0,0,180.0,1.0,1.0,846.886,1.0,574.0,17.0,1.00898,0.846293
White,12,Right,19,Male,Yes,English,B,576,0,16,16,0.0,0.0,1.0,668.971,1.0,575.0,17.0,1.16766,0.830133
White,12,Right,19,Male,Yes,English,B,577,0,0,8,0.0,0.0,1.0,923.942,1.0,576.0,18.0,1.18762,0.887499
White,12,Right,19,Male,Yes,English,B,578,1,16,16,180.0,1.0,1.0,692.626,1.0,577.0,18.0,1.08564,0.89465
White,12,Right,19,Male,Yes,English,B,579,1,8,16,180.0,1.0,1.0,590.081,1.0,578.0,18.0,1.0178,0.911934
White,12,Right,19,Male,Yes,English,B,580,0,0,4,0.0,0.0,1.0,717.439,1.0,579.0,18.0,1.19617,0.804238
White,12,Right,19,Male,Yes,English,B,581,0,16,0,0.0,0.0,1.0,1204.13,1.0,580.0,18.0,1.07285,0.91552
White,12,Right,19,Male,Yes,English,B,582,1,0,4,180.0,1.0,1.0,1239.83,1.0,581.0,18.0,1.00588,0.844631
White,12,Right,19,Male,Yes,English,B,583,1,16,4,180.0,1.0,1.0,880.364,1.0,582.0,18.0,1.16686,0.961604
White,12,Right,19,Male,Yes,English,B,584,0,4,16,180.0,1.0,1.0,953.531,1.0,583.0,18.0,1.15601,0.824154
White,12,Right,19,Male,Yes,English,B,585,1,8,8,0.0,0.0,1.0,807.998,1.0,584.0,18.0,1.05019,0.904971
White,12,Right,19,Male,Yes,English,B,586,0,4,0,0.0,0.0,1.0,847.065,1.0,585.0,18.0,1.12835,0.989194
White,12,Right,19,Male,Yes,English,B,587,1,0,8,0.0,0.0,1.0,591.412,1.0,586.0,18.0,1.03915,0.970851
White,12,Right,19,Male,Yes,English,B,588,0,8,8,180.0,1.0,1.0,659.872,1.0,587.0,18.0,1.17853,0.880549
White,12,Right,19,Male,Yes,English,B,589,1,4,8,0.0,0.0,1.0,824.449,1.0,588.0,18.0,1.13973,0.928278
White,12,Right,19,Male,Yes,English,B,590,1,0,0,0.0,0.0,1.0,588.904,1.0,589.0,18.0,1.12223,0.9506
White,12,Right,19,Male,Yes,English,B,591,0,0,16,180.0,1.0,1.0,647.007,1.0,590.0,18.0,1.06192,0.828181
White,12,Right,19,Male,Yes,English,B,592,0,16,16,180.0,1.0,1.0,915.568,1.0,591.0,18.0,1.19215,0.985844
White,12,Right,19,Male,Yes,English,B,593,0,4,8,0.0,0.0,1.0,971.501,1.0,592.0,18.0,1.06378,0.920669
White,12,Right,19,Male,Yes,English,B,594,1,8,4,0.0,0.0,1.0,678.892,1.0,593.0,18.0,1.02108,0.884234
White,12,Right,19,Male,Yes,English,B,595,0,0,0,180.0,1.0,1.0,616.595,1.0,594.0,18.0,1.00059,0.949855
White,12,Right,19,Male,Yes,English,B,596,1,0,16,0.0,0.0,1.0,625.879,1.0,595.0,18.0,1.16209,0.833913
White,12,Right,19,Male,Yes,English,B,597,0,16,4,0.0,0.0,1.0,641.036,1.0,596.0,18.0,1.17433,0.899039
White,12,Right,19,Male,Yes,English,B,598,1,16,8,0.0,0.0,1.0,915.318,1.0,597.0,18.0,1.18872,0.831985
White,12,Right,19,Male,Yes,English,B,599,0,8,0,180.0,1.0,1.0,996.505,1.0,598.0,18.0,1.17002,0.933905
White,12,Right,19,Male,Yes,English,B,600,1,4,0,180.0,1.0,1.0,608.55,1.0,599.0,18.0,1.06517,0.882197
White,12,Right,19,Male,Yes,English,B,601,0,8,16,0.0,0.0,1.0,681.532,1.0,600.0,18.0,1.08477,0.960875
White,12,Right,19,Male,Yes,English,B,602,1,4,4,0.0,0.0,1.0,1022.73,1.0,601.0,18.0,1.19324,0.98166
White,12,Right,19,Male,Yes,English,B,603,1,8,0,180.0,1.0,1.0,596.13,1.0,602.0,18.0,1.12266,0.894146
White,12,Right,19,Male,Yes,English,B,604,1,4,16,180.0,1.0,1.0,509.8,1.0,603.0,18.0,1.1736,0.9472
White,12,Right,19,Male,Yes,English,B,605,1,16,0,180.0,1.0,1.0,1259.07,1.0,604.0,18.0,1.0139,0.977315
White,12,Right,19,Male,Yes,English,B,606,0,4,4,180.0,1.0,1.0,1012.71,1.0,605.0,18.0,1.1792,0.841085
White,12,Right,19,Male,Yes,English,B,607,0,8,4,180.0,1.0,1.0,590.569,1.0,606.0,18.0,1.15459,0.93734
White,12,Right,19,Male,Yes,English,B,608,0,16,8,0.0,0.0,1.0,587.766,1.0,607.0,18.0,1.18954,0.92984
White,12,Right,19,Male,Yes,English,B,609,0,16,0,0.0,0.0,1.0,944.176,1.0,608.0,19.0,1.19005,0.921565
White,12,Right,19,Male,Yes,English,B,610,0,8,16,0.0,1.0,0.0,485.027,1.0,609.0,19.0,1.19075,0.980356
White,12,Right,19,Male,Yes,English,B,611,0,4,16,0.0,0.0,1.0,951.687,1.0,610.0,19.0,1.09918,0.825435
White,12,Right,19,Male,Yes,English,B,612,1,0,0,0.0,0.0,1.0,777.685,1.0,611.0,19.0,1.05803,0.841355
White,12,Right,19,Male,Yes,English,B,613,0,8,8,0.0,0.0,1.0,599.902,1.0,612.0,19.0,1.06723,0.808896
White,12,Right,19,Male,Yes,English,B,614,1,16,0,180.0,1.0,1.0,836.51,1.0,613.0,19.0,1.00102,0.902223
White,12,Right,19,Male,Yes,English,B,615,0,4,8,180.0,1.0,1.0,1072.11,1.0,614.0,19.0,1.04452,0.980016
White,12,Right,19,Male,Yes,English,B,616,0,4,4,0.0,0.0,1.0,711.407,1.0,615.0,19.0,1.08181,0.896223
White,12,Right,19,Male,Yes,English,B,617,1,0,16,180.0,1.0,1.0,730.466,1.0,616.0,19.0,1.16732,0.960527
White,12,Right,19,Male,Yes,English,B,618,1,8,4,0.0,0.0,1.0,803.359,1.0,617.0,19.0,1.08726,0.831498
White,12,Right,19,Male,Yes,English,B,619,1,8,0,0.0,0.0,1.0,694.603,1.0,618.0,19.0,1.05981,0.966652
White,12,Right,19,Male,Yes,English,B,620,0,16,4,0.0,0.0,1.0,668.424,1.0,619.0,19.0,1.17817,0.85273
White,12,Right,19,Male,Yes,English,B,621,0,16,16,0.0,0.0,1.0,855.873,1.0,620.0,19.0,1.14294,0.937198
White,12,Right,19,Male,Yes,English,B,622,1,0,4,180.0,1.0,1.0,548.269,1.0,621.0,19.0,1.17251,0.965377
White,12,Right,19,Male,Yes,English,B,623,1,4,4,180.0,1.0,1.0,555.837,1.0,622.0,19.0,1.12004,0.807974
White,12,Right,19,Male,Yes,English,B,624,0,0,0,180.0,1.0,1.0,652.896,1.0,623.0,19.0,1.02884,0.813386
White,12,Right,19,Male,Yes,English,B,625,1,8,8,180.0,1.0,1.0,679.198,1.0,624.0,19.0,1.00849,0.9275
White,12,Right,19,Male,Yes,English,B,626,0,0,16,180.0,1.0,1.0,626.105,1.0,625.0,19.0,1.03309,0.802895
White,12,Right,19,Male,Yes,English,B,627,1,4,16,0.0,0.0,1.0,706.082,1.0,626.0,19.0,1.11086,0.866941
White,12,Right,19,Male,Yes,English,B,628,1,16,8,180.0,1.0,1.0,802.079,1.0,627.0,19.0,1.18122,0.961964
White,12,Right,19,Male,Yes,English,B,629,1,0,8,180.0,1.0,1.0,745.861,1.0,628.0,19.0,1.02076,0.897199
White,12,Right,19,Male,Yes,English,B,630,1,4,0,0.0,0.0,1.0,669.131,1.0,629.0,19.0,1.16912,0.850286
White,12,Right,19,Male,Yes,English,B,631,1,4,8,180.0,1.0,1.0,599.143,1.0,630.0,19.0,1.05291,0.947647
White,12,Right,19,Male,Yes,English,B,632,0,0,4,0.0,0.0,1.0,637.412,1.0,631.0,19.0,1.04128,0.847086
White,12,Right,19,Male,Yes,English,B,633,0,8,0,0.0,0.0,1.0,712.692,1.0,632.0,19.0,1.07703,0.973572
White,12,Right,19,Male,Yes,English,B,634,0,16,8,180.0,1.0,1.0,689.851,1.0,633.0,19.0,1.18992,0.897398
White,12,Right,19,Male,Yes,English,B,635,1,16,16,180.0,1.0,1.0,954.347,1.0,634.0,19.0,1.13827,0.877874
White,12,Right,19,Male,Yes,English,B,636,0,8,4,0.0,0.0,1.0,687.61,1.0,635.0,19.0,1.14861,0.805685
White,12,Right,19,Male,Yes,English,B,637,1,8,16,0.0,0.0,1.0,566.574,1.0,636.0,19.0,1.18256,0.837847
White,12,Right,19,Male,Yes,English,B,638,0,4,0,180.0,1.0,1.0,639.077,1.0,637.0,19.0,1.1794,0.915328
White,12,Right,19,Male,Yes,English,B,639,1,16,4,180.0,1.0,1.0,817.487,1.0,638.0,19.0,1.02994,0.832337
White,12,Right,19,Male,Yes,English,B,640,0,0,8,180.0,1.0,1.0,1321.08,1.0,639.0,19.0,1.14553,0.825353
White,12,Right,19,Male,Yes,English,B,641,1,16,4,0.0,0.0,1.0,850.477,1.0,640.0,20.0,1.0786,0.98685
White,12,Right,19,Male,Yes,English,B,642,0,0,8,180.0,1.0,1.0,591.978,1.0,641.0,20.0,1.06581,0.93466
White,12,Right,19,Male,Yes,English,B,643,0,16,0,0.0,0.0,1.0,739.447,1.0,642.0,20.0,1.01817,0.8091
White,12,Right,19,Male,Yes,English,B,644,0,4,8,0.0,1.0,0.0,600.338,1.0,643.0,20.0,1.01126,0.97268
White,12,Right,19,Male,Yes,English,B,645,1,0,4,180.0,1.0,1.0,699.542,1.0,644.0,20.0,1.01201,0.883507
White,12,Right,19,Male,Yes,English,B,646,1,0,0,180.0,1.0,1.0,523.429,1.0,645.0,20.0,1.10003,0.830076
White,12,Right,19,Male,Yes,English,B,647,0,8,0,180.0,1.0,1.0,910.651,1.0,646.0,20.0,1.07403,0.877952
White,12,Right,19,Male,Yes,English,B,648,0,4,0,0.0,0.0,1.0,714.91,1.0,647.0,20.0,1.07304,0.82885
White,12,Right,19,Male,Yes,English,B,649,1,4,16,180.0,1.0,1.0,755.855,1.0,648.0,20.0,1.08803,0.874352
White,12,Right,19,Male,Yes,English,B,650,1,8,8,180.0,1.0,1.0,783.902,1.0,649.0,20.0,1.11245,0.992433
White,12,Right,19,Male,Yes,English,B,651,0,8,4,180.0,1.0,1.0,688.916,1.0,650.0,20.0,1.06961,0.951721
White,12,Right,19,Male,Yes,English,B,652,1,16,16,0.0,0.0,1.0,1071.15,1.0,651.0,20.0,1.0726,0.823472
White,12,Right,19,Male,Yes,English,B,653,1,0,8,180.0,1.0,1.0,619.666,1.0,652.0,20.0,1.09764,0.91352
White,12,Right,19,Male,Yes,English,B,654,1,0,16,0.0,0.0,1.0,891.505,1.0,653.0,20.0,1.03001,0.862351
White,12,Right,19,Male,Yes,English,B,655,0,4,16,0.0,0.0,1.0,770.034,1.0,654.0,20.0,1.14414,0.874048
White,12,Right,19,Male,Yes,English,B,656,0,16,16,180.0,1.0,1.0,791.949,1.0,655.0,20.0,1.09261,0.95827
White,12,Right,19,Male,Yes,English,B,657,0,0,4,180.0,1.0,1.0,660.491,1.0,656.0,20.0,1.03032,0.942729
White,12,Right,19,Male,Yes,English,B,658,0,0,16,180.0,1.0,1.0,586.673,1.0,657.0,20.0,1.14246,0.854137
White,12,Right,19,Male,Yes,English,B,659,1,16,0,0.0,0.0,1.0,711.053,1.0,658.0,20.0,1.13337,0.972504
White,12,Right,19,Male,Yes,English,B,660,0,16,8,0.0,0.0,1.0,1146.96,1.0,659.0,20.0,1.04017,0.875835
White,12,Right,19,Male,Yes,English,B,661,0,16,4,0.0,0.0,1.0,612.139,1.0,660.0,20.0,1.07938,0.900636
White,12,Right,19,Male,Yes,English,B,662,0,4,4,0.0,0.0,1.0,614.053,1.0,661.0,20.0,1.1254,0.845233
White,12,Right,19,Male,Yes,English,B,663,1,4,0,0.0,0.0,1.0,553.169,1.0,662.0,20.0,1.08124,0.968239
White,12,Right,19,Male,Yes,English,B,664,0,8,8,180.0,1.0,1.0,686.373,1.0,663.0,20.0,1.16295,0.903376
White,12,Right,19,Male,Yes,English,B,665,1,4,4,0.0,0.0,1.0,529.474,1.0,664.0,20.0,1.04066,0.847183
White,12,Right,19,Male,Yes,English,B,666,0,0,0,0.0,0.0,1.0,487.518,1.0,665.0,20.0,1.17748,0.927313
White,12,Right,19,Male,Yes,English,B,667,1,8,0,180.0,1.0,1.0,750.872,1.0,666.0,20.0,1.06965,0.889317
White,12,Right,19,Male,Yes,English,B,668,1,8,16,0.0,0.0,1.0,891.592,1.0,667.0,20.0,1.16465,0.830394
White,12,Right,19,Male,Yes,English,B,669,0,8,16,180.0,1.0,1.0,769.71,1.0,668.0,20.0,1.03709,0.864618
White,12,Right,19,Male,Yes,English,B,670,1,4,8,180.0,1.0,1.0,676.082,1.0,669.0,20.0,1.03364,0.803451
White,12,Right,19,Male,Yes,English,B,671,1,8,4,180.0,1.0,1.0,613.975,1.0,670.0,20.0,1.03444,0.83531
White,12,Right,19,Male,Yes,English,B,672,1,16,8,0.0,0.0,1.0,960.814,1.0,671.0,20.0,1.00619,0.861241
White,12,Right,19,Male,Yes,English,B,673,0,4,0,180.0,1.0,1.0,850.054,1.0,672.0,21.0,1.17101,0.851504
White,12,Right,19,Male,Yes,English,B,674,0,8,0,180.0,1.0,1.0,1369.11,1.0,673.0,21.0,1.06384,0.979818
White,12,Right,19,Male,Yes,English,B,675,1,4,4,0.0,0.0,1.0,1022.87,1.0,674.0,21.0,1.18846,0.997382
White,12,Right,19,Male,Yes,English,B,676,0,4,16,0.0,0.0,1.0,1017.31,1.0,675.0,21.0,1.12628,0.823411
White,12,Right,19,Male,Yes,English,B,677,0,8,4,180.0,1.0,1.0,572.227,1.0,676.0,21.0,1.10324,0.999353
White,12,Right,19,Male,Yes,English,B,678,1,4,8,0.0,1.0,0.0,590.807,1.0,677.0,21.0,1.18358,0.901492
White,12,Right,19,Male,Yes,English,B,679,1,8,8,0.0,0.0,1.0,765.843,1.0,678.0,21.0,1.06291,0.869001
White,12,Right,19,Male,Yes,English,B,680,0,0,8,0.0,0.0,1.0,563.655,1.0,679.0,21.0,1.08273,0.950327
White,12,Right,19,Male,Yes,English,B,681,0,8,8,180.0,1.0,1.0,737.0,1.0,680.0,21.0,1.09122,0.901192
White,12,Right,19,Male,Yes,English,B,682,1,0,8,180.0,1.0,1.0,768.419,1.0,681.0,21.0,1.06604,0.989289
White,12,Right,19,Male,Yes,English,B,683,1,0,16,180.0,1.0,1.0,531.761,1.0,682.0,21.0,1.08491,0.881837
White,12,Right,19,Male,Yes,English,B,684,0,0,0,0.0,0.0,1.0,611.246,1.0,683.0,21.0,1.05247,0.852516
White,12,Right,19,Male,Yes,English,B,685,0,16,8,180.0,1.0,1.0,601.669,1.0,684.0,21.0,1.12381,0.825511
White,12,Right,19,Male,Yes,English,B,686,1,4,16,0.0,0.0,1.0,742.803,1.0,685.0,21.0,1.13693,0.807844
White,12,Right,19,Male,Yes,English,B,687,0,4,8,0.0,0.0,1.0,804.998,1.0,686.0,21.0,1.05993,0.872801
White,12,Right,19,Male,Yes,English,B,688,1,0,0,0.0,0.0,1.0,580.52,1.0,687.0,21.0,1.09781,0.904959
White,12,Right,19,Male,Yes,English,B,689,1,8,16,0.0,0.0,1.0,581.473,1.0,688.0,21.0,1.10151,0.987157
White,12,Right,19,Male,Yes,English,B,690,1,4,0,180.0,1.0,1.0,887.807,1.0,689.0,21.0,1.18575,0.933173
White,12,Right,19,Male,Yes,English,B,691,0,0,16,0.0,0.0,1.0,993.497,1.0,690.0,21.0,1.13142,0.803604
White,12,Right,19,Male,Yes,English,B,692,1,16,4,180.0,1.0,1.0,886.135,1.0,691.0,21.0,1.18032,0.940064
White,12,Right,19,Male,Yes,English,B,693,0,16,16,0.0,0.0,1.0,916.888,1.0,692.0,21.0,1.09232,0.943251
White,12,Right,19,Male,Yes,English,B,694,0,4,4,180.0,1.0,1.0,723.055,1.0,693.0,21.0,1.00415,0.946051
White,12,Right,19,Male,Yes,English,B,695,1,8,4,0.0,0.0,1.0,841.989,1.0,694.0,21.0,1.03754,0.805094
White,12,Right,19,Male,Yes,English,B,696,1,16,8,180.0,1.0,1.0,495.975,1.0,695.0,21.0,1.11241,0.950775
White,12,Right,19,Male,Yes,English,B,697,0,16,4,0.0,0.0,1.0,1500.82,1.0,696.0,21.0,1.08987,0.954543
White,12,Right,19,Male,Yes,English,B,698,1,0,4,180.0,1.0,1.0,818.456,1.0,697.0,21.0,1.01728,0.938945
White,12,Right,19,Male,Yes,English,B,699,1,8,0,180.0,1.0,1.0,841.235,1.0,698.0,21.0,1.01197,0.851475
White,12,Right,19,Male,Yes,English,B,700,0,8,16,0.0,0.0,1.0,634.528,1.0,699.0,21.0,1.17131,0.881202
White,12,Right,19,Male,Yes,English,B,701,0,0,4,180.0,1.0,1.0,601.023,1.0,700.0,21.0,1.12914,0.860245
White,12,Right,19,Male,Yes,English,B,702,0,16,0,180.0,1.0,1.0,752.691,1.0,701.0,21.0,1.08692,0.981535
White,12,Right,19,Male,Yes,English,B,703,1,16,0,180.0,1.0,1.0,1186.08,1.0,702.0,21.0,1.1521,0.825998
White,12,Right,19,Male,Yes,English,B,704,1,16,16,0.0,0.0,1.0,985.962,1.0,703.0,21.0,1.13301,0.809084
White,12,Right,19,Male,Yes,English,B,705,1,16,0,0.0,0.0,1.0,972.916,1.0,704.0,22.0,1.05439,0.961077
White,12,Right,19,Male,Yes,English,B,706,0,16,8,0.0,0.0,1.0,1153.51,1.0,705.0,22.0,1.11994,0.9324
White,12,Right,19,Male,Yes,English,B,707,1,16,4,180.0,1.0,1.0,1279.93,1.0,706.0,22.0,1.1419,0.973767
White,12,Right,19,Male,Yes,English,B,708,0,0,16,180.0,1.0,1.0,565.058,1.0,707.0,22.0,1.12686,0.966308
White,12,Right,19,Male,Yes,English,B,709,1,8,16,0.0,0.0,1.0,763.719,1.0,708.0,22.0,1.18657,0.963244
White,12,Right,19,Male,Yes,English,B,710,0,0,8,180.0,1.0,1.0,885.744,1.0,709.0,22.0,1.01272,0.888713
White,12,Right,19,Male,Yes,English,B,711,0,8,4,0.0,0.0,1.0,761.869,1.0,710.0,22.0,1.03643,0.844936
White,12,Right,19,Male,Yes,English,B,712,0,4,4,0.0,0.0,1.0,606.449,1.0,711.0,22.0,1.0956,0.976971
White,12,Right,19,Male,Yes,English,B,713,0,4,16,0.0,0.0,1.0,563.874,1.0,712.0,22.0,1.12999,0.84772
White,12,Right,19,Male,Yes,English,B,714,1,8,0,180.0,1.0,1.0,1236.57,1.0,713.0,22.0,1.0643,0.92844
White,12,Right,19,Male,Yes,English,B,715,0,8,8,180.0,1.0,1.0,1085.42,1.0,714.0,22.0,1.1754,0.875204
White,12,Right,19,Male,Yes,English,B,716,1,4,4,0.0,0.0,1.0,888.437,1.0,715.0,22.0,1.15129,0.925833
White,12,Right,19,Male,Yes,English,B,717,0,4,0,0.0,0.0,1.0,937.697,1.0,716.0,22.0,1.00598,0.819685
White,12,Right,19,Male,Yes,English,B,718,1,8,8,0.0,0.0,1.0,1412.64,1.0,717.0,22.0,1.11565,0.800648
White,12,Right,19,Male,Yes,English,B,719,0,16,4,0.0,0.0,1.0,863.415,1.0,718.0,22.0,1.0357,0.842142
White,12,Right,19,Male,Yes,English,B,720,1,0,0,0.0,0.0,1.0,559.562,1.0,719.0,22.0,1.0471,0.848498
White,12,Right,19,Male,Yes,English,B,721,0,4,8,180.0,1.0,1.0,1226.73,1.0,720.0,22.0,1.10735,0.9445
White,12,Right,19,Male,Yes,English,B,722,0,8,0,180.0,1.0,1.0,1228.63,1.0,721.0,22.0,1.19664,0.905357
White,12,Right,19,Male,Yes,English,B,723,1,0,8,180.0,1.0,1.0,685.555,1.0,722.0,22.0,1.02521,0.870465
White,12,Right,19,Male,Yes,English,B,724,1,16,8,180.0,1.0,1.0,1240.15,1.0,723.0,22.0,1.01833,0.840291
White,12,Right,19,Male,Yes,English,B,725,0,16,0,180.0,1.0,1.0,1198.25,1.0,724.0,22.0,1.05834,0.989446
White,12,Right,19,Male,Yes,English,B,726,0,0,4,180.0,1.0,1.0,618.061,1.0,725.0,22.0,1.04847,0.866545
White,12,Right,19,Male,Yes,English,B,727,1,4,0,0.0,0.0,1.0,490.376,1.0,726.0,22.0,1.19051,0.937661
White,12,Right,19,Male,Yes,English,B,728,1,8,4,0.0,0.0,1.0,559.979,1.0,727.0,22.0,1.14933,0.94458
White,12,Right,19,Male,Yes,English,B,729,1,4,8,0.0,0.0,1.0,520.134,1.0,728.0,22.0,1.17798,0.899205
White,12,Right,19,Male,Yes,English,B,730,0,8,16,0.0,0.0,1.0,903.026,1.0,729.0,22.0,1.12199,0.863524
White,12,Right,19,Male,Yes,English,B,731,1,0,16,180.0,1.0,1.0,854.501,1.0,730.0,22.0,1.03875,0.845519
White,12,Right,19,Male,Yes,English,B,732,1,4,16,180.0,1.0,1.0,640.475,1.0,731.0,22.0,1.02707,0.835626
White,12,Right,19,Male,Yes,English,B,733,0,0,0,0.0,0.0,1.0,634.608,1.0,732.0,22.0,1.08281,0.838814
White,12,Right,19,Male,Yes,English,B,734,1,0,4,180.0,1.0,1.0,616.664,1.0,733.0,22.0,1.08107,0.920719
White,12,Right,19,Male,Yes,English,B,735,1,16,16,180.0,1.0,1.0,560.728,1.0,734.0,22.0,1.17889,0.819636
White,12,Right,19,Male,Yes,English,B,736,0,16,16,180.0,1.0,1.0,969.448,1.0,735.0,22.0,1.10842,0.877887
White,12,Right,19,Male,Yes,English,B,737,1,4,0,180.0,1.0,1.0,800.833,1.0,736.0,23.0,1.05627,0.931725
White,12,Right,19,Male,Yes,English,B,738,0,4,16,180.0,1.0,1.0,464.068,1.0,737.0,23.0,1.10372,0.978804
White,12,Right,19,Male,Yes,English,B,739,0,16,16,0.0,0.0,1.0,616.651,1.0,738.0,23.0,1.14185,0.986044
White,12,Right,19,Male,Yes,English,B,740,1,0,8,0.0,0.0,1.0,581.132,1.0,739.0,23.0,1.08906,0.903726
White,12,Right,19,Male,Yes,English,B,741,0,16,0,0.0,0.0,1.0,491.321,1.0,740.0,23.0,1.0029,0.833277
White,12,Right,19,Male,Yes,English,B,742,1,4,16,180.0,0.0,0.0,664.431,1.0,741.0,23.0,1.12137,0.872067
White,12,Right,19,Male,Yes,English,B,743,1,8,8,180.0,1.0,1.0,592.236,1.0,742.0,23.0,1.15346,0.842761
White,12,Right,19,Male,Yes,English,B,744,1,4,4,0.0,0.0,1.0,728.968,1.0,743.0,23.0,1.10634,0.925895
White,12,Right,19,Male,Yes,English,B,745,0,0,4,180.0,1.0,1.0,873.784,1.0,744.0,23.0,1.16489,0.940408
White,12,Right,19,Male,Yes,English,B,746,1,0,16,0.0,0.0,1.0,802.842,1.0,745.0,23.0,1.12067,0.944594
White,12,Right,19,Male,Yes,English,B,747,1,0,4,180.0,1.0,1.0,831.446,1.0,746.0,23.0,1.1938,0.999867
White,12,Right,19,Male,Yes,English,B,748,0,4,4,180.0,0.0,0.0,1144.6,1.0,747.0,23.0,1.13004,0.927396
White,12,Right,19,Male,Yes,English,B,749,0,8,4,0.0,0.0,1.0,640.417,1.0,748.0,23.0,1.08407,0.850405
White,12,Right,19,Male,Yes,English,B,750,1,16,0,180.0,1.0,1.0,915.845,1.0,749.0,23.0,1.14776,0.841123
White,12,Right,19,Male,Yes,English,B,751,0,0,8,180.0,1.0,1.0,734.131,1.0,750.0,23.0,1.04368,0.946801
White,12,Right,19,Male,Yes,English,B,752,0,0,0,0.0,0.0,1.0,539.549,1.0,751.0,23.0,1.12574,0.943366
White,12,Right,19,Male,Yes,English,B,753,1,8,4,0.0,0.0,1.0,699.936,1.0,752.0,23.0,1.10919,0.889127
White,12,Right,19,Male,Yes,English,B,754,1,16,8,0.0,0.0,1.0,873.284,1.0,753.0,23.0,1.10221,0.937385
White,12,Right,19,Male,Yes,English,B,755,1,16,4,0.0,0.0,1.0,937.292,1.0,754.0,23.0,1.02134,0.847325
White,12,Right,19,Male,Yes,English,B,756,1,16,16,0.0,0.0,1.0,1039.07,1.0,755.0,23.0,1.17165,0.814197
White,12,Right,19,Male,Yes,English,B,757,0,4,0,180.0,1.0,1.0,938.419,1.0,756.0,23.0,1.00115,0.996153
White,12,Right,19,Male,Yes,English,B,758,0,16,8,0.0,0.0,1.0,1478.61,1.0,757.0,23.0,1.05744,0.885547
White,12,Right,19,Male,Yes,English,B,759,0,4,8,180.0,1.0,1.0,1122.32,1.0,758.0,23.0,1.1886,0.935847
White,12,Right,19,Male,Yes,English,B,760,0,16,4,180.0,1.0,1.0,612.059,1.0,759.0,23.0,1.1394,0.949594
White,12,Right,19,Male,Yes,English,B,761,0,8,16,0.0,0.0,1.0,718.734,1.0,760.0,23.0,1.17719,0.906038
White,12,Right,19,Male,Yes,English,B,762,1,8,16,180.0,1.0,1.0,832.044,1.0,761.0,23.0,1.07228,0.885067
White,12,Right,19,Male,Yes,English,B,763,0,8,0,0.0,0.0,1.0,623.75,1.0,762.0,23.0,1.02961,0.826833
White,12,Right,19,Male,Yes,English,B,764,1,0,0,0.0,0.0,1.0,572.034,1.0,763.0,23.0,1.09763,0.908253
White,12,Right,19,Male,Yes,English,B,765,0,0,16,180.0,1.0,1.0,1092.51,1.0,764.0,23.0,1.08506,0.8957
White,12,Right,19,Male,Yes,English,B,766,0,8,8,180.0,0.0,0.0,612.506,1.0,765.0,23.0,1.10457,0.860276
White,12,Right,19,Male,Yes,English,B,767,1,4,8,180.0,1.0,1.0,1229.58,1.0,766.0,23.0,1.16671,0.871514
White,12,Right,19,Male,Yes,English,B,768,1,8,0,0.0,0.0,1.0,803.523,1.0,767.0,23.0,1.16179,0.897132
