Ethnicity,Subject Number,Preferred Hand,Age,Gender,Color blind,First Language,Room,TrialNumber,background,turtles,tortoises,target_id,resp,hit,rt,ran,order,block,iti,fix_duration
White,18,Right,18,Female,No,English,A,1,0,0,8,0.0,0.0,1.0,975.394,1.0,0.0,0.0,1.02539,0.836503
White,18,Right,18,Female,No,English,A,2,0,8,4,180.0,1.0,1.0,1399.96,1.0,1.0,0.0,1.07101,0.807714
White,18,Right,18,Female,No,English,A,3,0,4,0,0.0,0.0,1.0,862.156,1.0,2.0,0.0,1.06177,0.978831
White,18,Right,18,Female,No,English,A,4,1,8,4,0.0,0.0,1.0,674.704,1.0,3.0,0.0,1.1491,0.982992
White,18,Right,18,Female,No,English,A,5,0,16,16,180.0,1.0,1.0,1395.08,1.0,4.0,0.0,1.16617,0.864229
White,18,Right,18,Female,No,English,A,6,1,8,8,0.0,0.0,1.0,1269.95,1.0,5.0,0.0,1.08905,0.854245
White,18,Right,18,Female,No,English,A,7,1,16,0,0.0,0.0,1.0,1196.73,1.0,6.0,0.0,1.13419,0.894345
White,18,Right,18,Female,No,English,A,8,1,4,16,180.0,1.0,1.0,1015.83,1.0,7.0,0.0,1.00933,0.852863
White,18,Right,18,Female,No,English,A,9,1,4,8,180.0,1.0,1.0,713.795,1.0,8.0,0.0,1.19369,0.915431
White,18,Right,18,Female,No,English,A,10,0,16,0,0.0,0.0,1.0,1281.95,1.0,9.0,0.0,1.10146,0.826438
White,18,Right,18,Female,No,English,A,11,1,0,0,180.0,1.0,1.0,564.015,1.0,10.0,0.0,1.19908,0.863669
White,18,Right,18,Female,No,English,A,12,1,4,0,0.0,0.0,1.0,716.705,1.0,11.0,0.0,1.06052,0.850069
White,18,Right,18,Female,No,English,A,13,0,16,4,0.0,0.0,1.0,1293.97,1.0,12.0,0.0,1.12535,0.959981
White,18,Right,18,Female,No,English,A,14,0,8,0,180.0,1.0,1.0,571.111,1.0,13.0,0.0,1.00573,0.882462
White,18,Right,18,Female,No,English,A,15,0,0,4,180.0,1.0,1.0,1089.18,1.0,14.0,0.0,1.08949,0.967881
White,18,Right,18,Female,No,English,A,16,0,0,0,180.0,1.0,1.0,657.083,1.0,15.0,0.0,1.09177,0.914035
White,18,Right,18,Female,No,English,A,17,0,4,16,0.0,0.0,1.0,999.595,1.0,16.0,0.0,1.07572,0.993105
White,18,Right,18,Female,No,English,A,18,0,4,4,0.0,0.0,1.0,887.302,1.0,17.0,0.0,1.0108,0.890867
White,18,Right,18,Female,No,English,A,19,0,16,8,180.0,1.0,1.0,1558.28,1.0,18.0,0.0,1.10948,0.930651
White,18,Right,18,Female,No,English,A,20,0,8,8,0.0,0.0,1.0,1028.74,1.0,19.0,0.0,1.00984,0.977292
White,18,Right,18,Female,No,English,A,21,0,8,16,0.0,0.0,1.0,942.9,1.0,20.0,0.0,1.01196,0.90014
White,18,Right,18,Female,No,English,A,22,1,0,8,0.0,0.0,1.0,1725.63,1.0,21.0,0.0,1.16457,0.962727
White,18,Right,18,Female,No,English,A,23,1,4,4,180.0,1.0,1.0,488.661,1.0,22.0,0.0,1.19106,0.995945
White,18,Right,18,Female,No,English,A,24,1,8,16,180.0,1.0,1.0,908.144,1.0,23.0,0.0,1.17204,0.971305
White,18,Right,18,Female,No,English,A,25,0,4,8,0.0,0.0,1.0,926.732,1.0,24.0,0.0,1.1003,0.937304
White,18,Right,18,Female,No,English,A,26,1,16,16,0.0,0.0,1.0,497.644,1.0,25.0,0.0,1.12887,0.876035
White,18,Right,18,Female,No,English,A,27,0,0,16,180.0,1.0,1.0,976.461,1.0,26.0,0.0,1.00289,0.98775
White,18,Right,18,Female,No,English,A,28,1,0,4,180.0,1.0,1.0,748.301,1.0,27.0,0.0,1.13209,0.846614
White,18,Right,18,Female,No,English,A,29,1,16,8,180.0,1.0,1.0,1178.95,1.0,28.0,0.0,1.16115,0.973104
White,18,Right,18,Female,No,English,A,30,1,16,4,180.0,1.0,1.0,766.281,1.0,29.0,0.0,1.13909,0.98859
White,18,Right,18,Female,No,English,A,31,1,8,0,180.0,1.0,1.0,1116.25,1.0,30.0,0.0,1.11466,0.839426
White,18,Right,18,Female,No,English,A,32,1,0,16,0.0,0.0,1.0,913.489,1.0,31.0,0.0,1.01937,0.806213
White,18,Right,18,Female,No,English,A,33,0,0,16,180.0,1.0,1.0,912.539,1.0,32.0,1.0,1.15464,0.896855
White,18,Right,18,Female,No,English,A,34,1,8,4,0.0,0.0,1.0,654.896,1.0,33.0,1.0,1.1613,0.938518
White,18,Right,18,Female,No,English,A,35,1,4,16,180.0,1.0,1.0,964.946,1.0,34.0,1.0,1.10247,0.813647
White,18,Right,18,Female,No,English,A,36,0,4,0,180.0,1.0,1.0,583.013,1.0,35.0,1.0,1.14767,0.978916
White,18,Right,18,Female,No,English,A,37,1,16,8,0.0,0.0,1.0,1265.08,1.0,36.0,1.0,1.19507,0.844898
White,18,Right,18,Female,No,English,A,38,0,16,8,0.0,0.0,1.0,945.383,1.0,37.0,1.0,1.1532,0.981944
White,18,Right,18,Female,No,English,A,39,1,16,16,180.0,1.0,1.0,1573.8,1.0,38.0,1.0,1.09409,0.982399
White,18,Right,18,Female,No,English,A,40,1,0,8,0.0,0.0,1.0,682.786,1.0,39.0,1.0,1.00556,0.856754
White,18,Right,18,Female,No,English,A,41,0,8,0,0.0,0.0,1.0,773.376,1.0,40.0,1.0,1.12697,0.923192
White,18,Right,18,Female,No,English,A,42,0,4,4,0.0,0.0,1.0,1016.76,1.0,41.0,1.0,1.10279,0.920454
White,18,Right,18,Female,No,English,A,43,0,8,16,0.0,0.0,1.0,1455.98,1.0,42.0,1.0,1.06818,0.971041
White,18,Right,18,Female,No,English,A,44,1,16,4,180.0,1.0,1.0,1017.56,1.0,43.0,1.0,1.15958,0.870899
White,18,Right,18,Female,No,English,A,45,0,0,0,180.0,1.0,1.0,650.985,1.0,44.0,1.0,1.14991,0.994733
White,18,Right,18,Female,No,English,A,46,0,0,8,0.0,0.0,1.0,718.524,1.0,45.0,1.0,1.19283,0.975516
White,18,Right,18,Female,No,English,A,47,0,8,4,180.0,1.0,1.0,568.477,1.0,46.0,1.0,1.13923,0.919075
White,18,Right,18,Female,No,English,A,48,1,0,16,180.0,1.0,1.0,505.754,1.0,47.0,1.0,1.17491,0.886256
White,18,Right,18,Female,No,English,A,49,1,4,4,0.0,0.0,1.0,658.835,1.0,48.0,1.0,1.08605,0.961201
White,18,Right,18,Female,No,English,A,50,1,8,8,0.0,0.0,1.0,1170.22,1.0,49.0,1.0,1.01043,0.846861
White,18,Right,18,Female,No,English,A,51,1,4,0,180.0,1.0,1.0,834.123,1.0,50.0,1.0,1.12893,0.914669
White,18,Right,18,Female,No,English,A,52,0,4,16,180.0,1.0,1.0,1774.91,1.0,51.0,1.0,1.05771,0.903976
White,18,Right,18,Female,No,English,A,53,1,0,4,0.0,0.0,1.0,707.61,1.0,52.0,1.0,1.03881,0.880291
White,18,Right,18,Female,No,English,A,54,1,8,16,0.0,0.0,1.0,911.437,1.0,53.0,1.0,1.0507,0.971586
White,18,Right,18,Female,No,English,A,55,0,16,4,0.0,0.0,1.0,885.507,1.0,54.0,1.0,1.07408,0.961744
White,18,Right,18,Female,No,English,A,56,0,16,0,0.0,0.0,1.0,640.412,1.0,55.0,1.0,1.10648,0.8042
White,18,Right,18,Female,No,English,A,57,1,8,0,180.0,1.0,1.0,829.438,1.0,56.0,1.0,1.02789,0.891908
White,18,Right,18,Female,No,English,A,58,1,0,0,180.0,1.0,1.0,616.42,1.0,57.0,1.0,1.18812,0.835059
White,18,Right,18,Female,No,English,A,59,0,8,8,180.0,1.0,1.0,793.142,1.0,58.0,1.0,1.09564,0.914498
White,18,Right,18,Female,No,English,A,60,0,16,16,0.0,0.0,1.0,1020.72,1.0,59.0,1.0,1.19656,0.859855
White,18,Right,18,Female,No,English,A,61,0,4,8,180.0,1.0,1.0,1253.6,1.0,60.0,1.0,1.19865,0.809815
White,18,Right,18,Female,No,English,A,62,1,16,0,0.0,0.0,1.0,1156.93,1.0,61.0,1.0,1.11526,0.857736
White,18,Right,18,Female,No,English,A,63,0,0,4,180.0,1.0,1.0,713.525,1.0,62.0,1.0,1.10585,0.847531
White,18,Right,18,Female,No,English,A,64,1,4,8,180.0,1.0,1.0,969.779,1.0,63.0,1.0,1.10284,0.931224
White,18,Right,18,Female,No,English,A,65,0,4,8,0.0,0.0,1.0,1209.73,1.0,64.0,2.0,1.15828,0.820601
White,18,Right,18,Female,No,English,A,66,0,0,8,0.0,0.0,1.0,504.651,1.0,65.0,2.0,1.10025,0.960352
White,18,Right,18,Female,No,English,A,67,0,4,0,0.0,0.0,1.0,832.671,1.0,66.0,2.0,1.07122,0.831621
White,18,Right,18,Female,No,English,A,68,0,8,4,0.0,0.0,1.0,1282.78,1.0,67.0,2.0,1.10688,0.990799
White,18,Right,18,Female,No,English,A,69,1,4,4,0.0,0.0,1.0,569.704,1.0,68.0,2.0,1.15348,0.931822
White,18,Right,18,Female,No,English,A,70,0,0,16,180.0,1.0,1.0,806.839,1.0,69.0,2.0,1.13189,0.802242
White,18,Right,18,Female,No,English,A,71,1,16,16,180.0,1.0,1.0,1081.75,1.0,70.0,2.0,1.16868,0.930717
White,18,Right,18,Female,No,English,A,72,0,16,16,0.0,0.0,1.0,814.671,1.0,71.0,2.0,1.08516,0.862431
White,18,Right,18,Female,No,English,A,73,0,8,16,0.0,0.0,1.0,996.642,1.0,72.0,2.0,1.11054,0.813835
White,18,Right,18,Female,No,English,A,74,0,16,0,180.0,1.0,1.0,731.719,1.0,73.0,2.0,1.19105,0.925295
White,18,Right,18,Female,No,English,A,75,1,0,8,0.0,0.0,1.0,746.165,1.0,74.0,2.0,1.19868,0.98437
White,18,Right,18,Female,No,English,A,76,0,4,4,0.0,0.0,1.0,660.287,1.0,75.0,2.0,1.12273,0.951222
White,18,Right,18,Female,No,English,A,77,1,0,4,180.0,1.0,1.0,1304.31,1.0,76.0,2.0,1.03022,0.91971
White,18,Right,18,Female,No,English,A,78,0,16,8,0.0,0.0,1.0,1237.02,1.0,77.0,2.0,1.1267,0.968992
White,18,Right,18,Female,No,English,A,79,1,16,8,180.0,1.0,1.0,1155.46,1.0,78.0,2.0,1.00502,0.824349
White,18,Right,18,Female,No,English,A,80,0,8,0,0.0,0.0,1.0,986.722,1.0,79.0,2.0,1.11682,0.942555
White,18,Right,18,Female,No,English,A,81,0,16,4,180.0,1.0,1.0,746.136,1.0,80.0,2.0,1.03752,0.982983
White,18,Right,18,Female,No,English,A,82,1,8,4,0.0,0.0,1.0,991.199,1.0,81.0,2.0,1.0216,0.856863
White,18,Right,18,Female,No,English,A,83,1,16,4,180.0,1.0,1.0,873.607,1.0,82.0,2.0,1.11166,0.932426
White,18,Right,18,Female,No,English,A,84,1,0,0,0.0,0.0,1.0,655.884,1.0,83.0,2.0,1.009,0.918619
White,18,Right,18,Female,No,English,A,85,0,0,4,180.0,1.0,1.0,629.694,1.0,84.0,2.0,1.1674,0.983914
White,18,Right,18,Female,No,English,A,86,0,4,16,0.0,0.0,1.0,644.603,1.0,85.0,2.0,1.1851,0.925058
White,18,Right,18,Female,No,English,A,87,0,0,0,180.0,1.0,1.0,707.855,1.0,86.0,2.0,1.03107,0.869107
White,18,Right,18,Female,No,English,A,88,1,8,8,180.0,1.0,1.0,1338.91,1.0,87.0,2.0,1.03288,0.888682
White,18,Right,18,Female,No,English,A,89,1,4,0,180.0,1.0,1.0,595.553,1.0,88.0,2.0,1.15575,0.9504
White,18,Right,18,Female,No,English,A,90,1,4,16,0.0,0.0,1.0,620.016,1.0,89.0,2.0,1.15039,0.9889
White,18,Right,18,Female,No,English,A,91,0,8,8,0.0,0.0,1.0,979.61,1.0,90.0,2.0,1.01524,0.888294
White,18,Right,18,Female,No,English,A,92,1,8,16,180.0,1.0,1.0,1122.65,1.0,91.0,2.0,1.16102,0.983854
White,18,Right,18,Female,No,English,A,93,1,0,16,180.0,1.0,1.0,589.777,1.0,92.0,2.0,1.11558,0.900661
White,18,Right,18,Female,No,English,A,94,1,8,0,180.0,1.0,1.0,803.097,1.0,93.0,2.0,1.17496,0.956624
White,18,Right,18,Female,No,English,A,95,1,16,0,180.0,1.0,1.0,993.53,1.0,94.0,2.0,1.19413,0.920319
White,18,Right,18,Female,No,English,A,96,1,4,8,180.0,1.0,1.0,655.874,1.0,95.0,2.0,1.06194,0.817536
White,18,Right,18,Female,No,English,A,97,0,16,8,180.0,1.0,1.0,1379.14,1.0,96.0,3.0,1.17518,0.836741
White,18,Right,18,Female,No,English,A,98,1,4,16,180.0,1.0,1.0,849.813,1.0,97.0,3.0,1.01057,0.895123
White,18,Right,18,Female,No,English,A,99,0,4,8,0.0,0.0,1.0,889.415,1.0,98.0,3.0,1.08646,0.848186
White,18,Right,18,Female,No,English,A,100,0,8,16,0.0,0.0,1.0,1094.07,1.0,99.0,3.0,1.02891,0.879202
White,18,Right,18,Female,No,English,A,101,0,8,4,180.0,1.0,1.0,1059.94,1.0,100.0,3.0,1.19804,0.902455
White,18,Right,18,Female,No,English,A,102,1,0,16,0.0,0.0,1.0,779.201,1.0,101.0,3.0,1.05085,0.84171
White,18,Right,18,Female,No,English,A,103,0,0,16,0.0,0.0,1.0,675.048,1.0,102.0,3.0,1.17786,0.937127
White,18,Right,18,Female,No,English,A,104,0,16,16,180.0,1.0,1.0,700.893,1.0,103.0,3.0,1.19359,0.90103
White,18,Right,18,Female,No,English,A,105,1,16,16,0.0,0.0,1.0,1845.36,1.0,104.0,3.0,1.17077,0.994527
White,18,Right,18,Female,No,English,A,106,0,0,0,0.0,0.0,1.0,633.204,1.0,105.0,3.0,1.02148,0.813518
White,18,Right,18,Female,No,English,A,107,1,0,4,0.0,0.0,1.0,614.159,1.0,106.0,3.0,1.08369,0.887469
White,18,Right,18,Female,No,English,A,108,1,16,4,180.0,1.0,1.0,1410.07,1.0,107.0,3.0,1.04447,0.82897
White,18,Right,18,Female,No,English,A,109,1,0,0,180.0,1.0,1.0,787.82,1.0,108.0,3.0,1.16882,0.873018
White,18,Right,18,Female,No,English,A,110,0,16,0,180.0,1.0,1.0,1838.22,1.0,109.0,3.0,1.00173,0.932521
White,18,Right,18,Female,No,English,A,111,0,4,0,0.0,0.0,1.0,658.437,1.0,110.0,3.0,1.17537,0.904073
White,18,Right,18,Female,No,English,A,112,0,0,4,0.0,0.0,1.0,633.299,1.0,111.0,3.0,1.15098,0.939358
White,18,Right,18,Female,No,English,A,113,1,4,8,0.0,0.0,1.0,1187.45,1.0,112.0,3.0,1.11556,0.955596
White,18,Right,18,Female,No,English,A,114,0,16,4,180.0,1.0,1.0,486.273,1.0,113.0,3.0,1.0368,0.957099
White,18,Right,18,Female,No,English,A,115,0,0,8,0.0,0.0,1.0,681.494,1.0,114.0,3.0,1.12172,0.924164
White,18,Right,18,Female,No,English,A,116,1,0,8,0.0,0.0,1.0,905.319,1.0,115.0,3.0,1.07864,0.867494
White,18,Right,18,Female,No,English,A,117,1,8,4,180.0,1.0,1.0,1213.12,1.0,116.0,3.0,1.15418,0.936968
White,18,Right,18,Female,No,English,A,118,1,16,8,0.0,0.0,1.0,1117.08,1.0,117.0,3.0,1.09057,0.959946
White,18,Right,18,Female,No,English,A,119,0,4,16,180.0,1.0,1.0,1288.85,1.0,118.0,3.0,1.13212,0.942783
White,18,Right,18,Female,No,English,A,120,1,8,8,0.0,0.0,1.0,651.756,1.0,119.0,3.0,1.1799,0.905235
White,18,Right,18,Female,No,English,A,121,0,8,0,180.0,1.0,1.0,743.836,1.0,120.0,3.0,1.08394,0.962132
White,18,Right,18,Female,No,English,A,122,0,4,4,180.0,1.0,1.0,1171.61,1.0,121.0,3.0,1.17848,0.956659
White,18,Right,18,Female,No,English,A,123,1,8,16,180.0,1.0,1.0,1048.7,1.0,122.0,3.0,1.09292,0.920681
White,18,Right,18,Female,No,English,A,124,1,4,4,0.0,0.0,1.0,954.679,1.0,123.0,3.0,1.16624,0.990983
White,18,Right,18,Female,No,English,A,125,1,16,0,180.0,1.0,1.0,1177.75,1.0,124.0,3.0,1.03304,0.847532
White,18,Right,18,Female,No,English,A,126,1,4,0,0.0,0.0,1.0,510.238,1.0,125.0,3.0,1.09162,0.901216
White,18,Right,18,Female,No,English,A,127,0,8,8,180.0,1.0,1.0,810.47,1.0,126.0,3.0,1.02101,0.885878
White,18,Right,18,Female,No,English,A,128,1,8,0,180.0,1.0,1.0,586.153,1.0,127.0,3.0,1.19069,0.892666
White,18,Right,18,Female,No,English,A,129,0,16,4,0.0,0.0,1.0,658.687,1.0,128.0,4.0,1.15368,0.866236
White,18,Right,18,Female,No,English,A,130,0,4,4,0.0,0.0,1.0,1242.32,1.0,129.0,4.0,1.0421,0.951807
White,18,Right,18,Female,No,English,A,131,0,8,8,180.0,1.0,1.0,628.704,1.0,130.0,4.0,1.01064,0.823536
White,18,Right,18,Female,No,English,A,132,1,4,0,0.0,0.0,1.0,1028.43,1.0,131.0,4.0,1.05823,0.956145
White,18,Right,18,Female,No,English,A,133,1,0,4,180.0,1.0,1.0,835.651,1.0,132.0,4.0,1.19791,0.859851
White,18,Right,18,Female,No,English,A,134,0,8,16,0.0,0.0,1.0,491.995,1.0,133.0,4.0,1.11679,0.953037
White,18,Right,18,Female,No,English,A,135,0,8,0,180.0,1.0,1.0,690.935,1.0,134.0,4.0,1.01478,0.815643
White,18,Right,18,Female,No,English,A,136,0,0,4,180.0,0.0,0.0,546.31,1.0,135.0,4.0,1.06218,0.816105
White,18,Right,18,Female,No,English,A,137,0,0,16,180.0,1.0,1.0,664.377,1.0,136.0,4.0,1.13623,0.92656
White,18,Right,18,Female,No,English,A,138,0,16,0,180.0,1.0,1.0,1247.75,1.0,137.0,4.0,1.10557,0.846353
White,18,Right,18,Female,No,English,A,139,1,16,0,0.0,0.0,1.0,1127.14,1.0,138.0,4.0,1.17475,0.989685
White,18,Right,18,Female,No,English,A,140,1,8,0,0.0,0.0,1.0,788.421,1.0,139.0,4.0,1.11053,0.846365
White,18,Right,18,Female,No,English,A,141,1,16,8,0.0,0.0,1.0,1449.53,1.0,140.0,4.0,1.09731,0.820884
White,18,Right,18,Female,No,English,A,142,0,0,0,0.0,0.0,1.0,581.887,1.0,141.0,4.0,1.10787,0.879
White,18,Right,18,Female,No,English,A,143,0,0,8,0.0,0.0,1.0,591.107,1.0,142.0,4.0,1.1438,0.992912
White,18,Right,18,Female,No,English,A,144,0,8,4,180.0,1.0,1.0,782.562,1.0,143.0,4.0,1.12891,0.920348
White,18,Right,18,Female,No,English,A,145,1,8,4,180.0,1.0,1.0,1291.39,1.0,144.0,4.0,1.06967,0.963448
White,18,Right,18,Female,No,English,A,146,0,4,0,180.0,1.0,1.0,697.371,1.0,145.0,4.0,1.17139,0.924414
White,18,Right,18,Female,No,English,A,147,0,16,8,0.0,0.0,1.0,872.076,1.0,146.0,4.0,1.1492,0.984279
White,18,Right,18,Female,No,English,A,148,1,16,16,180.0,1.0,1.0,991.845,1.0,147.0,4.0,1.1746,0.837822
White,18,Right,18,Female,No,English,A,149,0,4,8,180.0,1.0,1.0,649.044,1.0,148.0,4.0,1.06202,0.980809
White,18,Right,18,Female,No,English,A,150,1,0,16,180.0,1.0,1.0,964.485,1.0,149.0,4.0,1.07528,0.83246
White,18,Right,18,Female,No,English,A,151,0,4,16,0.0,0.0,1.0,944.269,1.0,150.0,4.0,1.06277,0.820028
White,18,Right,18,Female,No,English,A,152,1,0,8,0.0,0.0,1.0,615.001,1.0,151.0,4.0,1.05541,0.866403
White,18,Right,18,Female,No,English,A,153,1,8,8,180.0,1.0,1.0,623.248,1.0,152.0,4.0,1.01288,0.820865
White,18,Right,18,Female,No,English,A,154,1,16,4,0.0,0.0,1.0,1033.08,1.0,153.0,4.0,1.04362,0.974555
White,18,Right,18,Female,No,English,A,155,1,4,8,0.0,0.0,1.0,835.935,1.0,154.0,4.0,1.15288,0.945884
White,18,Right,18,Female,No,English,A,156,1,0,0,0.0,0.0,1.0,942.422,1.0,155.0,4.0,1.03497,0.867149
White,18,Right,18,Female,No,English,A,157,1,8,16,180.0,1.0,1.0,717.678,1.0,156.0,4.0,1.01844,0.901267
White,18,Right,18,Female,No,English,A,158,0,16,16,0.0,0.0,1.0,1010.68,1.0,157.0,4.0,1.1456,0.886498
White,18,Right,18,Female,No,English,A,159,1,4,16,180.0,1.0,1.0,1443.82,1.0,158.0,4.0,1.02343,0.818334
White,18,Right,18,Female,No,English,A,160,1,4,4,180.0,1.0,1.0,735.032,1.0,159.0,4.0,1.06977,0.825394
White,18,Right,18,Female,No,English,A,161,0,0,4,180.0,1.0,1.0,882.775,1.0,160.0,5.0,1.01184,0.935397
White,18,Right,18,Female,No,English,A,162,0,8,16,0.0,0.0,1.0,705.268,1.0,161.0,5.0,1.10409,0.985623
White,18,Right,18,Female,No,English,A,163,0,8,4,180.0,1.0,1.0,1149.56,1.0,162.0,5.0,1.16681,0.997777
White,18,Right,18,Female,No,English,A,164,1,0,8,0.0,0.0,1.0,665.009,1.0,163.0,5.0,1.17384,0.840645
White,18,Right,18,Female,No,English,A,165,1,4,16,180.0,1.0,1.0,1410.02,1.0,164.0,5.0,1.00701,0.996458
White,18,Right,18,Female,No,English,A,166,1,0,4,180.0,1.0,1.0,807.875,1.0,165.0,5.0,1.11672,0.961381
White,18,Right,18,Female,No,English,A,167,1,8,8,0.0,0.0,1.0,1297.97,1.0,166.0,5.0,1.1394,0.916721
White,18,Right,18,Female,No,English,A,168,1,16,8,180.0,1.0,1.0,721.971,1.0,167.0,5.0,1.01987,0.834315
White,18,Right,18,Female,No,English,A,169,1,8,0,180.0,1.0,1.0,1105.2,1.0,168.0,5.0,1.1083,0.815826
White,18,Right,18,Female,No,English,A,170,0,4,0,0.0,0.0,1.0,659.67,1.0,169.0,5.0,1.02863,0.847583
White,18,Right,18,Female,No,English,A,171,1,0,16,180.0,1.0,1.0,830.248,1.0,170.0,5.0,1.00042,0.915395
White,18,Right,18,Female,No,English,A,172,1,16,0,0.0,0.0,1.0,1030.23,1.0,171.0,5.0,1.07981,0.894854
White,18,Right,18,Female,No,English,A,173,0,16,16,0.0,0.0,1.0,887.973,1.0,172.0,5.0,1.17326,0.900979
White,18,Right,18,Female,No,English,A,174,0,16,4,180.0,1.0,1.0,982.007,1.0,173.0,5.0,1.05004,0.96699
White,18,Right,18,Female,No,English,A,175,1,4,0,180.0,1.0,1.0,625.321,1.0,174.0,5.0,1.19266,0.865687
White,18,Right,18,Female,No,English,A,176,0,0,0,0.0,0.0,1.0,658.183,1.0,175.0,5.0,1.14528,0.877899
White,18,Right,18,Female,No,English,A,177,1,4,4,180.0,1.0,1.0,1109.38,1.0,176.0,5.0,1.10107,0.835226
White,18,Right,18,Female,No,English,A,178,0,16,8,180.0,1.0,1.0,1509.24,1.0,177.0,5.0,1.06773,0.953752
White,18,Right,18,Female,No,English,A,179,1,16,16,180.0,1.0,1.0,1492.34,1.0,178.0,5.0,1.08888,0.954067
White,18,Right,18,Female,No,English,A,180,0,8,8,0.0,0.0,1.0,494.357,1.0,179.0,5.0,1.11788,0.949464
White,18,Right,18,Female,No,English,A,181,1,8,16,180.0,1.0,1.0,932.422,1.0,180.0,5.0,1.04825,0.807887
White,18,Right,18,Female,No,English,A,182,0,16,0,180.0,1.0,1.0,639.034,1.0,181.0,5.0,1.16522,0.823696
White,18,Right,18,Female,No,English,A,183,1,8,4,0.0,0.0,1.0,1193.83,1.0,182.0,5.0,1.0431,0.818568
White,18,Right,18,Female,No,English,A,184,0,4,16,0.0,0.0,1.0,1088.56,1.0,183.0,5.0,1.11394,0.824764
White,18,Right,18,Female,No,English,A,185,1,0,0,0.0,0.0,1.0,615.334,1.0,184.0,5.0,1.02349,0.889843
White,18,Right,18,Female,No,English,A,186,0,8,0,0.0,0.0,1.0,758.43,1.0,185.0,5.0,1.18919,0.994966
White,18,Right,18,Female,No,English,A,187,0,0,8,0.0,0.0,1.0,561.516,1.0,186.0,5.0,1.1587,0.847015
White,18,Right,18,Female,No,English,A,188,1,16,4,0.0,0.0,1.0,1477.92,1.0,187.0,5.0,1.0629,0.828102
White,18,Right,18,Female,No,English,A,189,0,0,16,180.0,1.0,1.0,807.646,1.0,188.0,5.0,1.18652,0.919436
White,18,Right,18,Female,No,English,A,190,0,4,4,0.0,0.0,1.0,824.55,1.0,189.0,5.0,1.12111,0.848244
White,18,Right,18,Female,No,English,A,191,1,4,8,0.0,0.0,1.0,1389.37,1.0,190.0,5.0,1.04647,0.828908
White,18,Right,18,Female,No,English,A,192,0,4,8,180.0,1.0,1.0,522.963,1.0,191.0,5.0,1.1063,0.971409
White,18,Right,18,Female,No,English,A,193,0,8,0,0.0,0.0,1.0,748.272,1.0,192.0,6.0,1.13545,0.889193
White,18,Right,18,Female,No,English,A,194,0,4,8,0.0,0.0,1.0,1312.0,1.0,193.0,6.0,1.17331,0.894239
White,18,Right,18,Female,No,English,A,195,0,4,0,0.0,0.0,1.0,673.84,1.0,194.0,6.0,1.05511,0.969221
White,18,Right,18,Female,No,English,A,196,1,16,0,180.0,1.0,1.0,907.093,1.0,195.0,6.0,1.01302,0.963749
White,18,Right,18,Female,No,English,A,197,0,4,4,180.0,1.0,1.0,772.51,1.0,196.0,6.0,1.1136,0.938353
White,18,Right,18,Female,No,English,A,198,0,0,16,180.0,1.0,1.0,684.48,1.0,197.0,6.0,1.06538,0.996897
White,18,Right,18,Female,No,English,A,199,0,0,0,0.0,0.0,1.0,607.995,1.0,198.0,6.0,1.00777,0.916682
White,18,Right,18,Female,No,English,A,200,0,0,8,0.0,0.0,1.0,677.995,1.0,199.0,6.0,1.17721,0.926319
White,18,Right,18,Female,No,English,A,201,0,4,16,180.0,1.0,1.0,768.347,1.0,200.0,6.0,1.16785,0.840508
White,18,Right,18,Female,No,English,A,202,1,4,8,0.0,0.0,1.0,709.635,1.0,201.0,6.0,1.1999,0.802367
White,18,Right,18,Female,No,English,A,203,1,16,8,0.0,0.0,1.0,675.808,1.0,202.0,6.0,1.05911,0.966452
White,18,Right,18,Female,No,English,A,204,0,16,16,180.0,1.0,1.0,953.012,1.0,203.0,6.0,1.06777,0.945356
White,18,Right,18,Female,No,English,A,205,0,8,16,180.0,1.0,1.0,541.467,1.0,204.0,6.0,1.0696,0.924201
White,18,Right,18,Female,No,English,A,206,1,16,16,0.0,0.0,1.0,1387.38,1.0,205.0,6.0,1.02791,0.907163
White,18,Right,18,Female,No,English,A,207,1,4,16,0.0,0.0,1.0,1028.01,1.0,206.0,6.0,1.14976,0.98429
White,18,Right,18,Female,No,English,A,208,1,0,0,180.0,1.0,1.0,594.437,1.0,207.0,6.0,1.13312,0.84202
White,18,Right,18,Female,No,English,A,209,0,16,4,0.0,0.0,1.0,1756.08,1.0,208.0,6.0,1.09239,0.937052
White,18,Right,18,Female,No,English,A,210,1,0,16,180.0,1.0,1.0,880.568,1.0,209.0,6.0,1.00677,0.850378
White,18,Right,18,Female,No,English,A,211,0,16,0,180.0,0.0,0.0,620.034,1.0,210.0,6.0,1.11852,0.91588
White,18,Right,18,Female,No,English,A,212,1,0,4,180.0,1.0,1.0,507.345,1.0,211.0,6.0,1.05358,0.803263
White,18,Right,18,Female,No,English,A,213,1,8,8,0.0,0.0,1.0,1423.17,1.0,212.0,6.0,1.00785,0.852688
White,18,Right,18,Female,No,English,A,214,1,8,16,0.0,0.0,1.0,482.776,1.0,213.0,6.0,1.09166,0.965672
White,18,Right,18,Female,No,English,A,215,0,0,4,0.0,0.0,1.0,1100.23,1.0,214.0,6.0,1.02762,0.942343
White,18,Right,18,Female,No,English,A,216,1,16,4,0.0,0.0,1.0,1372.76,1.0,215.0,6.0,1.17212,0.917361
White,18,Right,18,Female,No,English,A,217,1,0,8,180.0,1.0,1.0,1088.23,1.0,216.0,6.0,1.16428,0.827881
White,18,Right,18,Female,No,English,A,218,0,8,8,0.0,0.0,1.0,1565.2,1.0,217.0,6.0,1.0183,0.984424
White,18,Right,18,Female,No,English,A,219,1,4,4,180.0,1.0,1.0,924.327,1.0,218.0,6.0,1.07179,0.810526
White,18,Right,18,Female,No,English,A,220,0,16,8,180.0,1.0,1.0,878.314,1.0,219.0,6.0,1.11196,0.915485
White,18,Right,18,Female,No,English,A,221,0,8,4,180.0,1.0,1.0,528.873,1.0,220.0,6.0,1.16151,0.980024
White,18,Right,18,Female,No,English,A,222,1,8,4,0.0,0.0,1.0,1131.48,1.0,221.0,6.0,1.00718,0.92692
White,18,Right,18,Female,No,English,A,223,1,4,0,180.0,1.0,1.0,622.368,1.0,222.0,6.0,1.15411,0.850196
White,18,Right,18,Female,No,English,A,224,1,8,0,180.0,1.0,1.0,433.776,1.0,223.0,6.0,1.05105,0.970789
White,18,Right,18,Female,No,English,A,225,0,0,16,0.0,0.0,1.0,1283.99,1.0,224.0,7.0,1.07952,0.989505
White,18,Right,18,Female,No,English,A,226,1,16,8,180.0,1.0,1.0,912.291,1.0,225.0,7.0,1.10636,0.870826
White,18,Right,18,Female,No,English,A,227,1,16,16,180.0,1.0,1.0,1374.1,1.0,226.0,7.0,1.01815,0.886011
White,18,Right,18,Female,No,English,A,228,1,8,4,180.0,1.0,1.0,960.877,1.0,227.0,7.0,1.1889,0.824063
White,18,Right,18,Female,No,English,A,229,0,0,8,0.0,0.0,1.0,853.158,1.0,228.0,7.0,1.08389,0.854787
White,18,Right,18,Female,No,English,A,230,1,0,8,0.0,0.0,1.0,865.074,1.0,229.0,7.0,1.15673,0.994547
White,18,Right,18,Female,No,English,A,231,1,4,4,0.0,0.0,1.0,1048.39,1.0,230.0,7.0,1.11528,0.829977
White,18,Right,18,Female,No,English,A,232,0,16,4,180.0,1.0,1.0,1711.04,1.0,231.0,7.0,1.11531,0.987484
White,18,Right,18,Female,No,English,A,233,1,4,8,0.0,0.0,1.0,852.649,1.0,232.0,7.0,1.05256,0.800311
White,18,Right,18,Female,No,English,A,234,0,8,4,180.0,1.0,1.0,590.482,1.0,233.0,7.0,1.12998,0.931429
White,18,Right,18,Female,No,English,A,235,0,4,4,0.0,0.0,1.0,668.779,1.0,234.0,7.0,1.19674,0.930556
White,18,Right,18,Female,No,English,A,236,0,0,4,180.0,1.0,1.0,590.076,1.0,235.0,7.0,1.102,0.939886
White,18,Right,18,Female,No,English,A,237,1,8,0,180.0,1.0,1.0,589.627,1.0,236.0,7.0,1.14928,0.979691
White,18,Right,18,Female,No,English,A,238,0,0,0,180.0,1.0,1.0,624.115,1.0,237.0,7.0,1.06626,0.934748
White,18,Right,18,Female,No,English,A,239,0,4,8,180.0,1.0,1.0,1096.74,1.0,238.0,7.0,1.06426,0.976879
White,18,Right,18,Female,No,English,A,240,0,4,0,0.0,0.0,1.0,616.709,1.0,239.0,7.0,1.10998,0.933874
White,18,Right,18,Female,No,English,A,241,0,8,0,180.0,1.0,1.0,709.064,1.0,240.0,7.0,1.18452,0.886042
White,18,Right,18,Female,No,English,A,242,0,8,16,0.0,0.0,1.0,834.211,1.0,241.0,7.0,1.02489,0.840928
White,18,Right,18,Female,No,English,A,243,0,16,8,180.0,1.0,1.0,1315.47,1.0,242.0,7.0,1.00551,0.965089
White,18,Right,18,Female,No,English,A,244,0,8,8,0.0,0.0,1.0,421.828,1.0,243.0,7.0,1.12373,0.867269
White,18,Right,18,Female,No,English,A,245,1,4,16,0.0,0.0,1.0,728.411,1.0,244.0,7.0,1.16402,0.855973
White,18,Right,18,Female,No,English,A,246,1,0,0,0.0,0.0,1.0,653.081,1.0,245.0,7.0,1.1279,0.871464
White,18,Right,18,Female,No,English,A,247,1,0,4,0.0,0.0,1.0,656.387,1.0,246.0,7.0,1.15278,0.888585
White,18,Right,18,Female,No,English,A,248,1,8,16,180.0,1.0,1.0,830.448,1.0,247.0,7.0,1.04554,0.801225
White,18,Right,18,Female,No,English,A,249,0,4,16,0.0,0.0,1.0,808.199,1.0,248.0,7.0,1.14278,0.982189
White,18,Right,18,Female,No,English,A,250,0,16,16,180.0,1.0,1.0,445.369,1.0,249.0,7.0,1.0738,0.925525
White,18,Right,18,Female,No,English,A,251,1,8,8,0.0,0.0,1.0,873.543,1.0,250.0,7.0,1.18523,0.865262
White,18,Right,18,Female,No,English,A,252,1,4,0,180.0,1.0,1.0,809.559,1.0,251.0,7.0,1.05092,0.838467
White,18,Right,18,Female,No,English,A,253,1,16,4,180.0,1.0,1.0,1073.93,1.0,252.0,7.0,1.13559,0.868201
White,18,Right,18,Female,No,English,A,254,0,16,0,0.0,0.0,1.0,941.594,1.0,253.0,7.0,1.03942,0.944925
White,18,Right,18,Female,No,English,A,255,1,16,0,180.0,1.0,1.0,930.117,1.0,254.0,7.0,1.01517,0.860844
White,18,Right,18,Female,No,English,A,256,1,0,16,0.0,0.0,1.0,606.753,1.0,255.0,7.0,1.0071,0.853793
White,18,Right,18,Female,No,English,A,257,0,0,4,180.0,1.0,1.0,634.728,1.0,256.0,8.0,1.04127,0.88144
White,18,Right,18,Female,No,English,A,258,0,4,8,0.0,0.0,1.0,494.018,1.0,257.0,8.0,1.17796,0.973112
White,18,Right,18,Female,No,English,A,259,1,8,0,180.0,1.0,1.0,1030.69,1.0,258.0,8.0,1.12982,0.942434
White,18,Right,18,Female,No,English,A,260,1,4,4,0.0,0.0,1.0,627.262,1.0,259.0,8.0,1.07198,0.806025
White,18,Right,18,Female,No,English,A,261,0,0,8,0.0,1.0,0.0,503.395,1.0,260.0,8.0,1.07789,0.88865
White,18,Right,18,Female,No,English,A,262,0,4,4,180.0,1.0,1.0,827.421,1.0,261.0,8.0,1.03425,0.904054
White,18,Right,18,Female,No,English,A,263,1,0,0,180.0,1.0,1.0,553.434,1.0,262.0,8.0,1.05394,0.984789
White,18,Right,18,Female,No,English,A,264,0,16,4,180.0,1.0,1.0,1445.94,1.0,263.0,8.0,1.05783,0.8919
White,18,Right,18,Female,No,English,A,265,0,8,16,180.0,1.0,1.0,1125.47,1.0,264.0,8.0,1.14705,0.900807
White,18,Right,18,Female,No,English,A,266,0,8,8,0.0,0.0,1.0,899.616,1.0,265.0,8.0,1.08838,0.928794
White,18,Right,18,Female,No,English,A,267,0,4,16,180.0,1.0,1.0,1068.62,1.0,266.0,8.0,1.08925,0.895594
White,18,Right,18,Female,No,English,A,268,0,16,8,180.0,1.0,1.0,633.982,1.0,267.0,8.0,1.16559,0.813062
White,18,Right,18,Female,No,English,A,269,1,16,4,0.0,0.0,1.0,954.875,1.0,268.0,8.0,1.00042,0.9106
White,18,Right,18,Female,No,English,A,270,0,8,4,0.0,0.0,1.0,864.503,1.0,269.0,8.0,1.02598,0.804837
White,18,Right,18,Female,No,English,A,271,1,8,8,180.0,1.0,1.0,958.265,1.0,270.0,8.0,1.08477,0.830388
White,18,Right,18,Female,No,English,A,272,0,0,0,180.0,1.0,1.0,582.359,1.0,271.0,8.0,1.16884,0.959812
White,18,Right,18,Female,No,English,A,273,1,4,0,180.0,1.0,1.0,876.972,1.0,272.0,8.0,1.02709,0.868308
White,18,Right,18,Female,No,English,A,274,1,16,0,0.0,0.0,1.0,862.706,1.0,273.0,8.0,1.16408,0.811432
White,18,Right,18,Female,No,English,A,275,1,0,4,0.0,1.0,0.0,1085.27,1.0,274.0,8.0,1.0405,0.986451
White,18,Right,18,Female,No,English,A,276,0,8,0,0.0,0.0,1.0,642.353,1.0,275.0,8.0,1.10718,0.921979
White,18,Right,18,Female,No,English,A,277,0,16,0,180.0,1.0,1.0,759.521,1.0,276.0,8.0,1.16863,0.930747
White,18,Right,18,Female,No,English,A,278,0,16,16,180.0,1.0,1.0,629.53,1.0,277.0,8.0,1.19666,0.845978
White,18,Right,18,Female,No,English,A,279,1,0,8,0.0,0.0,1.0,642.551,1.0,278.0,8.0,1.1873,0.962279
White,18,Right,18,Female,No,English,A,280,1,0,16,180.0,1.0,1.0,774.878,1.0,279.0,8.0,1.06441,0.962322
White,18,Right,18,Female,No,English,A,281,0,4,0,0.0,0.0,1.0,894.946,1.0,280.0,8.0,1.0353,0.998511
White,18,Right,18,Female,No,English,A,282,1,16,16,0.0,0.0,1.0,797.182,1.0,281.0,8.0,1.19931,0.941972
White,18,Right,18,Female,No,English,A,283,1,8,4,0.0,0.0,1.0,1042.79,1.0,282.0,8.0,1.0208,0.806946
White,18,Right,18,Female,No,English,A,284,1,16,8,0.0,0.0,1.0,815.636,1.0,283.0,8.0,1.04569,0.906397
White,18,Right,18,Female,No,English,A,285,1,4,8,180.0,1.0,1.0,540.535,1.0,284.0,8.0,1.107,0.916618
White,18,Right,18,Female,No,English,A,286,1,4,16,180.0,1.0,1.0,676.507,1.0,285.0,8.0,1.12658,0.866626
White,18,Right,18,Female,No,English,A,287,0,0,16,0.0,0.0,1.0,1554.11,1.0,286.0,8.0,1.0484,0.821721
White,18,Right,18,Female,No,English,A,288,1,8,16,0.0,0.0,1.0,1124.88,1.0,287.0,8.0,1.11659,0.991397
White,18,Right,18,Female,No,English,A,289,0,4,8,180.0,1.0,1.0,697.237,1.0,288.0,9.0,1.01144,0.837506
White,18,Right,18,Female,No,English,A,290,0,0,8,0.0,0.0,1.0,627.935,1.0,289.0,9.0,1.00159,0.812891
White,18,Right,18,Female,No,English,A,291,0,8,16,0.0,0.0,1.0,934.288,1.0,290.0,9.0,1.1547,0.806873
White,18,Right,18,Female,No,English,A,292,1,4,16,180.0,1.0,1.0,629.555,1.0,291.0,9.0,1.16701,0.902372
White,18,Right,18,Female,No,English,A,293,1,4,4,180.0,1.0,1.0,837.425,1.0,292.0,9.0,1.01548,0.832526
White,18,Right,18,Female,No,English,A,294,1,8,16,180.0,1.0,1.0,1685.73,1.0,293.0,9.0,1.01056,0.982653
White,18,Right,18,Female,No,English,A,295,0,16,0,0.0,0.0,1.0,707.062,1.0,294.0,9.0,1.02498,0.940947
White,18,Right,18,Female,No,English,A,296,0,16,4,0.0,0.0,1.0,595.092,1.0,295.0,9.0,1.03151,0.834374
White,18,Right,18,Female,No,English,A,297,0,0,0,0.0,0.0,1.0,488.528,1.0,296.0,9.0,1.03487,0.901065
White,18,Right,18,Female,No,English,A,298,0,8,8,0.0,0.0,1.0,1464.39,1.0,297.0,9.0,1.00223,0.916659
White,18,Right,18,Female,No,English,A,299,1,4,8,0.0,0.0,1.0,762.468,1.0,298.0,9.0,1.12138,0.974378
White,18,Right,18,Female,No,English,A,300,0,4,4,180.0,1.0,1.0,862.423,1.0,299.0,9.0,1.19934,0.887546
White,18,Right,18,Female,No,English,A,301,1,8,8,0.0,0.0,1.0,668.531,1.0,300.0,9.0,1.13169,0.866117
White,18,Right,18,Female,No,English,A,302,1,4,0,180.0,1.0,1.0,703.731,1.0,301.0,9.0,1.15822,0.947425
White,18,Right,18,Female,No,English,A,303,0,4,16,0.0,0.0,1.0,560.468,1.0,302.0,9.0,1.02451,0.950344
White,18,Right,18,Female,No,English,A,304,1,16,0,180.0,1.0,1.0,999.178,1.0,303.0,9.0,1.19791,0.979087
White,18,Right,18,Female,No,English,A,305,1,0,0,180.0,1.0,1.0,555.413,1.0,304.0,9.0,1.07541,0.968656
White,18,Right,18,Female,No,English,A,306,0,8,4,0.0,0.0,1.0,1065.18,1.0,305.0,9.0,1.13027,0.986356
White,18,Right,18,Female,No,English,A,307,1,0,16,180.0,1.0,1.0,621.763,1.0,306.0,9.0,1.11655,0.959275
White,18,Right,18,Female,No,English,A,308,1,16,8,0.0,0.0,1.0,601.865,1.0,307.0,9.0,1.1488,0.876373
White,18,Right,18,Female,No,English,A,309,1,8,0,0.0,0.0,1.0,585.098,1.0,308.0,9.0,1.05601,0.899558
White,18,Right,18,Female,No,English,A,310,1,8,4,180.0,1.0,1.0,683.15,1.0,309.0,9.0,1.17142,0.903463
White,18,Right,18,Female,No,English,A,311,1,16,16,180.0,1.0,1.0,577.066,1.0,310.0,9.0,1.00657,0.81557
White,18,Right,18,Female,No,English,A,312,0,16,16,180.0,1.0,1.0,1048.21,1.0,311.0,9.0,1.0472,0.992155
White,18,Right,18,Female,No,English,A,313,0,16,8,0.0,0.0,1.0,581.221,1.0,312.0,9.0,1.08294,0.964873
White,18,Right,18,Female,No,English,A,314,1,16,4,0.0,0.0,1.0,796.515,1.0,313.0,9.0,1.04151,0.97232
White,18,Right,18,Female,No,English,A,315,1,0,8,180.0,1.0,1.0,734.923,1.0,314.0,9.0,1.0756,0.925866
White,18,Right,18,Female,No,English,A,316,0,0,16,0.0,0.0,1.0,1160.38,1.0,315.0,9.0,1.14333,0.941327
White,18,Right,18,Female,No,English,A,317,1,0,4,180.0,1.0,1.0,880.485,1.0,316.0,9.0,1.03138,0.896936
White,18,Right,18,Female,No,English,A,318,0,4,0,180.0,1.0,1.0,911.866,1.0,317.0,9.0,1.11928,0.895262
White,18,Right,18,Female,No,English,A,319,0,8,0,0.0,0.0,1.0,868.102,1.0,318.0,9.0,1.0047,0.820562
White,18,Right,18,Female,No,English,A,320,0,0,4,180.0,1.0,1.0,624.103,1.0,319.0,9.0,1.11871,0.857536
White,18,Right,18,Female,No,English,A,321,0,0,8,180.0,1.0,1.0,639.118,1.0,320.0,10.0,1.15636,0.894706
White,18,Right,18,Female,No,English,A,322,0,16,4,180.0,1.0,1.0,617.7,1.0,321.0,10.0,1.16831,0.805188
White,18,Right,18,Female,No,English,A,323,0,4,0,0.0,0.0,1.0,599.71,1.0,322.0,10.0,1.03759,0.906512
White,18,Right,18,Female,No,English,A,324,1,16,8,0.0,0.0,1.0,830.896,1.0,323.0,10.0,1.10646,0.884005
White,18,Right,18,Female,No,English,A,325,1,4,8,0.0,0.0,1.0,1061.87,1.0,324.0,10.0,1.07793,0.802694
White,18,Right,18,Female,No,English,A,326,1,8,8,180.0,1.0,1.0,808.465,1.0,325.0,10.0,1.09438,0.822711
White,18,Right,18,Female,No,English,A,327,1,4,0,180.0,1.0,1.0,714.895,1.0,326.0,10.0,1.04337,0.863064
White,18,Right,18,Female,No,English,A,328,1,16,0,180.0,1.0,1.0,655.849,1.0,327.0,10.0,1.03357,0.912614
White,18,Right,18,Female,No,English,A,329,0,16,16,0.0,0.0,1.0,1087.07,1.0,328.0,10.0,1.13661,0.802804
White,18,Right,18,Female,No,English,A,330,1,4,16,0.0,0.0,1.0,590.816,1.0,329.0,10.0,1.12035,0.88251
White,18,Right,18,Female,No,English,A,331,0,8,16,0.0,0.0,1.0,547.891,1.0,330.0,10.0,1.15159,0.904129
White,18,Right,18,Female,No,English,A,332,1,0,0,180.0,1.0,1.0,633.663,1.0,331.0,10.0,1.00407,0.9964
White,18,Right,18,Female,No,English,A,333,1,8,0,180.0,1.0,1.0,840.14,1.0,332.0,10.0,1.18171,0.865344
White,18,Right,18,Female,No,English,A,334,0,8,8,180.0,1.0,1.0,786.006,1.0,333.0,10.0,1.18895,0.943675
White,18,Right,18,Female,No,English,A,335,0,4,16,180.0,1.0,1.0,584.983,1.0,334.0,10.0,1.05695,0.938752
White,18,Right,18,Female,No,English,A,336,1,16,4,180.0,1.0,1.0,1214.83,1.0,335.0,10.0,1.15445,0.938386
White,18,Right,18,Female,No,English,A,337,0,0,16,0.0,0.0,1.0,753.542,1.0,336.0,10.0,1.16158,0.986234
White,18,Right,18,Female,No,English,A,338,0,0,4,0.0,0.0,1.0,790.815,1.0,337.0,10.0,1.05287,0.885161
White,18,Right,18,Female,No,English,A,339,0,8,0,180.0,1.0,1.0,685.306,1.0,338.0,10.0,1.11254,0.920345
White,18,Right,18,Female,No,English,A,340,1,4,4,180.0,1.0,1.0,734.804,1.0,339.0,10.0,1.09466,0.821772
White,18,Right,18,Female,No,English,A,341,1,16,16,0.0,0.0,1.0,640.077,1.0,340.0,10.0,1.00825,0.99829
White,18,Right,18,Female,No,English,A,342,1,8,16,0.0,0.0,1.0,855.928,1.0,341.0,10.0,1.19989,0.969895
White,18,Right,18,Female,No,English,A,343,0,16,8,0.0,0.0,1.0,589.607,1.0,342.0,10.0,1.0001,0.893012
White,18,Right,18,Female,No,English,A,344,0,4,8,180.0,1.0,1.0,1386.57,1.0,343.0,10.0,1.08765,0.885081
White,18,Right,18,Female,No,English,A,345,1,0,4,0.0,0.0,1.0,616.15,1.0,344.0,10.0,1.05417,0.936964
White,18,Right,18,Female,No,English,A,346,1,0,16,180.0,1.0,1.0,676.767,1.0,345.0,10.0,1.00015,0.940886
White,18,Right,18,Female,No,English,A,347,0,16,0,180.0,1.0,1.0,725.467,1.0,346.0,10.0,1.01039,0.825388
White,18,Right,18,Female,No,English,A,348,0,4,4,0.0,0.0,1.0,749.614,1.0,347.0,10.0,1.05099,0.851171
White,18,Right,18,Female,No,English,A,349,1,8,4,0.0,0.0,1.0,686.862,1.0,348.0,10.0,1.11652,0.898025
White,18,Right,18,Female,No,English,A,350,0,8,4,0.0,0.0,1.0,754.29,1.0,349.0,10.0,1.01136,0.95467
White,18,Right,18,Female,No,English,A,351,0,0,0,180.0,1.0,1.0,601.31,1.0,350.0,10.0,1.06106,0.874142
White,18,Right,18,Female,No,English,A,352,1,0,8,0.0,0.0,1.0,911.396,1.0,351.0,10.0,1.09053,0.975089
White,18,Right,18,Female,No,English,A,353,0,8,16,180.0,1.0,1.0,1272.45,1.0,352.0,11.0,1.16693,0.819279
White,18,Right,18,Female,No,English,A,354,1,8,8,180.0,1.0,1.0,854.492,1.0,353.0,11.0,1.19863,0.989005
White,18,Right,18,Female,No,English,A,355,1,16,4,0.0,0.0,1.0,707.976,1.0,354.0,11.0,1.00095,0.853841
White,18,Right,18,Female,No,English,A,356,1,0,4,180.0,1.0,1.0,1368.42,1.0,355.0,11.0,1.05788,0.951987
White,18,Right,18,Female,No,English,A,357,0,0,0,0.0,0.0,1.0,730.484,1.0,356.0,11.0,1.0149,0.822346
White,18,Right,18,Female,No,English,A,358,1,4,0,180.0,1.0,1.0,625.475,1.0,357.0,11.0,1.04598,0.994597
White,18,Right,18,Female,No,English,A,359,1,16,8,180.0,1.0,1.0,656.155,1.0,358.0,11.0,1.16536,0.831583
White,18,Right,18,Female,No,English,A,360,0,0,16,0.0,0.0,1.0,854.043,1.0,359.0,11.0,1.10508,0.939864
White,18,Right,18,Female,No,English,A,361,1,8,0,0.0,0.0,1.0,1449.53,1.0,360.0,11.0,1.04931,0.946749
White,18,Right,18,Female,No,English,A,362,1,0,8,0.0,0.0,1.0,538.68,1.0,361.0,11.0,1.05714,0.852494
White,18,Right,18,Female,No,English,A,363,0,16,16,180.0,1.0,1.0,813.983,1.0,362.0,11.0,1.16834,0.9754
White,18,Right,18,Female,No,English,A,364,0,0,8,0.0,1.0,0.0,606.463,1.0,363.0,11.0,1.17679,0.972488
White,18,Right,18,Female,No,English,A,365,1,4,4,180.0,1.0,1.0,941.268,1.0,364.0,11.0,1.08492,0.840127
White,18,Right,18,Female,No,English,A,366,0,4,0,180.0,1.0,1.0,641.869,1.0,365.0,11.0,1.03463,0.988502
White,18,Right,18,Female,No,English,A,367,1,0,16,0.0,0.0,1.0,724.768,1.0,366.0,11.0,1.02231,0.998566
White,18,Right,18,Female,No,English,A,368,1,16,16,0.0,0.0,1.0,756.969,1.0,367.0,11.0,1.04916,0.973139
White,18,Right,18,Female,No,English,A,369,1,4,16,180.0,1.0,1.0,838.054,1.0,368.0,11.0,1.1895,0.870013
White,18,Right,18,Female,No,English,A,370,1,16,0,0.0,0.0,1.0,988.868,1.0,369.0,11.0,1.0728,0.998846
White,18,Right,18,Female,No,English,A,371,1,8,16,180.0,1.0,1.0,952.549,1.0,370.0,11.0,1.11168,0.83475
White,18,Right,18,Female,No,English,A,372,0,4,4,0.0,0.0,1.0,694.105,1.0,371.0,11.0,1.00496,0.851815
White,18,Right,18,Female,No,English,A,373,0,4,8,180.0,1.0,1.0,922.985,1.0,372.0,11.0,1.10897,0.883977
White,18,Right,18,Female,No,English,A,374,0,8,8,180.0,1.0,1.0,1019.06,1.0,373.0,11.0,1.07843,0.946976
White,18,Right,18,Female,No,English,A,375,0,0,4,0.0,0.0,1.0,878.727,1.0,374.0,11.0,1.10948,0.836998
White,18,Right,18,Female,No,English,A,376,1,0,0,0.0,0.0,1.0,774.264,1.0,375.0,11.0,1.0953,0.879119
White,18,Right,18,Female,No,English,A,377,0,4,16,180.0,1.0,1.0,667.513,1.0,376.0,11.0,1.19388,0.800583
White,18,Right,18,Female,No,English,A,378,0,8,0,0.0,0.0,1.0,801.248,1.0,377.0,11.0,1.07039,0.869762
White,18,Right,18,Female,No,English,A,379,1,8,4,0.0,0.0,1.0,1424.83,1.0,378.0,11.0,1.15772,0.936258
White,18,Right,18,Female,No,English,A,380,0,8,4,180.0,1.0,1.0,1540.66,1.0,379.0,11.0,1.18779,0.99582
White,18,Right,18,Female,No,English,A,381,0,16,4,0.0,0.0,1.0,920.011,1.0,380.0,11.0,1.12068,0.86254
White,18,Right,18,Female,No,English,A,382,1,4,8,180.0,1.0,1.0,1539.53,1.0,381.0,11.0,1.09381,0.822576
White,18,Right,18,Female,No,English,A,383,0,16,0,0.0,0.0,1.0,1584.3,1.0,382.0,11.0,1.18853,0.822066
White,18,Right,18,Female,No,English,A,384,0,16,8,180.0,1.0,1.0,701.486,1.0,383.0,11.0,1.10251,0.91039
White,18,Right,18,Female,No,English,A,385,1,8,0,180.0,1.0,1.0,1052.36,1.0,384.0,12.0,1.05381,0.955222
White,18,Right,18,Female,No,English,A,386,0,16,16,0.0,0.0,1.0,838.029,1.0,385.0,12.0,1.08453,0.947985
White,18,Right,18,Female,No,English,A,387,1,4,0,180.0,1.0,1.0,712.091,1.0,386.0,12.0,1.003,0.964817
White,18,Right,18,Female,No,English,A,388,1,4,4,0.0,0.0,1.0,787.172,1.0,387.0,12.0,1.17192,0.87664
White,18,Right,18,Female,No,English,A,389,0,0,4,0.0,0.0,1.0,594.489,1.0,388.0,12.0,1.18527,0.893397
White,18,Right,18,Female,No,English,A,390,0,8,8,180.0,1.0,1.0,769.047,1.0,389.0,12.0,1.19386,0.824512
White,18,Right,18,Female,No,English,A,391,0,8,0,0.0,0.0,1.0,545.217,1.0,390.0,12.0,1.00049,0.984499
White,18,Right,18,Female,No,English,A,392,1,0,0,0.0,0.0,1.0,984.71,1.0,391.0,12.0,1.14706,0.924409
White,18,Right,18,Female,No,English,A,393,1,4,16,0.0,0.0,1.0,1086.06,1.0,392.0,12.0,1.06578,0.908389
White,18,Right,18,Female,No,English,A,394,0,0,8,180.0,9999.0,0.0,9999.0,1.0,393.0,12.0,1.07615,0.881618
White,18,Right,18,Female,No,English,A,395,1,16,16,180.0,1.0,1.0,802.614,1.0,394.0,12.0,1.17976,0.830917
White,18,Right,18,Female,No,English,A,396,1,4,8,0.0,0.0,1.0,836.12,1.0,395.0,12.0,1.18345,0.931836
White,18,Right,18,Female,No,English,A,397,1,0,16,180.0,1.0,1.0,600.136,1.0,396.0,12.0,1.03143,0.801145
White,18,Right,18,Female,No,English,A,398,1,16,0,180.0,1.0,1.0,679.373,1.0,397.0,12.0,1.09293,0.894071
White,18,Right,18,Female,No,English,A,399,0,16,8,180.0,1.0,1.0,687.762,1.0,398.0,12.0,1.15341,0.97591
White,18,Right,18,Female,No,English,A,400,1,0,8,180.0,1.0,1.0,778.603,1.0,399.0,12.0,1.03635,0.985857
White,18,Right,18,Female,No,English,A,401,1,8,16,0.0,0.0,1.0,1295.78,1.0,400.0,12.0,1.06118,0.903756
White,18,Right,18,Female,No,English,A,402,1,16,4,0.0,0.0,1.0,788.63,1.0,401.0,12.0,1.03188,0.802198
White,18,Right,18,Female,No,English,A,403,0,4,4,180.0,1.0,1.0,1026.65,1.0,402.0,12.0,1.08749,0.868735
White,18,Right,18,Female,No,English,A,404,0,4,16,0.0,0.0,1.0,743.655,1.0,403.0,12.0,1.17949,0.913706
White,18,Right,18,Female,No,English,A,405,1,8,4,0.0,0.0,1.0,802.997,1.0,404.0,12.0,1.0129,0.92353
White,18,Right,18,Female,No,English,A,406,0,16,4,0.0,0.0,1.0,922.87,1.0,405.0,12.0,1.13092,0.846471
White,18,Right,18,Female,No,English,A,407,0,16,0,180.0,1.0,1.0,1301.62,1.0,406.0,12.0,1.00128,0.962579
White,18,Right,18,Female,No,English,A,408,0,0,16,0.0,0.0,1.0,602.858,1.0,407.0,12.0,1.03006,0.942311
White,18,Right,18,Female,No,English,A,409,0,8,16,0.0,0.0,1.0,1113.28,1.0,408.0,12.0,1.16254,0.909949
White,18,Right,18,Female,No,English,A,410,1,8,8,180.0,1.0,1.0,1748.28,1.0,409.0,12.0,1.10232,0.81522
White,18,Right,18,Female,No,English,A,411,1,0,4,180.0,1.0,1.0,561.959,1.0,410.0,12.0,1.01505,0.877944
White,18,Right,18,Female,No,English,A,412,1,16,8,0.0,0.0,1.0,780.549,1.0,411.0,12.0,1.13972,0.966983
White,18,Right,18,Female,No,English,A,413,0,8,4,180.0,1.0,1.0,1042.86,1.0,412.0,12.0,1.16785,0.980838
White,18,Right,18,Female,No,English,A,414,0,4,8,180.0,1.0,1.0,1615.77,1.0,413.0,12.0,1.0801,0.923656
White,18,Right,18,Female,No,English,A,415,0,4,0,0.0,1.0,0.0,564.29,1.0,414.0,12.0,1.05904,0.935229
White,18,Right,18,Female,No,English,A,416,0,0,0,180.0,1.0,1.0,682.789,1.0,415.0,12.0,1.04243,0.928756
White,18,Right,18,Female,No,English,A,417,1,16,8,0.0,0.0,1.0,857.611,1.0,416.0,13.0,1.01469,0.938303
White,18,Right,18,Female,No,English,A,418,0,4,16,180.0,1.0,1.0,699.299,1.0,417.0,13.0,1.07723,0.971536
White,18,Right,18,Female,No,English,A,419,0,16,8,180.0,1.0,1.0,1424.45,1.0,418.0,13.0,1.18726,0.956562
White,18,Right,18,Female,No,English,A,420,1,16,4,0.0,0.0,1.0,1731.56,1.0,419.0,13.0,1.09621,0.97464
White,18,Right,18,Female,No,English,A,421,0,8,16,0.0,0.0,1.0,1929.69,1.0,420.0,13.0,1.0209,0.806014
White,18,Right,18,Female,No,English,A,422,0,8,4,180.0,9999.0,0.0,9999.0,1.0,421.0,13.0,1.0585,0.970357
White,18,Right,18,Female,No,English,A,423,1,8,8,180.0,1.0,1.0,989.35,1.0,422.0,13.0,1.17193,0.847861
White,18,Right,18,Female,No,English,A,424,1,16,16,0.0,0.0,1.0,884.291,1.0,423.0,13.0,1.12699,0.853372
White,18,Right,18,Female,No,English,A,425,0,4,4,180.0,1.0,1.0,633.661,1.0,424.0,13.0,1.04226,0.844658
White,18,Right,18,Female,No,English,A,426,1,8,4,0.0,0.0,1.0,1138.08,1.0,425.0,13.0,1.13082,0.873568
White,18,Right,18,Female,No,English,A,427,1,4,8,180.0,9999.0,0.0,9999.0,1.0,426.0,13.0,1.14789,0.953172
White,18,Right,18,Female,No,English,A,428,0,8,0,0.0,0.0,1.0,600.799,1.0,427.0,13.0,1.07903,0.900194
White,18,Right,18,Female,No,English,A,429,0,8,8,0.0,0.0,1.0,765.828,1.0,428.0,13.0,1.01933,0.843307
White,18,Right,18,Female,No,English,A,430,0,0,8,180.0,1.0,1.0,746.108,1.0,429.0,13.0,1.02651,0.827289
White,18,Right,18,Female,No,English,A,431,1,8,0,0.0,0.0,1.0,886.458,1.0,430.0,13.0,1.06649,0.884954
White,18,Right,18,Female,No,English,A,432,0,16,16,180.0,1.0,1.0,797.173,1.0,431.0,13.0,1.01207,0.858276
White,18,Right,18,Female,No,English,A,433,1,8,16,180.0,1.0,1.0,1686.03,1.0,432.0,13.0,1.01124,0.986415
White,18,Right,18,Female,No,English,A,434,1,0,4,0.0,0.0,1.0,744.709,1.0,433.0,13.0,1.19961,0.8679
White,18,Right,18,Female,No,English,A,435,0,4,0,180.0,1.0,1.0,710.684,1.0,434.0,13.0,1.02648,0.940632
White,18,Right,18,Female,No,English,A,436,1,0,8,0.0,1.0,0.0,579.79,1.0,435.0,13.0,1.09568,0.809352
White,18,Right,18,Female,No,English,A,437,1,0,16,180.0,1.0,1.0,585.775,1.0,436.0,13.0,1.15809,0.892313
White,18,Right,18,Female,No,English,A,438,1,4,16,180.0,1.0,1.0,912.702,1.0,437.0,13.0,1.01384,0.922122
White,18,Right,18,Female,No,English,A,439,1,0,0,180.0,1.0,1.0,675.109,1.0,438.0,13.0,1.06982,0.887651
White,18,Right,18,Female,No,English,A,440,0,0,16,180.0,1.0,1.0,1174.87,1.0,439.0,13.0,1.16912,0.927029
White,18,Right,18,Female,No,English,A,441,1,4,4,0.0,0.0,1.0,2054.98,1.0,440.0,13.0,1.02621,0.895138
White,18,Right,18,Female,No,English,A,442,0,16,0,0.0,0.0,1.0,907.028,1.0,441.0,13.0,1.00476,0.901527
White,18,Right,18,Female,No,English,A,443,1,4,0,0.0,0.0,1.0,843.077,1.0,442.0,13.0,1.17335,0.883209
White,18,Right,18,Female,No,English,A,444,0,0,4,180.0,1.0,1.0,737.442,1.0,443.0,13.0,1.00879,0.848594
White,18,Right,18,Female,No,English,A,445,0,16,4,0.0,9999.0,0.0,9999.0,1.0,444.0,13.0,1.08848,0.822583
White,18,Right,18,Female,No,English,A,446,0,4,8,0.0,0.0,1.0,749.214,1.0,445.0,13.0,1.13838,0.945274
White,18,Right,18,Female,No,English,A,447,1,16,0,0.0,0.0,1.0,682.277,1.0,446.0,13.0,1.0107,0.950078
White,18,Right,18,Female,No,English,A,448,0,0,0,180.0,1.0,1.0,572.105,1.0,447.0,13.0,1.00282,0.948779
White,18,Right,18,Female,No,English,A,449,1,0,8,180.0,1.0,1.0,683.011,1.0,448.0,14.0,1.01069,0.958026
White,18,Right,18,Female,No,English,A,450,1,0,4,180.0,1.0,1.0,1006.75,1.0,449.0,14.0,1.09231,0.840588
White,18,Right,18,Female,No,English,A,451,1,4,8,0.0,0.0,1.0,1210.89,1.0,450.0,14.0,1.06398,0.901124
White,18,Right,18,Female,No,English,A,452,1,8,8,0.0,0.0,1.0,986.79,1.0,451.0,14.0,1.00087,0.84021
White,18,Right,18,Female,No,English,A,453,1,16,4,180.0,1.0,1.0,748.891,1.0,452.0,14.0,1.14275,0.979992
White,18,Right,18,Female,No,English,A,454,0,16,4,0.0,0.0,1.0,585.991,1.0,453.0,14.0,1.00647,0.930394
White,18,Right,18,Female,No,English,A,455,1,16,8,180.0,1.0,1.0,1607.74,1.0,454.0,14.0,1.05427,0.857779
White,18,Right,18,Female,No,English,A,456,0,0,8,180.0,1.0,1.0,425.317,1.0,455.0,14.0,1.17952,0.815916
White,18,Right,18,Female,No,English,A,457,0,16,8,0.0,0.0,1.0,673.472,1.0,456.0,14.0,1.05116,0.923265
White,18,Right,18,Female,No,English,A,458,0,8,8,0.0,0.0,1.0,748.988,1.0,457.0,14.0,1.0244,0.936174
White,18,Right,18,Female,No,English,A,459,0,16,0,0.0,0.0,1.0,768.989,1.0,458.0,14.0,1.0508,0.900654
White,18,Right,18,Female,No,English,A,460,0,4,16,180.0,1.0,1.0,1859.37,1.0,459.0,14.0,1.13485,0.919461
White,18,Right,18,Female,No,English,A,461,0,8,4,0.0,0.0,1.0,904.313,1.0,460.0,14.0,1.18971,0.933853
White,18,Right,18,Female,No,English,A,462,0,4,4,0.0,0.0,1.0,673.3,1.0,461.0,14.0,1.18285,0.991864
White,18,Right,18,Female,No,English,A,463,0,8,16,180.0,1.0,1.0,760.996,1.0,462.0,14.0,1.05098,0.851366
White,18,Right,18,Female,No,English,A,464,1,4,4,0.0,0.0,1.0,816.577,1.0,463.0,14.0,1.16107,0.815974
White,18,Right,18,Female,No,English,A,465,1,0,0,180.0,1.0,1.0,962.036,1.0,464.0,14.0,1.17918,0.991022
White,18,Right,18,Female,No,English,A,466,1,16,0,0.0,0.0,1.0,661.401,1.0,465.0,14.0,1.07687,0.990943
White,18,Right,18,Female,No,English,A,467,1,8,4,0.0,0.0,1.0,949.642,1.0,466.0,14.0,1.116,0.960876
White,18,Right,18,Female,No,English,A,468,1,4,0,0.0,0.0,1.0,910.673,1.0,467.0,14.0,1.06887,0.927057
White,18,Right,18,Female,No,English,A,469,1,8,16,180.0,1.0,1.0,1196.01,1.0,468.0,14.0,1.09719,0.908183
White,18,Right,18,Female,No,English,A,470,1,8,0,180.0,1.0,1.0,967.224,1.0,469.0,14.0,1.05154,0.859006
White,18,Right,18,Female,No,English,A,471,0,8,0,180.0,0.0,0.0,752.819,1.0,470.0,14.0,1.1488,0.94706
White,18,Right,18,Female,No,English,A,472,1,0,16,180.0,1.0,1.0,624.123,1.0,471.0,14.0,1.17136,0.889893
White,18,Right,18,Female,No,English,A,473,1,16,16,180.0,1.0,1.0,868.296,1.0,472.0,14.0,1.07913,0.933365
White,18,Right,18,Female,No,English,A,474,1,4,16,180.0,1.0,1.0,488.257,1.0,473.0,14.0,1.14758,0.966917
White,18,Right,18,Female,No,English,A,475,0,0,16,0.0,0.0,1.0,821.999,1.0,474.0,14.0,1.08088,0.83142
White,18,Right,18,Female,No,English,A,476,0,4,0,0.0,0.0,1.0,1502.89,1.0,475.0,14.0,1.09724,0.932789
White,18,Right,18,Female,No,English,A,477,0,0,0,0.0,0.0,1.0,532.907,1.0,476.0,14.0,1.08597,0.94235
White,18,Right,18,Female,No,English,A,478,0,0,4,0.0,0.0,1.0,1201.9,1.0,477.0,14.0,1.18721,0.928769
White,18,Right,18,Female,No,English,A,479,0,16,16,180.0,1.0,1.0,1064.54,1.0,478.0,14.0,1.08246,0.802468
White,18,Right,18,Female,No,English,A,480,0,4,8,180.0,1.0,1.0,1463.63,1.0,479.0,14.0,1.04529,0.993319
White,18,Right,18,Female,No,English,A,481,1,0,16,180.0,1.0,1.0,602.328,1.0,480.0,15.0,1.17146,0.996037
White,18,Right,18,Female,No,English,A,482,0,4,4,180.0,1.0,1.0,729.913,1.0,481.0,15.0,1.12345,0.896012
White,18,Right,18,Female,No,English,A,483,1,16,4,0.0,0.0,1.0,1022.63,1.0,482.0,15.0,1.04166,0.807176
White,18,Right,18,Female,No,English,A,484,0,8,4,0.0,0.0,1.0,706.318,1.0,483.0,15.0,1.12559,0.854929
White,18,Right,18,Female,No,English,A,485,0,16,16,180.0,1.0,1.0,1381.42,1.0,484.0,15.0,1.08788,0.892672
White,18,Right,18,Female,No,English,A,486,0,8,8,180.0,0.0,0.0,1646.59,1.0,485.0,15.0,1.12752,0.823934
White,18,Right,18,Female,No,English,A,487,0,4,8,180.0,1.0,1.0,566.62,1.0,486.0,15.0,1.13175,0.974729
White,18,Right,18,Female,No,English,A,488,1,0,0,180.0,1.0,1.0,698.197,1.0,487.0,15.0,1.07891,0.968738
White,18,Right,18,Female,No,English,A,489,0,8,0,180.0,1.0,1.0,520.423,1.0,488.0,15.0,1.00257,0.980211
White,18,Right,18,Female,No,English,A,490,0,4,0,0.0,0.0,1.0,555.136,1.0,489.0,15.0,1.00088,0.911057
White,18,Right,18,Female,No,English,A,491,1,4,4,0.0,0.0,1.0,1159.18,1.0,490.0,15.0,1.11825,0.979294
White,18,Right,18,Female,No,English,A,492,1,4,16,0.0,0.0,1.0,772.229,1.0,491.0,15.0,1.10258,0.901471
White,18,Right,18,Female,No,English,A,493,0,4,16,180.0,1.0,1.0,1626.16,1.0,492.0,15.0,1.05999,0.845709
White,18,Right,18,Female,No,English,A,494,0,16,4,180.0,1.0,1.0,617.985,1.0,493.0,15.0,1.08467,0.925546
White,18,Right,18,Female,No,English,A,495,1,16,0,0.0,0.0,1.0,1207.52,1.0,494.0,15.0,1.1902,0.951575
White,18,Right,18,Female,No,English,A,496,0,0,4,0.0,0.0,1.0,689.203,1.0,495.0,15.0,1.13136,0.92638
White,18,Right,18,Female,No,English,A,497,1,4,0,0.0,0.0,1.0,768.534,1.0,496.0,15.0,1.1048,0.840725
White,18,Right,18,Female,No,English,A,498,0,16,0,180.0,1.0,1.0,1076.33,1.0,497.0,15.0,1.15682,0.998068
White,18,Right,18,Female,No,English,A,499,0,0,0,180.0,1.0,1.0,801.323,1.0,498.0,15.0,1.19522,0.812713
White,18,Right,18,Female,No,English,A,500,0,0,16,0.0,0.0,1.0,521.814,1.0,499.0,15.0,1.06807,0.896681
White,18,Right,18,Female,No,English,A,501,0,0,8,0.0,0.0,1.0,501.23,1.0,500.0,15.0,1.14862,0.825624
White,18,Right,18,Female,No,English,A,502,0,16,8,180.0,1.0,1.0,654.443,1.0,501.0,15.0,1.1028,0.985851
White,18,Right,18,Female,No,English,A,503,1,4,8,0.0,0.0,1.0,662.5,1.0,502.0,15.0,1.12339,0.88856
White,18,Right,18,Female,No,English,A,504,1,8,8,180.0,1.0,1.0,903.512,1.0,503.0,15.0,1.15121,0.888453
White,18,Right,18,Female,No,English,A,505,0,8,16,180.0,1.0,1.0,1373.07,1.0,504.0,15.0,1.0235,0.933222
White,18,Right,18,Female,No,English,A,506,1,0,8,180.0,1.0,1.0,765.108,1.0,505.0,15.0,1.03347,0.886395
White,18,Right,18,Female,No,English,A,507,1,8,0,0.0,0.0,1.0,716.109,1.0,506.0,15.0,1.14389,0.896189
White,18,Right,18,Female,No,English,A,508,1,8,16,180.0,1.0,1.0,598.926,1.0,507.0,15.0,1.06236,0.999493
White,18,Right,18,Female,No,English,A,509,1,0,4,0.0,0.0,1.0,645.841,1.0,508.0,15.0,1.10206,0.858776
White,18,Right,18,Female,No,English,A,510,1,8,4,0.0,0.0,1.0,1064.75,1.0,509.0,15.0,1.03615,0.983867
White,18,Right,18,Female,No,English,A,511,1,16,16,0.0,0.0,1.0,595.812,1.0,510.0,15.0,1.03775,0.871857
White,18,Right,18,Female,No,English,A,512,1,16,8,0.0,0.0,1.0,1367.34,1.0,511.0,15.0,1.0259,0.815689
White,18,Right,18,Female,No,English,A,513,0,16,8,0.0,0.0,1.0,1065.55,1.0,512.0,16.0,1.19541,0.928259
White,18,Right,18,Female,No,English,A,514,0,0,4,0.0,0.0,1.0,2236.75,1.0,513.0,16.0,1.13659,0.888146
White,18,Right,18,Female,No,English,A,515,1,4,16,180.0,1.0,1.0,479.922,1.0,514.0,16.0,1.03982,0.914311
White,18,Right,18,Female,No,English,A,516,0,16,0,0.0,0.0,1.0,1386.19,1.0,515.0,16.0,1.12801,0.95308
White,18,Right,18,Female,No,English,A,517,0,8,4,180.0,1.0,1.0,819.739,1.0,516.0,16.0,1.14807,0.885654
White,18,Right,18,Female,No,English,A,518,1,0,16,0.0,0.0,1.0,1384.05,1.0,517.0,16.0,1.09438,0.871941
White,18,Right,18,Female,No,English,A,519,0,4,0,180.0,1.0,1.0,1113.54,1.0,518.0,16.0,1.15085,0.990673
White,18,Right,18,Female,No,English,A,520,1,16,0,180.0,1.0,1.0,762.554,1.0,519.0,16.0,1.19092,0.819473
White,18,Right,18,Female,No,English,A,521,0,4,4,180.0,1.0,1.0,950.999,1.0,520.0,16.0,1.16296,0.950045
White,18,Right,18,Female,No,English,A,522,0,4,8,0.0,0.0,1.0,706.016,1.0,521.0,16.0,1.15622,0.926342
White,18,Right,18,Female,No,English,A,523,1,8,4,0.0,0.0,1.0,486.607,1.0,522.0,16.0,1.18397,0.992379
White,18,Right,18,Female,No,English,A,524,0,4,16,0.0,0.0,1.0,1067.78,1.0,523.0,16.0,1.19637,0.861994
White,18,Right,18,Female,No,English,A,525,1,4,0,180.0,1.0,1.0,820.052,1.0,524.0,16.0,1.00478,0.998829
White,18,Right,18,Female,No,English,A,526,1,16,16,180.0,1.0,1.0,761.199,1.0,525.0,16.0,1.13048,0.858578
White,18,Right,18,Female,No,English,A,527,1,16,8,180.0,1.0,1.0,1065.52,1.0,526.0,16.0,1.18075,0.987514
White,18,Right,18,Female,No,English,A,528,0,0,0,180.0,1.0,1.0,607.749,1.0,527.0,16.0,1.00768,0.865235
White,18,Right,18,Female,No,English,A,529,0,16,16,0.0,0.0,1.0,821.077,1.0,528.0,16.0,1.01444,0.97634
White,18,Right,18,Female,No,English,A,530,0,0,16,180.0,1.0,1.0,423.113,1.0,529.0,16.0,1.13485,0.882793
White,18,Right,18,Female,No,English,A,531,1,0,0,0.0,0.0,1.0,855.797,1.0,530.0,16.0,1.10741,0.865462
White,18,Right,18,Female,No,English,A,532,0,0,8,0.0,0.0,1.0,601.642,1.0,531.0,16.0,1.18036,0.970625
White,18,Right,18,Female,No,English,A,533,0,16,4,0.0,0.0,1.0,1102.42,1.0,532.0,16.0,1.17848,0.827399
White,18,Right,18,Female,No,English,A,534,1,4,4,180.0,1.0,1.0,1424.69,1.0,533.0,16.0,1.11163,0.874332
White,18,Right,18,Female,No,English,A,535,0,8,8,180.0,1.0,1.0,741.581,1.0,534.0,16.0,1.10741,0.887503
White,18,Right,18,Female,No,English,A,536,1,16,4,180.0,1.0,1.0,1428.73,1.0,535.0,16.0,1.05575,0.920523
White,18,Right,18,Female,No,English,A,537,0,8,0,180.0,1.0,1.0,757.557,1.0,536.0,16.0,1.05191,0.949357
White,18,Right,18,Female,No,English,A,538,0,8,16,0.0,0.0,1.0,664.382,1.0,537.0,16.0,1.15127,0.996356
White,18,Right,18,Female,No,English,A,539,1,8,8,0.0,0.0,1.0,1298.89,1.0,538.0,16.0,1.19165,0.871062
White,18,Right,18,Female,No,English,A,540,1,0,8,180.0,1.0,1.0,771.397,1.0,539.0,16.0,1.13095,0.972121
White,18,Right,18,Female,No,English,A,541,1,8,0,180.0,1.0,1.0,1486.26,1.0,540.0,16.0,1.10434,0.878259
White,18,Right,18,Female,No,English,A,542,1,0,4,0.0,1.0,0.0,613.295,1.0,541.0,16.0,1.13837,0.807546
White,18,Right,18,Female,No,English,A,543,1,4,8,0.0,0.0,1.0,781.668,1.0,542.0,16.0,1.1059,0.902045
White,18,Right,18,Female,No,English,A,544,1,8,16,0.0,0.0,1.0,590.982,1.0,543.0,16.0,1.18765,0.898879
White,18,Right,18,Female,No,English,A,545,1,8,4,180.0,1.0,1.0,742.434,1.0,544.0,17.0,1.18611,0.983021
White,18,Right,18,Female,No,English,A,546,1,16,4,0.0,0.0,1.0,912.358,1.0,545.0,17.0,1.09376,0.986834
White,18,Right,18,Female,No,English,A,547,0,4,16,0.0,0.0,1.0,2030.25,1.0,546.0,17.0,1.03299,0.952378
White,18,Right,18,Female,No,English,A,548,0,8,16,0.0,0.0,1.0,994.869,1.0,547.0,17.0,1.17952,0.898216
White,18,Right,18,Female,No,English,A,549,0,0,4,0.0,0.0,1.0,503.265,1.0,548.0,17.0,1.14785,0.989381
White,18,Right,18,Female,No,English,A,550,1,0,8,0.0,0.0,1.0,1136.44,1.0,549.0,17.0,1.17886,0.846261
White,18,Right,18,Female,No,English,A,551,0,0,0,180.0,0.0,0.0,467.804,1.0,550.0,17.0,1.11715,0.949416
White,18,Right,18,Female,No,English,A,552,1,16,0,180.0,1.0,1.0,1044.04,1.0,551.0,17.0,1.07769,0.903298
White,18,Right,18,Female,No,English,A,553,1,0,0,180.0,1.0,1.0,598.178,1.0,552.0,17.0,1.07964,0.879051
White,18,Right,18,Female,No,English,A,554,1,0,4,0.0,0.0,1.0,836.887,1.0,553.0,17.0,1.13852,0.849272
White,18,Right,18,Female,No,English,A,555,1,4,0,0.0,0.0,1.0,1038.58,1.0,554.0,17.0,1.18991,0.954792
White,18,Right,18,Female,No,English,A,556,1,8,16,180.0,1.0,1.0,752.989,1.0,555.0,17.0,1.0691,0.910899
White,18,Right,18,Female,No,English,A,557,0,16,0,180.0,1.0,1.0,1449.58,1.0,556.0,17.0,1.18879,0.933284
White,18,Right,18,Female,No,English,A,558,0,16,4,0.0,0.0,1.0,1211.12,1.0,557.0,17.0,1.0522,0.953234
White,18,Right,18,Female,No,English,A,559,0,4,4,0.0,0.0,1.0,484.772,1.0,558.0,17.0,1.08031,0.802664
White,18,Right,18,Female,No,English,A,560,0,0,8,0.0,0.0,1.0,808.366,1.0,559.0,17.0,1.12574,0.805013
White,18,Right,18,Female,No,English,A,561,1,4,4,0.0,0.0,1.0,1886.8,1.0,560.0,17.0,1.17324,0.833247
White,18,Right,18,Female,No,English,A,562,1,16,16,180.0,9999.0,0.0,9999.0,1.0,561.0,17.0,1.0957,0.859968
White,18,Right,18,Female,No,English,A,563,1,4,16,180.0,1.0,1.0,999.305,1.0,562.0,17.0,1.10709,0.860525
White,18,Right,18,Female,No,English,A,564,0,4,0,180.0,1.0,1.0,688.107,1.0,563.0,17.0,1.13414,0.817428
White,18,Right,18,Female,No,English,A,565,1,0,16,180.0,1.0,1.0,635.458,1.0,564.0,17.0,1.1123,0.82483
White,18,Right,18,Female,No,English,A,566,1,4,8,180.0,1.0,1.0,662.321,1.0,565.0,17.0,1.00194,0.882321
White,18,Right,18,Female,No,English,A,567,0,0,16,180.0,1.0,1.0,921.635,1.0,566.0,17.0,1.05613,0.929323
White,18,Right,18,Female,No,English,A,568,0,8,8,180.0,1.0,1.0,808.589,1.0,567.0,17.0,1.09035,0.900539
White,18,Right,18,Female,No,English,A,569,0,4,8,0.0,0.0,1.0,1218.45,1.0,568.0,17.0,1.18798,0.893875
White,18,Right,18,Female,No,English,A,570,1,8,8,180.0,1.0,1.0,1651.11,1.0,569.0,17.0,1.11461,0.946226
White,18,Right,18,Female,No,English,A,571,1,8,0,180.0,1.0,1.0,1162.24,1.0,570.0,17.0,1.19632,0.833338
White,18,Right,18,Female,No,English,A,572,0,8,0,0.0,0.0,1.0,1107.2,1.0,571.0,17.0,1.19484,0.922933
White,18,Right,18,Female,No,English,A,573,0,16,8,0.0,0.0,1.0,1423.71,1.0,572.0,17.0,1.18115,0.938762
White,18,Right,18,Female,No,English,A,574,0,16,16,0.0,0.0,1.0,794.833,1.0,573.0,17.0,1.00918,0.917315
White,18,Right,18,Female,No,English,A,575,1,16,8,0.0,0.0,1.0,445.414,1.0,574.0,17.0,1.1944,0.850776
White,18,Right,18,Female,No,English,A,576,0,8,4,180.0,0.0,0.0,486.014,1.0,575.0,17.0,1.03896,0.973063
White,18,Right,18,Female,No,English,A,577,1,8,4,0.0,0.0,1.0,2343.44,1.0,576.0,18.0,1.04367,0.905363
White,18,Right,18,Female,No,English,A,578,1,16,0,0.0,0.0,1.0,746.4,1.0,577.0,18.0,1.03535,0.932707
White,18,Right,18,Female,No,English,A,579,1,0,4,180.0,1.0,1.0,684.197,1.0,578.0,18.0,1.00526,0.842649
White,18,Right,18,Female,No,English,A,580,0,16,4,180.0,1.0,1.0,916.857,1.0,579.0,18.0,1.03925,0.913133
White,18,Right,18,Female,No,English,A,581,1,4,4,0.0,0.0,1.0,1083.97,1.0,580.0,18.0,1.03342,0.835685
White,18,Right,18,Female,No,English,A,582,0,0,8,0.0,0.0,1.0,693.374,1.0,581.0,18.0,1.11438,0.999618
White,18,Right,18,Female,No,English,A,583,0,8,16,0.0,0.0,1.0,762.889,1.0,582.0,18.0,1.09731,0.883677
White,18,Right,18,Female,No,English,A,584,1,4,8,0.0,0.0,1.0,877.513,1.0,583.0,18.0,1.08806,0.897588
White,18,Right,18,Female,No,English,A,585,1,16,8,180.0,1.0,1.0,629.758,1.0,584.0,18.0,1.11383,0.921029
White,18,Right,18,Female,No,English,A,586,0,8,8,0.0,0.0,1.0,898.578,1.0,585.0,18.0,1.19822,0.881123
White,18,Right,18,Female,No,English,A,587,0,0,16,0.0,0.0,1.0,787.888,1.0,586.0,18.0,1.18356,0.942592
White,18,Right,18,Female,No,English,A,588,0,16,0,180.0,1.0,1.0,672.015,1.0,587.0,18.0,1.05638,0.90028
White,18,Right,18,Female,No,English,A,589,1,8,16,180.0,0.0,0.0,567.914,1.0,588.0,18.0,1.19913,0.883854
White,18,Right,18,Female,No,English,A,590,1,0,8,0.0,0.0,1.0,873.902,1.0,589.0,18.0,1.09595,0.913111
White,18,Right,18,Female,No,English,A,591,1,8,0,0.0,0.0,1.0,1060.61,1.0,590.0,18.0,1.17416,0.951649
White,18,Right,18,Female,No,English,A,592,1,16,16,0.0,0.0,1.0,1410.28,1.0,591.0,18.0,1.0044,0.87036
White,18,Right,18,Female,No,English,A,593,0,4,16,180.0,1.0,1.0,758.931,1.0,592.0,18.0,1.10701,0.986877
White,18,Right,18,Female,No,English,A,594,0,4,0,180.0,1.0,1.0,573.435,1.0,593.0,18.0,1.02574,0.998325
White,18,Right,18,Female,No,English,A,595,0,8,4,0.0,0.0,1.0,834.771,1.0,594.0,18.0,1.01598,0.859281
White,18,Right,18,Female,No,English,A,596,0,4,4,180.0,1.0,1.0,934.622,1.0,595.0,18.0,1.18228,0.830622
White,18,Right,18,Female,No,English,A,597,0,16,16,0.0,0.0,1.0,1051.53,1.0,596.0,18.0,1.00746,0.843653
White,18,Right,18,Female,No,English,A,598,0,4,8,180.0,1.0,1.0,793.823,1.0,597.0,18.0,1.03734,0.839236
White,18,Right,18,Female,No,English,A,599,0,16,8,180.0,1.0,1.0,1684.21,1.0,598.0,18.0,1.08479,0.807457
White,18,Right,18,Female,No,English,A,600,0,0,4,180.0,1.0,1.0,737.94,1.0,599.0,18.0,1.16049,0.846683
White,18,Right,18,Female,No,English,A,601,0,8,0,0.0,0.0,1.0,694.742,1.0,600.0,18.0,1.01316,0.889096
White,18,Right,18,Female,No,English,A,602,1,0,0,0.0,0.0,1.0,502.677,1.0,601.0,18.0,1.13902,0.873621
White,18,Right,18,Female,No,English,A,603,1,4,0,180.0,1.0,1.0,1093.35,1.0,602.0,18.0,1.11035,0.939294
White,18,Right,18,Female,No,English,A,604,1,0,16,180.0,1.0,1.0,871.155,1.0,603.0,18.0,1.12027,0.804265
White,18,Right,18,Female,No,English,A,605,1,8,8,180.0,1.0,1.0,876.092,1.0,604.0,18.0,1.0845,0.919709
White,18,Right,18,Female,No,English,A,606,1,4,16,180.0,1.0,1.0,1009.14,1.0,605.0,18.0,1.18328,0.821997
White,18,Right,18,Female,No,English,A,607,1,16,4,0.0,0.0,1.0,891.736,1.0,606.0,18.0,1.01095,0.852888
White,18,Right,18,Female,No,English,A,608,0,0,0,180.0,1.0,1.0,579.389,1.0,607.0,18.0,1.06097,0.92638
White,18,Right,18,Female,No,English,A,609,0,16,0,0.0,0.0,1.0,859.567,1.0,608.0,19.0,1.17078,0.845002
White,18,Right,18,Female,No,English,A,610,1,16,0,180.0,1.0,1.0,912.749,1.0,609.0,19.0,1.01837,0.952711
White,18,Right,18,Female,No,English,A,611,1,0,8,180.0,1.0,1.0,704.39,1.0,610.0,19.0,1.15526,0.994732
White,18,Right,18,Female,No,English,A,612,1,16,4,180.0,1.0,1.0,1236.82,1.0,611.0,19.0,1.00413,0.93731
White,18,Right,18,Female,No,English,A,613,1,0,0,0.0,0.0,1.0,1324.48,1.0,612.0,19.0,1.05793,0.825331
White,18,Right,18,Female,No,English,A,614,0,4,16,180.0,1.0,1.0,739.376,1.0,613.0,19.0,1.07792,0.982406
White,18,Right,18,Female,No,English,A,615,0,4,0,0.0,0.0,1.0,1077.35,1.0,614.0,19.0,1.10239,0.919604
White,18,Right,18,Female,No,English,A,616,0,8,16,180.0,1.0,1.0,825.594,1.0,615.0,19.0,1.11553,0.858151
White,18,Right,18,Female,No,English,A,617,1,0,4,0.0,0.0,1.0,746.597,1.0,616.0,19.0,1.17716,0.949407
White,18,Right,18,Female,No,English,A,618,0,8,0,0.0,0.0,1.0,969.11,1.0,617.0,19.0,1.14485,0.936447
White,18,Right,18,Female,No,English,A,619,1,4,0,0.0,0.0,1.0,668.49,1.0,618.0,19.0,1.15728,0.890953
White,18,Right,18,Female,No,English,A,620,0,16,16,180.0,1.0,1.0,729.592,1.0,619.0,19.0,1.12175,0.995301
White,18,Right,18,Female,No,English,A,621,0,16,8,0.0,0.0,1.0,748.538,1.0,620.0,19.0,1.01881,0.80236
White,18,Right,18,Female,No,English,A,622,1,8,16,180.0,1.0,1.0,857.507,1.0,621.0,19.0,1.01721,0.959969
White,18,Right,18,Female,No,English,A,623,1,16,16,180.0,1.0,1.0,883.479,1.0,622.0,19.0,1.0805,0.936896
White,18,Right,18,Female,No,English,A,624,1,8,4,180.0,1.0,1.0,717.682,1.0,623.0,19.0,1.14903,0.883386
White,18,Right,18,Female,No,English,A,625,1,8,8,0.0,0.0,1.0,1138.95,1.0,624.0,19.0,1.19716,0.828942
White,18,Right,18,Female,No,English,A,626,0,0,8,180.0,1.0,1.0,713.848,1.0,625.0,19.0,1.06911,0.896631
White,18,Right,18,Female,No,English,A,627,0,0,4,0.0,0.0,1.0,755.436,1.0,626.0,19.0,1.19644,0.890333
White,18,Right,18,Female,No,English,A,628,1,4,16,0.0,0.0,1.0,1120.64,1.0,627.0,19.0,1.07384,0.936678
White,18,Right,18,Female,No,English,A,629,0,8,4,180.0,1.0,1.0,1867.44,1.0,628.0,19.0,1.17493,0.830868
White,18,Right,18,Female,No,English,A,630,0,0,16,0.0,0.0,1.0,690.274,1.0,629.0,19.0,1.01513,0.97718
White,18,Right,18,Female,No,English,A,631,1,16,8,180.0,1.0,1.0,634.23,1.0,630.0,19.0,1.11414,0.81218
White,18,Right,18,Female,No,English,A,632,1,0,16,0.0,0.0,1.0,729.029,1.0,631.0,19.0,1.12144,0.863268
White,18,Right,18,Female,No,English,A,633,1,4,8,180.0,1.0,1.0,767.204,1.0,632.0,19.0,1.01408,0.887338
White,18,Right,18,Female,No,English,A,634,0,4,4,0.0,0.0,1.0,729.577,1.0,633.0,19.0,1.18011,0.82372
White,18,Right,18,Female,No,English,A,635,0,16,4,0.0,0.0,1.0,635.223,1.0,634.0,19.0,1.15426,0.839773
White,18,Right,18,Female,No,English,A,636,1,8,0,180.0,1.0,1.0,893.376,1.0,635.0,19.0,1.05264,0.804583
White,18,Right,18,Female,No,English,A,637,0,8,8,0.0,0.0,1.0,1410.42,1.0,636.0,19.0,1.0233,0.880054
White,18,Right,18,Female,No,English,A,638,0,4,8,180.0,1.0,1.0,493.638,1.0,637.0,19.0,1.10241,0.996359
White,18,Right,18,Female,No,English,A,639,1,4,4,0.0,1.0,0.0,1176.35,1.0,638.0,19.0,1.16199,0.838889
White,18,Right,18,Female,No,English,A,640,0,0,0,180.0,1.0,1.0,645.082,1.0,639.0,19.0,1.1553,0.895026
White,18,Right,18,Female,No,English,A,641,1,8,4,0.0,0.0,1.0,852.637,1.0,640.0,20.0,1.04677,0.85235
White,18,Right,18,Female,No,English,A,642,0,16,4,0.0,0.0,1.0,632.565,1.0,641.0,20.0,1.09237,0.813204
White,18,Right,18,Female,No,English,A,643,0,4,8,180.0,1.0,1.0,653.734,1.0,642.0,20.0,1.01279,0.832968
White,18,Right,18,Female,No,English,A,644,1,16,16,180.0,1.0,1.0,1603.97,1.0,643.0,20.0,1.12266,0.963257
White,18,Right,18,Female,No,English,A,645,1,8,16,0.0,0.0,1.0,645.718,1.0,644.0,20.0,1.07107,0.976499
White,18,Right,18,Female,No,English,A,646,0,4,16,180.0,1.0,1.0,582.48,1.0,645.0,20.0,1.04078,0.930806
White,18,Right,18,Female,No,English,A,647,0,16,0,180.0,1.0,1.0,558.04,1.0,646.0,20.0,1.03008,0.977761
White,18,Right,18,Female,No,English,A,648,0,4,4,0.0,0.0,1.0,1121.87,1.0,647.0,20.0,1.00911,0.943198
White,18,Right,18,Female,No,English,A,649,1,8,0,180.0,1.0,1.0,764.25,1.0,648.0,20.0,1.07725,0.982555
White,18,Right,18,Female,No,English,A,650,0,16,8,180.0,1.0,1.0,613.805,1.0,649.0,20.0,1.03369,0.804908
White,18,Right,18,Female,No,English,A,651,1,0,16,0.0,0.0,1.0,604.277,1.0,650.0,20.0,1.08236,0.849812
White,18,Right,18,Female,No,English,A,652,1,16,4,180.0,1.0,1.0,1152.24,1.0,651.0,20.0,1.02643,0.823442
White,18,Right,18,Female,No,English,A,653,1,4,16,0.0,0.0,1.0,880.696,1.0,652.0,20.0,1.0577,0.858511
White,18,Right,18,Female,No,English,A,654,1,16,0,0.0,0.0,1.0,1129.74,1.0,653.0,20.0,1.00009,0.924346
White,18,Right,18,Female,No,English,A,655,0,0,0,180.0,1.0,1.0,701.845,1.0,654.0,20.0,1.12323,0.859033
White,18,Right,18,Female,No,English,A,656,1,4,0,180.0,1.0,1.0,650.77,1.0,655.0,20.0,1.03847,0.918015
White,18,Right,18,Female,No,English,A,657,0,16,16,180.0,1.0,1.0,1095.39,1.0,656.0,20.0,1.08724,0.904828
White,18,Right,18,Female,No,English,A,658,1,8,8,0.0,0.0,1.0,1368.47,1.0,657.0,20.0,1.17972,0.989742
White,18,Right,18,Female,No,English,A,659,1,0,4,0.0,0.0,1.0,840.615,1.0,658.0,20.0,1.17621,0.849607
White,18,Right,18,Female,No,English,A,660,1,16,8,0.0,0.0,1.0,1985.03,1.0,659.0,20.0,1.01529,0.872404
White,18,Right,18,Female,No,English,A,661,0,8,0,180.0,1.0,1.0,873.759,1.0,660.0,20.0,1.18221,0.924134
White,18,Right,18,Female,No,English,A,662,1,0,8,0.0,0.0,1.0,803.86,1.0,661.0,20.0,1.04255,0.938551
White,18,Right,18,Female,No,English,A,663,0,4,0,0.0,0.0,1.0,804.673,1.0,662.0,20.0,1.14756,0.98559
White,18,Right,18,Female,No,English,A,664,1,4,8,180.0,1.0,1.0,1011.28,1.0,663.0,20.0,1.16396,0.977499
White,18,Right,18,Female,No,English,A,665,0,0,4,180.0,1.0,1.0,721.044,1.0,664.0,20.0,1.15447,0.995368
White,18,Right,18,Female,No,English,A,666,0,8,8,0.0,0.0,1.0,595.003,1.0,665.0,20.0,1.14339,0.839308
White,18,Right,18,Female,No,English,A,667,0,8,4,180.0,1.0,1.0,1235.3,1.0,666.0,20.0,1.02135,0.91962
White,18,Right,18,Female,No,English,A,668,1,4,4,0.0,0.0,1.0,709.823,1.0,667.0,20.0,1.10105,0.961212
White,18,Right,18,Female,No,English,A,669,0,0,8,180.0,1.0,1.0,1117.27,1.0,668.0,20.0,1.18105,0.951325
White,18,Right,18,Female,No,English,A,670,0,0,16,0.0,0.0,1.0,471.731,1.0,669.0,20.0,1.05004,0.995207
White,18,Right,18,Female,No,English,A,671,1,0,0,0.0,0.0,1.0,653.332,1.0,670.0,20.0,1.04057,0.900979
White,18,Right,18,Female,No,English,A,672,0,8,16,180.0,1.0,1.0,1064.73,1.0,671.0,20.0,1.13065,0.852469
White,18,Right,18,Female,No,English,A,673,1,8,4,0.0,0.0,1.0,789.894,1.0,672.0,21.0,1.01387,0.859803
White,18,Right,18,Female,No,English,A,674,0,16,4,180.0,1.0,1.0,771.771,1.0,673.0,21.0,1.14349,0.907827
White,18,Right,18,Female,No,English,A,675,0,0,0,180.0,1.0,1.0,557.416,1.0,674.0,21.0,1.1429,0.861699
White,18,Right,18,Female,No,English,A,676,1,0,16,180.0,1.0,1.0,618.026,1.0,675.0,21.0,1.03014,0.851277
White,18,Right,18,Female,No,English,A,677,0,4,8,0.0,0.0,1.0,573.338,1.0,676.0,21.0,1.03524,0.850213
White,18,Right,18,Female,No,English,A,678,0,4,4,180.0,1.0,1.0,683.933,1.0,677.0,21.0,1.04768,0.811321
White,18,Right,18,Female,No,English,A,679,1,16,8,0.0,0.0,1.0,959.483,1.0,678.0,21.0,1.00789,0.865166
White,18,Right,18,Female,No,English,A,680,0,8,16,180.0,1.0,1.0,851.325,1.0,679.0,21.0,1.10063,0.845124
White,18,Right,18,Female,No,English,A,681,1,8,8,180.0,1.0,1.0,1071.31,1.0,680.0,21.0,1.14638,0.93116
White,18,Right,18,Female,No,English,A,682,0,16,8,180.0,1.0,1.0,714.943,1.0,681.0,21.0,1.1605,0.983956
White,18,Right,18,Female,No,English,A,683,0,8,4,180.0,1.0,1.0,446.967,1.0,682.0,21.0,1.01648,0.95913
White,18,Right,18,Female,No,English,A,684,0,16,0,0.0,0.0,1.0,1071.15,1.0,683.0,21.0,1.05869,0.880545
White,18,Right,18,Female,No,English,A,685,0,16,16,0.0,0.0,1.0,979.999,1.0,684.0,21.0,1.08504,0.97632
White,18,Right,18,Female,No,English,A,686,1,16,4,0.0,1.0,0.0,1081.42,1.0,685.0,21.0,1.1722,0.91801
White,18,Right,18,Female,No,English,A,687,0,0,4,0.0,0.0,1.0,893.218,1.0,686.0,21.0,1.13342,0.980652
White,18,Right,18,Female,No,English,A,688,1,4,8,180.0,1.0,1.0,715.617,1.0,687.0,21.0,1.12428,0.974688
White,18,Right,18,Female,No,English,A,689,1,4,4,180.0,1.0,1.0,910.491,1.0,688.0,21.0,1.12237,0.936347
White,18,Right,18,Female,No,English,A,690,1,4,0,180.0,1.0,1.0,890.174,1.0,689.0,21.0,1.0877,0.894939
White,18,Right,18,Female,No,English,A,691,0,4,16,180.0,1.0,1.0,643.705,1.0,690.0,21.0,1.17365,0.872779
White,18,Right,18,Female,No,English,A,692,1,8,16,0.0,0.0,1.0,551.135,1.0,691.0,21.0,1.16925,0.932436
White,18,Right,18,Female,No,English,A,693,1,8,0,0.0,0.0,1.0,435.815,1.0,692.0,21.0,1.17575,0.850332
White,18,Right,18,Female,No,English,A,694,1,0,0,0.0,0.0,1.0,621.651,1.0,693.0,21.0,1.19885,0.972543
White,18,Right,18,Female,No,English,A,695,1,16,0,180.0,1.0,1.0,758.722,1.0,694.0,21.0,1.1292,0.809938
White,18,Right,18,Female,No,English,A,696,1,0,8,0.0,0.0,1.0,890.298,1.0,695.0,21.0,1.10229,0.977817
White,18,Right,18,Female,No,English,A,697,1,0,4,0.0,0.0,1.0,587.361,1.0,696.0,21.0,1.07073,0.813566
White,18,Right,18,Female,No,English,A,698,0,0,8,180.0,1.0,1.0,952.447,1.0,697.0,21.0,1.06156,0.823968
White,18,Right,18,Female,No,English,A,699,0,4,0,180.0,1.0,1.0,719.797,1.0,698.0,21.0,1.19972,0.941557
White,18,Right,18,Female,No,English,A,700,1,16,16,0.0,0.0,1.0,927.567,1.0,699.0,21.0,1.11124,0.990876
White,18,Right,18,Female,No,English,A,701,1,4,16,180.0,1.0,1.0,594.492,1.0,700.0,21.0,1.13827,0.811816
White,18,Right,18,Female,No,English,A,702,0,8,8,0.0,0.0,1.0,1226.59,1.0,701.0,21.0,1.09463,0.849034
White,18,Right,18,Female,No,English,A,703,0,8,0,0.0,0.0,1.0,736.082,1.0,702.0,21.0,1.11414,0.891574
White,18,Right,18,Female,No,English,A,704,0,0,16,0.0,0.0,1.0,587.173,1.0,703.0,21.0,1.18418,0.830668
White,18,Right,18,Female,No,English,A,705,1,0,4,0.0,0.0,1.0,636.45,1.0,704.0,22.0,1.0986,0.870455
White,18,Right,18,Female,No,English,A,706,0,0,16,0.0,0.0,1.0,472.227,1.0,705.0,22.0,1.13406,0.921596
White,18,Right,18,Female,No,English,A,707,1,8,8,180.0,1.0,1.0,1203.72,1.0,706.0,22.0,1.17222,0.888645
White,18,Right,18,Female,No,English,A,708,0,4,16,180.0,1.0,1.0,1158.59,1.0,707.0,22.0,1.15779,0.992119
White,18,Right,18,Female,No,English,A,709,1,4,4,180.0,1.0,1.0,493.247,1.0,708.0,22.0,1.13822,0.85943
White,18,Right,18,Female,No,English,A,710,0,16,4,180.0,1.0,1.0,1079.5,1.0,709.0,22.0,1.06586,0.960462
White,18,Right,18,Female,No,English,A,711,1,4,8,0.0,0.0,1.0,833.302,1.0,710.0,22.0,1.17422,0.82431
White,18,Right,18,Female,No,English,A,712,0,0,4,180.0,1.0,1.0,955.928,1.0,711.0,22.0,1.07714,0.916426
White,18,Right,18,Female,No,English,A,713,1,8,0,0.0,0.0,1.0,560.821,1.0,712.0,22.0,1.05384,0.948003
White,18,Right,18,Female,No,English,A,714,1,0,16,180.0,1.0,1.0,1111.37,1.0,713.0,22.0,1.13681,0.893109
White,18,Right,18,Female,No,English,A,715,1,16,0,0.0,0.0,1.0,822.007,1.0,714.0,22.0,1.07126,0.973094
White,18,Right,18,Female,No,English,A,716,0,8,4,0.0,0.0,1.0,674.444,1.0,715.0,22.0,1.09129,0.905065
White,18,Right,18,Female,No,English,A,717,1,8,4,180.0,1.0,1.0,451.91,1.0,716.0,22.0,1.07656,0.944229
White,18,Right,18,Female,No,English,A,718,0,8,0,0.0,0.0,1.0,647.859,1.0,717.0,22.0,1.19602,0.863907
White,18,Right,18,Female,No,English,A,719,0,4,4,180.0,1.0,1.0,598.49,1.0,718.0,22.0,1.06426,0.978655
White,18,Right,18,Female,No,English,A,720,0,8,16,180.0,1.0,1.0,668.535,1.0,719.0,22.0,1.12048,0.860387
White,18,Right,18,Female,No,English,A,721,1,16,8,0.0,0.0,1.0,688.782,1.0,720.0,22.0,1.1621,0.931961
White,18,Right,18,Female,No,English,A,722,0,4,8,0.0,0.0,1.0,779.111,1.0,721.0,22.0,1.16658,0.966434
White,18,Right,18,Female,No,English,A,723,0,16,8,180.0,1.0,1.0,561.675,1.0,722.0,22.0,1.13791,0.897799
White,18,Right,18,Female,No,English,A,724,1,0,0,0.0,0.0,1.0,588.125,1.0,723.0,22.0,1.0293,0.978772
White,18,Right,18,Female,No,English,A,725,1,4,0,0.0,0.0,1.0,584.076,1.0,724.0,22.0,1.13284,0.960329
White,18,Right,18,Female,No,English,A,726,1,4,16,0.0,0.0,1.0,591.327,1.0,725.0,22.0,1.12329,0.921858
White,18,Right,18,Female,No,English,A,727,0,0,8,180.0,1.0,1.0,802.966,1.0,726.0,22.0,1.18889,0.904479
White,18,Right,18,Female,No,English,A,728,0,16,16,0.0,0.0,1.0,698.243,1.0,727.0,22.0,1.10607,0.990746
White,18,Right,18,Female,No,English,A,729,0,8,8,180.0,0.0,0.0,596.403,1.0,728.0,22.0,1.03947,0.820875
White,18,Right,18,Female,No,English,A,730,1,0,8,180.0,1.0,1.0,1041.91,1.0,729.0,22.0,1.11442,0.830316
White,18,Right,18,Female,No,English,A,731,0,16,0,0.0,0.0,1.0,1154.06,1.0,730.0,22.0,1.12721,0.991205
White,18,Right,18,Female,No,English,A,732,1,16,16,0.0,0.0,1.0,1330.05,1.0,731.0,22.0,1.12543,0.837756
White,18,Right,18,Female,No,English,A,733,0,0,0,180.0,1.0,1.0,590.895,1.0,732.0,22.0,1.11215,0.929536
White,18,Right,18,Female,No,English,A,734,1,8,16,180.0,1.0,1.0,964.49,1.0,733.0,22.0,1.09442,0.846207
White,18,Right,18,Female,No,English,A,735,0,4,0,180.0,1.0,1.0,853.789,1.0,734.0,22.0,1.09317,0.8365
White,18,Right,18,Female,No,English,A,736,1,16,4,0.0,0.0,1.0,1610.32,1.0,735.0,22.0,1.07467,0.854808
White,18,Right,18,Female,No,English,A,737,1,4,4,180.0,1.0,1.0,564.662,1.0,736.0,23.0,1.06556,0.869731
White,18,Right,18,Female,No,English,A,738,1,8,8,0.0,0.0,1.0,1275.04,1.0,737.0,23.0,1.07301,0.801303
White,18,Right,18,Female,No,English,A,739,0,0,8,0.0,0.0,1.0,513.297,1.0,738.0,23.0,1.07453,0.905144
White,18,Right,18,Female,No,English,A,740,1,8,0,0.0,0.0,1.0,500.816,1.0,739.0,23.0,1.05623,0.978025
White,18,Right,18,Female,No,English,A,741,1,16,4,180.0,1.0,1.0,916.586,1.0,740.0,23.0,1.17821,0.868808
White,18,Right,18,Female,No,English,A,742,0,4,4,0.0,0.0,1.0,1147.95,1.0,741.0,23.0,1.14696,0.903787
White,18,Right,18,Female,No,English,A,743,0,16,0,180.0,1.0,1.0,910.44,1.0,742.0,23.0,1.17007,0.822013
White,18,Right,18,Female,No,English,A,744,0,4,8,0.0,0.0,1.0,892.418,1.0,743.0,23.0,1.0803,0.955703
White,18,Right,18,Female,No,English,A,745,1,8,4,0.0,0.0,1.0,963.734,1.0,744.0,23.0,1.18804,0.877463
White,18,Right,18,Female,No,English,A,746,0,16,8,180.0,1.0,1.0,705.018,1.0,745.0,23.0,1.07693,0.871658
White,18,Right,18,Female,No,English,A,747,0,8,0,0.0,0.0,1.0,1331.28,1.0,746.0,23.0,1.17467,0.916487
White,18,Right,18,Female,No,English,A,748,0,16,16,180.0,1.0,1.0,1042.16,1.0,747.0,23.0,1.10988,0.865732
White,18,Right,18,Female,No,English,A,749,1,16,0,180.0,1.0,1.0,1010.01,1.0,748.0,23.0,1.08733,0.957059
White,18,Right,18,Female,No,English,A,750,0,8,8,180.0,1.0,1.0,1319.27,1.0,749.0,23.0,1.17883,0.993227
White,18,Right,18,Female,No,English,A,751,1,0,0,180.0,1.0,1.0,596.888,1.0,750.0,23.0,1.00423,0.917071
White,18,Right,18,Female,No,English,A,752,0,0,4,180.0,1.0,1.0,636.2,1.0,751.0,23.0,1.15916,0.969978
White,18,Right,18,Female,No,English,A,753,1,16,16,0.0,0.0,1.0,1040.58,1.0,752.0,23.0,1.03317,0.983273
White,18,Right,18,Female,No,English,A,754,1,0,16,0.0,0.0,1.0,770.113,1.0,753.0,23.0,1.17381,0.986188
White,18,Right,18,Female,No,English,A,755,1,8,16,0.0,0.0,1.0,571.27,1.0,754.0,23.0,1.12056,0.840995
White,18,Right,18,Female,No,English,A,756,0,0,16,180.0,1.0,1.0,568.858,1.0,755.0,23.0,1.07048,0.964593
White,18,Right,18,Female,No,English,A,757,1,4,16,180.0,1.0,1.0,573.403,1.0,756.0,23.0,1.01596,0.803741
White,18,Right,18,Female,No,English,A,758,0,8,4,180.0,1.0,1.0,805.704,1.0,757.0,23.0,1.01386,0.809897
White,18,Right,18,Female,No,English,A,759,1,4,0,0.0,0.0,1.0,1048.25,1.0,758.0,23.0,1.04949,0.845336
White,18,Right,18,Female,No,English,A,760,0,4,16,180.0,1.0,1.0,542.058,1.0,759.0,23.0,1.01216,0.817092
White,18,Right,18,Female,No,English,A,761,0,4,0,180.0,1.0,1.0,677.857,1.0,760.0,23.0,1.12137,0.818298
White,18,Right,18,Female,No,English,A,762,1,4,8,0.0,0.0,1.0,979.801,1.0,761.0,23.0,1.12834,0.933067
White,18,Right,18,Female,No,English,A,763,0,0,0,180.0,1.0,1.0,684.526,1.0,762.0,23.0,1.07149,0.979754
White,18,Right,18,Female,No,English,A,764,0,8,16,0.0,0.0,1.0,626.506,1.0,763.0,23.0,1.03262,0.95265
White,18,Right,18,Female,No,English,A,765,1,0,4,0.0,0.0,1.0,1041.85,1.0,764.0,23.0,1.0636,0.955149
White,18,Right,18,Female,No,English,A,766,1,0,8,180.0,1.0,1.0,1091.92,1.0,765.0,23.0,1.00393,0.889588
White,18,Right,18,Female,No,English,A,767,0,16,4,0.0,0.0,1.0,748.342,1.0,766.0,23.0,1.09455,0.833341
White,18,Right,18,Female,No,English,A,768,1,16,8,0.0,0.0,1.0,1449.88,1.0,767.0,23.0,1.16214,0.804034
