Ethnicity,Subject Number,Preferred Hand,Age,Gender,Color blind,First Language,Room,TrialNumber,background,turtles,tortoises,target_id,resp,hit,rt,ran,order,block,iti,fix_duration
Asian,20,Left,19,Female,No,English,B,1,0,16,8,180.0,1.0,1.0,1864.74,1.0,0.0,0.0,1.08065,0.933051
Asian,20,Left,19,Female,No,English,B,2,1,4,4,180.0,1.0,1.0,791.449,1.0,1.0,0.0,1.13159,0.981704
Asian,20,Left,19,Female,No,English,B,3,0,4,8,180.0,1.0,1.0,1081.62,1.0,2.0,0.0,1.15288,0.966124
Asian,20,Left,19,Female,No,English,B,4,1,4,16,180.0,1.0,1.0,1250.03,1.0,3.0,0.0,1.00348,0.805056
Asian,20,Left,19,Female,No,English,B,5,0,0,16,0.0,0.0,1.0,1982.35,1.0,4.0,0.0,1.11191,0.824959
Asian,20,Left,19,Female,No,English,B,6,1,16,0,180.0,1.0,1.0,670.701,1.0,5.0,0.0,1.10314,0.96266
Asian,20,Left,19,Female,No,English,B,7,1,4,8,180.0,1.0,1.0,1563.41,1.0,6.0,0.0,1.10476,0.904639
Asian,20,Left,19,Female,No,English,B,8,1,8,4,0.0,0.0,1.0,1443.87,1.0,7.0,0.0,1.15721,0.846268
Asian,20,Left,19,Female,No,English,B,9,0,8,16,180.0,1.0,1.0,786.331,1.0,8.0,0.0,1.09071,0.902995
Asian,20,Left,19,Female,No,English,B,10,1,0,0,0.0,0.0,1.0,1172.51,1.0,9.0,0.0,1.00782,0.924667
Asian,20,Left,19,Female,No,English,B,11,0,0,0,0.0,0.0,1.0,632.747,1.0,10.0,0.0,1.17705,0.992749
Asian,20,Left,19,Female,No,English,B,12,1,16,4,0.0,0.0,1.0,1233.16,1.0,11.0,0.0,1.18239,0.972887
Asian,20,Left,19,Female,No,English,B,13,0,0,4,0.0,0.0,1.0,1578.54,1.0,12.0,0.0,1.08058,0.939914
Asian,20,Left,19,Female,No,English,B,14,1,16,16,180.0,1.0,1.0,1121.11,1.0,13.0,0.0,1.1236,0.905877
Asian,20,Left,19,Female,No,English,B,15,1,8,8,180.0,1.0,1.0,869.794,1.0,14.0,0.0,1.11167,0.805169
Asian,20,Left,19,Female,No,English,B,16,1,0,4,180.0,1.0,1.0,670.652,1.0,15.0,0.0,1.07559,0.949557
Asian,20,Left,19,Female,No,English,B,17,1,4,0,0.0,0.0,1.0,1044.88,1.0,16.0,0.0,1.03835,0.909869
Asian,20,Left,19,Female,No,English,B,18,0,8,4,0.0,0.0,1.0,1201.17,1.0,17.0,0.0,1.05416,0.916997
Asian,20,Left,19,Female,No,English,B,19,0,4,4,0.0,0.0,1.0,1210.54,1.0,18.0,0.0,1.10069,0.901794
Asian,20,Left,19,Female,No,English,B,20,0,0,8,0.0,0.0,1.0,620.235,1.0,19.0,0.0,1.0655,0.812993
Asian,20,Left,19,Female,No,English,B,21,0,8,8,0.0,0.0,1.0,1265.52,1.0,20.0,0.0,1.0978,0.863645
Asian,20,Left,19,Female,No,English,B,22,1,0,8,180.0,1.0,1.0,1058.68,1.0,21.0,0.0,1.16766,0.941925
Asian,20,Left,19,Female,No,English,B,23,0,8,0,180.0,1.0,1.0,857.404,1.0,22.0,0.0,1.05943,0.897159
Asian,20,Left,19,Female,No,English,B,24,0,4,16,0.0,0.0,1.0,1184.56,1.0,23.0,0.0,1.14844,0.915333
Asian,20,Left,19,Female,No,English,B,25,0,16,0,0.0,0.0,1.0,634.426,1.0,24.0,0.0,1.1267,0.838297
Asian,20,Left,19,Female,No,English,B,26,0,16,16,0.0,0.0,1.0,658.762,1.0,25.0,0.0,1.16086,0.931909
Asian,20,Left,19,Female,No,English,B,27,0,4,0,180.0,1.0,1.0,824.442,1.0,26.0,0.0,1.17032,0.958382
Asian,20,Left,19,Female,No,English,B,28,1,0,16,0.0,0.0,1.0,1209.46,1.0,27.0,0.0,1.16502,0.987243
Asian,20,Left,19,Female,No,English,B,29,1,16,8,0.0,0.0,1.0,1056.12,1.0,28.0,0.0,1.07237,0.917972
Asian,20,Left,19,Female,No,English,B,30,1,8,16,180.0,1.0,1.0,1219.02,1.0,29.0,0.0,1.07066,0.929396
Asian,20,Left,19,Female,No,English,B,31,0,16,4,180.0,1.0,1.0,2056.51,1.0,30.0,0.0,1.09512,0.957043
Asian,20,Left,19,Female,No,English,B,32,1,8,0,180.0,1.0,1.0,1377.65,1.0,31.0,0.0,1.01658,0.942763
Asian,20,Left,19,Female,No,English,B,33,0,0,16,0.0,0.0,1.0,1195.62,1.0,32.0,1.0,1.19753,0.837814
Asian,20,Left,19,Female,No,English,B,34,0,16,0,180.0,1.0,1.0,980.864,1.0,33.0,1.0,1.1725,0.991957
Asian,20,Left,19,Female,No,English,B,35,1,16,4,0.0,9999.0,0.0,9999.0,1.0,34.0,1.0,1.15033,0.949269
Asian,20,Left,19,Female,No,English,B,36,1,0,4,0.0,0.0,1.0,864.292,1.0,35.0,1.0,1.12432,0.802599
Asian,20,Left,19,Female,No,English,B,37,0,8,16,0.0,0.0,1.0,1530.63,1.0,36.0,1.0,1.04804,0.957018
Asian,20,Left,19,Female,No,English,B,38,0,8,8,0.0,0.0,1.0,972.37,1.0,37.0,1.0,1.16441,0.978326
Asian,20,Left,19,Female,No,English,B,39,1,8,4,0.0,0.0,1.0,782.62,1.0,38.0,1.0,1.13072,0.913732
Asian,20,Left,19,Female,No,English,B,40,0,4,0,0.0,0.0,1.0,1413.27,1.0,39.0,1.0,1.14467,0.81693
Asian,20,Left,19,Female,No,English,B,41,1,16,0,180.0,1.0,1.0,854.079,1.0,40.0,1.0,1.14572,0.808357
Asian,20,Left,19,Female,No,English,B,42,0,4,16,0.0,0.0,1.0,970.012,1.0,41.0,1.0,1.07954,0.87962
Asian,20,Left,19,Female,No,English,B,43,0,4,4,180.0,1.0,1.0,1329.63,1.0,42.0,1.0,1.02047,0.926291
Asian,20,Left,19,Female,No,English,B,44,0,8,4,0.0,0.0,1.0,2445.07,1.0,43.0,1.0,1.0617,0.868286
Asian,20,Left,19,Female,No,English,B,45,1,8,16,180.0,1.0,1.0,1716.44,1.0,44.0,1.0,1.17694,0.820963
Asian,20,Left,19,Female,No,English,B,46,0,0,0,0.0,0.0,1.0,1058.59,1.0,45.0,1.0,1.00102,0.954699
Asian,20,Left,19,Female,No,English,B,47,0,16,16,180.0,1.0,1.0,948.215,1.0,46.0,1.0,1.19766,0.991028
Asian,20,Left,19,Female,No,English,B,48,1,16,8,180.0,1.0,1.0,888.456,1.0,47.0,1.0,1.07825,0.985284
Asian,20,Left,19,Female,No,English,B,49,0,8,0,180.0,1.0,1.0,839.807,1.0,48.0,1.0,1.11038,0.850801
Asian,20,Left,19,Female,No,English,B,50,0,16,4,180.0,1.0,1.0,724.166,1.0,49.0,1.0,1.03626,0.903188
Asian,20,Left,19,Female,No,English,B,51,1,8,8,180.0,1.0,1.0,905.72,1.0,50.0,1.0,1.09826,0.889209
Asian,20,Left,19,Female,No,English,B,52,1,0,8,180.0,1.0,1.0,615.404,1.0,51.0,1.0,1.10213,0.864018
Asian,20,Left,19,Female,No,English,B,53,1,0,16,0.0,0.0,1.0,2237.29,1.0,52.0,1.0,1.06486,0.811742
Asian,20,Left,19,Female,No,English,B,54,1,0,0,180.0,1.0,1.0,712.4,1.0,53.0,1.0,1.12023,0.997812
Asian,20,Left,19,Female,No,English,B,55,0,0,8,180.0,1.0,1.0,804.485,1.0,54.0,1.0,1.11881,0.961326
Asian,20,Left,19,Female,No,English,B,56,1,4,4,180.0,1.0,1.0,882.135,1.0,55.0,1.0,1.14447,0.847499
Asian,20,Left,19,Female,No,English,B,57,1,8,0,180.0,1.0,1.0,1243.48,1.0,56.0,1.0,1.17165,0.879403
Asian,20,Left,19,Female,No,English,B,58,1,4,8,0.0,0.0,1.0,919.121,1.0,57.0,1.0,1.01347,0.913656
Asian,20,Left,19,Female,No,English,B,59,0,4,8,0.0,0.0,1.0,1665.96,1.0,58.0,1.0,1.1238,0.990151
Asian,20,Left,19,Female,No,English,B,60,1,4,0,0.0,0.0,1.0,940.972,1.0,59.0,1.0,1.10494,0.860668
Asian,20,Left,19,Female,No,English,B,61,1,16,16,0.0,0.0,1.0,755.536,1.0,60.0,1.0,1.04775,0.897571
Asian,20,Left,19,Female,No,English,B,62,0,16,8,180.0,1.0,1.0,948.721,1.0,61.0,1.0,1.08593,0.869393
Asian,20,Left,19,Female,No,English,B,63,1,4,16,180.0,1.0,1.0,774.675,1.0,62.0,1.0,1.09505,0.986791
Asian,20,Left,19,Female,No,English,B,64,0,0,4,0.0,0.0,1.0,1722.43,1.0,63.0,1.0,1.12237,0.800746
Asian,20,Left,19,Female,No,English,B,65,1,8,16,180.0,1.0,1.0,774.631,1.0,64.0,2.0,1.02455,0.99406
Asian,20,Left,19,Female,No,English,B,66,1,4,8,180.0,1.0,1.0,1058.41,1.0,65.0,2.0,1.08149,0.820424
Asian,20,Left,19,Female,No,English,B,67,1,0,16,0.0,0.0,1.0,1286.73,1.0,66.0,2.0,1.03824,0.845479
Asian,20,Left,19,Female,No,English,B,68,1,16,0,0.0,0.0,1.0,1038.41,1.0,67.0,2.0,1.08991,0.892371
Asian,20,Left,19,Female,No,English,B,69,1,4,16,0.0,0.0,1.0,1087.58,1.0,68.0,2.0,1.00334,0.80213
Asian,20,Left,19,Female,No,English,B,70,0,8,8,180.0,1.0,1.0,1322.99,1.0,69.0,2.0,1.09275,0.80088
Asian,20,Left,19,Female,No,English,B,71,1,16,16,0.0,0.0,1.0,1031.12,1.0,70.0,2.0,1.06969,0.869638
Asian,20,Left,19,Female,No,English,B,72,0,16,4,0.0,0.0,1.0,1894.73,1.0,71.0,2.0,1.05372,0.946178
Asian,20,Left,19,Female,No,English,B,73,0,0,16,180.0,1.0,1.0,1234.41,1.0,72.0,2.0,1.00917,0.926821
Asian,20,Left,19,Female,No,English,B,74,1,8,8,0.0,0.0,1.0,1438.81,1.0,73.0,2.0,1.18466,0.942892
Asian,20,Left,19,Female,No,English,B,75,1,4,0,0.0,0.0,1.0,912.071,1.0,74.0,2.0,1.01743,0.942713
Asian,20,Left,19,Female,No,English,B,76,0,0,0,180.0,1.0,1.0,723.618,1.0,75.0,2.0,1.03276,0.94531
Asian,20,Left,19,Female,No,English,B,77,1,16,8,180.0,1.0,1.0,1303.39,1.0,76.0,2.0,1.02209,0.858695
Asian,20,Left,19,Female,No,English,B,78,1,0,0,0.0,0.0,1.0,657.322,1.0,77.0,2.0,1.19994,0.956869
Asian,20,Left,19,Female,No,English,B,79,1,0,8,0.0,0.0,1.0,1324.43,1.0,78.0,2.0,1.17391,0.87858
Asian,20,Left,19,Female,No,English,B,80,1,8,4,0.0,0.0,1.0,1813.77,1.0,79.0,2.0,1.18473,0.869058
Asian,20,Left,19,Female,No,English,B,81,0,8,16,180.0,1.0,1.0,1509.01,1.0,80.0,2.0,1.19675,0.896584
Asian,20,Left,19,Female,No,English,B,82,0,16,8,180.0,1.0,1.0,1541.54,1.0,81.0,2.0,1.0489,0.936679
Asian,20,Left,19,Female,No,English,B,83,1,4,4,180.0,1.0,1.0,982.05,1.0,82.0,2.0,1.18557,0.825537
Asian,20,Left,19,Female,No,English,B,84,0,4,4,180.0,1.0,1.0,858.121,1.0,83.0,2.0,1.12168,0.923815
Asian,20,Left,19,Female,No,English,B,85,1,0,4,0.0,0.0,1.0,880.39,1.0,84.0,2.0,1.08548,0.916304
Asian,20,Left,19,Female,No,English,B,86,1,16,4,180.0,1.0,1.0,943.308,1.0,85.0,2.0,1.01102,0.94401
Asian,20,Left,19,Female,No,English,B,87,0,0,4,180.0,1.0,1.0,910.155,1.0,86.0,2.0,1.17606,0.822088
Asian,20,Left,19,Female,No,English,B,88,0,16,0,180.0,1.0,1.0,780.27,1.0,87.0,2.0,1.04058,0.890955
Asian,20,Left,19,Female,No,English,B,89,0,0,8,0.0,0.0,1.0,2198.34,1.0,88.0,2.0,1.16795,0.976368
Asian,20,Left,19,Female,No,English,B,90,1,8,0,0.0,0.0,1.0,927.893,1.0,89.0,2.0,1.13399,0.948529
Asian,20,Left,19,Female,No,English,B,91,0,8,0,0.0,0.0,1.0,979.529,1.0,90.0,2.0,1.15764,0.857202
Asian,20,Left,19,Female,No,English,B,92,0,8,4,180.0,1.0,1.0,933.543,1.0,91.0,2.0,1.00668,0.85156
Asian,20,Left,19,Female,No,English,B,93,0,4,0,0.0,0.0,1.0,1236.56,1.0,92.0,2.0,1.09072,0.950331
Asian,20,Left,19,Female,No,English,B,94,0,16,16,180.0,1.0,1.0,1270.06,1.0,93.0,2.0,1.10728,0.974887
Asian,20,Left,19,Female,No,English,B,95,0,4,16,180.0,1.0,1.0,764.478,1.0,94.0,2.0,1.17167,0.952302
Asian,20,Left,19,Female,No,English,B,96,0,4,8,0.0,0.0,1.0,974.034,1.0,95.0,2.0,1.12177,0.930006
Asian,20,Left,19,Female,No,English,B,97,0,0,16,180.0,1.0,1.0,1429.23,1.0,96.0,3.0,1.06159,0.934391
Asian,20,Left,19,Female,No,English,B,98,0,0,8,0.0,0.0,1.0,1566.16,1.0,97.0,3.0,1.09401,0.997491
Asian,20,Left,19,Female,No,English,B,99,1,0,16,0.0,0.0,1.0,1538.37,1.0,98.0,3.0,1.13322,0.974935
Asian,20,Left,19,Female,No,English,B,100,1,8,16,180.0,1.0,1.0,1706.47,1.0,99.0,3.0,1.04526,0.808743
Asian,20,Left,19,Female,No,English,B,101,0,8,16,0.0,0.0,1.0,2227.47,1.0,100.0,3.0,1.01188,0.869853
Asian,20,Left,19,Female,No,English,B,102,0,8,8,0.0,0.0,1.0,1987.87,1.0,101.0,3.0,1.10575,0.953162
Asian,20,Left,19,Female,No,English,B,103,0,0,0,180.0,1.0,1.0,1687.76,1.0,102.0,3.0,1.08214,0.880014
Asian,20,Left,19,Female,No,English,B,104,0,16,16,180.0,1.0,1.0,1142.67,1.0,103.0,3.0,1.07871,0.993398
Asian,20,Left,19,Female,No,English,B,105,0,4,0,180.0,1.0,1.0,724.647,1.0,104.0,3.0,1.0612,0.916423
Asian,20,Left,19,Female,No,English,B,106,0,16,0,180.0,1.0,1.0,1255.85,1.0,105.0,3.0,1.03732,0.856441
Asian,20,Left,19,Female,No,English,B,107,1,16,0,180.0,1.0,1.0,737.647,1.0,106.0,3.0,1.16232,0.922433
Asian,20,Left,19,Female,No,English,B,108,1,0,4,180.0,1.0,1.0,1035.98,1.0,107.0,3.0,1.08854,0.87277
Asian,20,Left,19,Female,No,English,B,109,0,16,8,0.0,0.0,1.0,1054.4,1.0,108.0,3.0,1.19628,0.965117
Asian,20,Left,19,Female,No,English,B,110,0,8,0,180.0,1.0,1.0,761.835,1.0,109.0,3.0,1.10214,0.873268
Asian,20,Left,19,Female,No,English,B,111,0,8,4,180.0,1.0,1.0,905.625,1.0,110.0,3.0,1.12513,0.820327
Asian,20,Left,19,Female,No,English,B,112,1,0,0,0.0,0.0,1.0,1262.77,1.0,111.0,3.0,1.02975,0.824553
Asian,20,Left,19,Female,No,English,B,113,1,4,4,0.0,0.0,1.0,1200.38,1.0,112.0,3.0,1.16361,0.833729
Asian,20,Left,19,Female,No,English,B,114,1,4,0,0.0,0.0,1.0,874.034,1.0,113.0,3.0,1.04488,0.970237
Asian,20,Left,19,Female,No,English,B,115,1,8,4,0.0,0.0,1.0,854.606,1.0,114.0,3.0,1.07613,0.812258
Asian,20,Left,19,Female,No,English,B,116,1,16,4,180.0,1.0,1.0,1120.32,1.0,115.0,3.0,1.00954,0.97644
Asian,20,Left,19,Female,No,English,B,117,0,4,4,0.0,0.0,1.0,1035.09,1.0,116.0,3.0,1.19487,0.857893
Asian,20,Left,19,Female,No,English,B,118,1,4,16,0.0,0.0,1.0,1232.79,1.0,117.0,3.0,1.08046,0.877327
Asian,20,Left,19,Female,No,English,B,119,1,8,0,0.0,0.0,1.0,1245.32,1.0,118.0,3.0,1.13451,0.903697
Asian,20,Left,19,Female,No,English,B,120,0,0,4,180.0,1.0,1.0,971.2,1.0,119.0,3.0,1.03614,0.957486
Asian,20,Left,19,Female,No,English,B,121,1,4,8,0.0,0.0,1.0,817.656,1.0,120.0,3.0,1.15124,0.849315
Asian,20,Left,19,Female,No,English,B,122,0,16,4,180.0,1.0,1.0,1876.11,1.0,121.0,3.0,1.09061,0.870326
Asian,20,Left,19,Female,No,English,B,123,1,16,16,0.0,0.0,1.0,1043.6,1.0,122.0,3.0,1.12031,0.980568
Asian,20,Left,19,Female,No,English,B,124,0,4,16,180.0,1.0,1.0,920.132,1.0,123.0,3.0,1.1679,0.835001
Asian,20,Left,19,Female,No,English,B,125,1,8,8,0.0,0.0,1.0,700.721,1.0,124.0,3.0,1.0898,0.867644
Asian,20,Left,19,Female,No,English,B,126,1,0,8,0.0,0.0,1.0,1384.25,1.0,125.0,3.0,1.12956,0.876592
Asian,20,Left,19,Female,No,English,B,127,0,4,8,180.0,1.0,1.0,998.872,1.0,126.0,3.0,1.10717,0.856493
Asian,20,Left,19,Female,No,English,B,128,1,16,8,180.0,1.0,1.0,1911.48,1.0,127.0,3.0,1.03909,0.987594
Asian,20,Left,19,Female,No,English,B,129,0,4,8,180.0,1.0,1.0,1120.69,1.0,128.0,4.0,1.07616,0.855625
Asian,20,Left,19,Female,No,English,B,130,1,4,4,0.0,0.0,1.0,1310.92,1.0,129.0,4.0,1.01515,0.85825
Asian,20,Left,19,Female,No,English,B,131,1,8,4,0.0,0.0,1.0,1425.29,1.0,130.0,4.0,1.10636,0.831729
Asian,20,Left,19,Female,No,English,B,132,1,16,16,0.0,0.0,1.0,1594.71,1.0,131.0,4.0,1.0895,0.908714
Asian,20,Left,19,Female,No,English,B,133,1,8,16,180.0,1.0,1.0,593.663,1.0,132.0,4.0,1.17739,0.851644
Asian,20,Left,19,Female,No,English,B,134,0,0,0,0.0,0.0,1.0,826.612,1.0,133.0,4.0,1.01455,0.859815
Asian,20,Left,19,Female,No,English,B,135,1,4,0,180.0,1.0,1.0,784.697,1.0,134.0,4.0,1.08185,0.909292
Asian,20,Left,19,Female,No,English,B,136,0,8,16,180.0,1.0,1.0,851.879,1.0,135.0,4.0,1.00164,0.864217
Asian,20,Left,19,Female,No,English,B,137,1,4,16,180.0,1.0,1.0,609.212,1.0,136.0,4.0,1.11483,0.884413
Asian,20,Left,19,Female,No,English,B,138,0,8,0,0.0,0.0,1.0,1059.79,1.0,137.0,4.0,1.15553,0.88687
Asian,20,Left,19,Female,No,English,B,139,1,0,4,180.0,1.0,1.0,641.591,1.0,138.0,4.0,1.15942,0.963307
Asian,20,Left,19,Female,No,English,B,140,0,16,0,0.0,0.0,1.0,821.194,1.0,139.0,4.0,1.09642,0.869673
Asian,20,Left,19,Female,No,English,B,141,0,16,8,180.0,1.0,1.0,707.169,1.0,140.0,4.0,1.06338,0.984747
Asian,20,Left,19,Female,No,English,B,142,0,16,4,180.0,1.0,1.0,1215.56,1.0,141.0,4.0,1.12353,0.91666
Asian,20,Left,19,Female,No,English,B,143,1,8,8,0.0,0.0,1.0,1040.35,1.0,142.0,4.0,1.00123,0.918574
Asian,20,Left,19,Female,No,English,B,144,0,4,4,0.0,0.0,1.0,1320.83,1.0,143.0,4.0,1.18102,0.929502
Asian,20,Left,19,Female,No,English,B,145,1,16,8,0.0,0.0,1.0,1360.05,1.0,144.0,4.0,1.01537,0.925478
Asian,20,Left,19,Female,No,English,B,146,1,0,0,0.0,0.0,1.0,787.419,1.0,145.0,4.0,1.01405,0.988788
Asian,20,Left,19,Female,No,English,B,147,0,8,8,0.0,0.0,1.0,1234.45,1.0,146.0,4.0,1.02646,0.815565
Asian,20,Left,19,Female,No,English,B,148,1,16,4,0.0,0.0,1.0,784.645,1.0,147.0,4.0,1.12021,0.921553
Asian,20,Left,19,Female,No,English,B,149,0,0,16,180.0,1.0,1.0,1207.78,1.0,148.0,4.0,1.10112,0.87876
Asian,20,Left,19,Female,No,English,B,150,0,8,4,0.0,0.0,1.0,1274.92,1.0,149.0,4.0,1.09353,0.842633
Asian,20,Left,19,Female,No,English,B,151,1,8,0,180.0,1.0,1.0,999.912,1.0,150.0,4.0,1.09168,0.978577
Asian,20,Left,19,Female,No,English,B,152,0,4,0,0.0,0.0,1.0,1109.59,1.0,151.0,4.0,1.18835,0.877272
Asian,20,Left,19,Female,No,English,B,153,0,0,8,0.0,0.0,1.0,1255.39,1.0,152.0,4.0,1.08304,0.881077
Asian,20,Left,19,Female,No,English,B,154,0,16,16,180.0,1.0,1.0,1987.89,1.0,153.0,4.0,1.08773,0.807113
Asian,20,Left,19,Female,No,English,B,155,1,0,16,180.0,1.0,1.0,1029.45,1.0,154.0,4.0,1.03673,0.929746
Asian,20,Left,19,Female,No,English,B,156,0,4,16,180.0,1.0,1.0,1010.33,1.0,155.0,4.0,1.12772,0.846584
Asian,20,Left,19,Female,No,English,B,157,1,4,8,180.0,1.0,1.0,1359.59,1.0,156.0,4.0,1.18588,0.823736
Asian,20,Left,19,Female,No,English,B,158,0,0,4,0.0,0.0,1.0,1065.48,1.0,157.0,4.0,1.16656,0.900006
Asian,20,Left,19,Female,No,English,B,159,1,0,8,180.0,1.0,1.0,1253.06,1.0,158.0,4.0,1.07803,0.936309
Asian,20,Left,19,Female,No,English,B,160,1,16,0,180.0,1.0,1.0,1154.78,1.0,159.0,4.0,1.0658,0.940158
Asian,20,Left,19,Female,No,English,B,161,0,4,4,0.0,0.0,1.0,1283.48,1.0,160.0,5.0,1.09767,0.806843
Asian,20,Left,19,Female,No,English,B,162,0,16,8,0.0,0.0,1.0,1025.21,1.0,161.0,5.0,1.12853,0.827131
Asian,20,Left,19,Female,No,English,B,163,0,0,0,180.0,1.0,1.0,889.775,1.0,162.0,5.0,1.12608,0.875522
Asian,20,Left,19,Female,No,English,B,164,0,0,16,0.0,0.0,1.0,760.806,1.0,163.0,5.0,1.1208,0.921746
Asian,20,Left,19,Female,No,English,B,165,1,0,16,180.0,1.0,1.0,937.987,1.0,164.0,5.0,1.12806,0.852799
Asian,20,Left,19,Female,No,English,B,166,1,4,8,0.0,0.0,1.0,1165.03,1.0,165.0,5.0,1.15976,0.913603
Asian,20,Left,19,Female,No,English,B,167,1,16,8,180.0,1.0,1.0,1152.64,1.0,166.0,5.0,1.1368,0.939073
Asian,20,Left,19,Female,No,English,B,168,0,0,8,0.0,0.0,1.0,1184.4,1.0,167.0,5.0,1.15082,0.989179
Asian,20,Left,19,Female,No,English,B,169,1,16,16,0.0,0.0,1.0,1176.91,1.0,168.0,5.0,1.115,0.871692
Asian,20,Left,19,Female,No,English,B,170,0,8,0,180.0,1.0,1.0,912.273,1.0,169.0,5.0,1.16557,0.820142
Asian,20,Left,19,Female,No,English,B,171,1,4,4,180.0,1.0,1.0,1149.98,1.0,170.0,5.0,1.05218,0.842599
Asian,20,Left,19,Female,No,English,B,172,1,0,8,0.0,0.0,1.0,987.638,1.0,171.0,5.0,1.16433,0.923037
Asian,20,Left,19,Female,No,English,B,173,0,4,16,180.0,1.0,1.0,840.663,1.0,172.0,5.0,1.16903,0.81367
Asian,20,Left,19,Female,No,English,B,174,0,4,0,180.0,1.0,1.0,928.944,1.0,173.0,5.0,1.03626,0.846205
Asian,20,Left,19,Female,No,English,B,175,1,0,4,0.0,0.0,1.0,839.772,1.0,174.0,5.0,1.01035,0.810059
Asian,20,Left,19,Female,No,English,B,176,0,16,0,180.0,1.0,1.0,1080.41,1.0,175.0,5.0,1.15636,0.862759
Asian,20,Left,19,Female,No,English,B,177,0,8,16,180.0,1.0,1.0,1307.89,1.0,176.0,5.0,1.07325,0.803001
Asian,20,Left,19,Female,No,English,B,178,1,0,0,0.0,0.0,1.0,611.78,1.0,177.0,5.0,1.05825,0.906096
Asian,20,Left,19,Female,No,English,B,179,1,8,8,0.0,0.0,1.0,1177.81,1.0,178.0,5.0,1.18757,0.853727
Asian,20,Left,19,Female,No,English,B,180,0,16,4,0.0,0.0,1.0,1354.79,1.0,179.0,5.0,1.15812,0.942835
Asian,20,Left,19,Female,No,English,B,181,0,16,16,180.0,1.0,1.0,983.413,1.0,180.0,5.0,1.17291,0.939111
Asian,20,Left,19,Female,No,English,B,182,1,16,4,180.0,1.0,1.0,1009.6,1.0,181.0,5.0,1.1256,0.984603
Asian,20,Left,19,Female,No,English,B,183,0,4,8,0.0,0.0,1.0,1197.39,1.0,182.0,5.0,1.14217,0.886888
Asian,20,Left,19,Female,No,English,B,184,0,8,8,180.0,1.0,1.0,1189.63,1.0,183.0,5.0,1.19693,0.944825
Asian,20,Left,19,Female,No,English,B,185,1,4,0,180.0,1.0,1.0,865.018,1.0,184.0,5.0,1.05668,0.822015
Asian,20,Left,19,Female,No,English,B,186,1,4,16,180.0,1.0,1.0,930.396,1.0,185.0,5.0,1.09121,0.983165
Asian,20,Left,19,Female,No,English,B,187,1,8,4,0.0,9999.0,0.0,9999.0,1.0,186.0,5.0,1.08866,0.97306
Asian,20,Left,19,Female,No,English,B,188,1,8,0,0.0,0.0,1.0,2286.48,1.0,187.0,5.0,1.10353,0.854381
Asian,20,Left,19,Female,No,English,B,189,0,0,4,180.0,1.0,1.0,1254.21,1.0,188.0,5.0,1.00666,0.80038
Asian,20,Left,19,Female,No,English,B,190,1,8,16,0.0,0.0,1.0,815.558,1.0,189.0,5.0,1.11927,0.88218
Asian,20,Left,19,Female,No,English,B,191,0,8,4,180.0,1.0,1.0,1159.87,1.0,190.0,5.0,1.13487,0.82183
Asian,20,Left,19,Female,No,English,B,192,1,16,0,0.0,0.0,1.0,1093.81,1.0,191.0,5.0,1.02527,0.826488
Asian,20,Left,19,Female,No,English,B,193,1,16,8,180.0,1.0,1.0,1220.92,1.0,192.0,6.0,1.1955,0.898766
Asian,20,Left,19,Female,No,English,B,194,1,16,4,180.0,1.0,1.0,695.961,1.0,193.0,6.0,1.13586,0.804241
Asian,20,Left,19,Female,No,English,B,195,0,8,8,0.0,0.0,1.0,1077.31,1.0,194.0,6.0,1.0914,0.906678
Asian,20,Left,19,Female,No,English,B,196,0,16,0,180.0,1.0,1.0,1209.96,1.0,195.0,6.0,1.00341,0.896675
Asian,20,Left,19,Female,No,English,B,197,0,0,8,180.0,1.0,1.0,1034.39,1.0,196.0,6.0,1.02635,0.893185
Asian,20,Left,19,Female,No,English,B,198,0,16,16,180.0,1.0,1.0,842.531,1.0,197.0,6.0,1.11635,0.805063
Asian,20,Left,19,Female,No,English,B,199,1,0,16,0.0,0.0,1.0,983.874,1.0,198.0,6.0,1.13983,0.838541
Asian,20,Left,19,Female,No,English,B,200,1,4,8,180.0,1.0,1.0,1682.38,1.0,199.0,6.0,1.00435,0.851574
Asian,20,Left,19,Female,No,English,B,201,0,0,4,0.0,0.0,1.0,953.229,1.0,200.0,6.0,1.05614,0.897608
Asian,20,Left,19,Female,No,English,B,202,0,8,16,0.0,0.0,1.0,857.823,1.0,201.0,6.0,1.1512,0.946519
Asian,20,Left,19,Female,No,English,B,203,0,4,0,0.0,0.0,1.0,928.432,1.0,202.0,6.0,1.15112,0.955655
Asian,20,Left,19,Female,No,English,B,204,0,16,4,180.0,1.0,1.0,1076.12,1.0,203.0,6.0,1.08518,0.934232
Asian,20,Left,19,Female,No,English,B,205,0,0,16,180.0,1.0,1.0,923.379,1.0,204.0,6.0,1.19896,0.884885
Asian,20,Left,19,Female,No,English,B,206,1,4,4,180.0,1.0,1.0,930.906,1.0,205.0,6.0,1.11071,0.905919
Asian,20,Left,19,Female,No,English,B,207,1,4,16,180.0,1.0,1.0,1270.85,1.0,206.0,6.0,1.11236,0.821742
Asian,20,Left,19,Female,No,English,B,208,1,8,8,0.0,0.0,1.0,1082.89,1.0,207.0,6.0,1.19506,0.946097
Asian,20,Left,19,Female,No,English,B,209,0,4,16,0.0,0.0,1.0,762.667,1.0,208.0,6.0,1.08632,0.823093
Asian,20,Left,19,Female,No,English,B,210,0,16,8,0.0,0.0,1.0,1737.25,1.0,209.0,6.0,1.19989,0.843651
Asian,20,Left,19,Female,No,English,B,211,1,0,4,180.0,1.0,1.0,761.247,1.0,210.0,6.0,1.01671,0.904823
Asian,20,Left,19,Female,No,English,B,212,0,8,4,180.0,1.0,1.0,841.261,1.0,211.0,6.0,1.17343,0.918072
Asian,20,Left,19,Female,No,English,B,213,1,4,0,0.0,0.0,1.0,937.651,1.0,212.0,6.0,1.03701,0.861786
Asian,20,Left,19,Female,No,English,B,214,1,16,16,180.0,1.0,1.0,1220.5,1.0,213.0,6.0,1.17351,0.943341
Asian,20,Left,19,Female,No,English,B,215,0,4,8,0.0,0.0,1.0,1063.94,1.0,214.0,6.0,1.10491,0.922462
Asian,20,Left,19,Female,No,English,B,216,1,8,16,0.0,0.0,1.0,831.6,1.0,215.0,6.0,1.17123,0.895069
Asian,20,Left,19,Female,No,English,B,217,1,8,0,0.0,0.0,1.0,675.305,1.0,216.0,6.0,1.07412,0.923171
Asian,20,Left,19,Female,No,English,B,218,1,8,4,0.0,0.0,1.0,847.411,1.0,217.0,6.0,1.11466,0.995841
Asian,20,Left,19,Female,No,English,B,219,0,4,4,180.0,1.0,1.0,854.378,1.0,218.0,6.0,1.06842,0.922925
Asian,20,Left,19,Female,No,English,B,220,1,0,0,0.0,0.0,1.0,688.953,1.0,219.0,6.0,1.03337,0.863636
Asian,20,Left,19,Female,No,English,B,221,1,0,8,0.0,0.0,1.0,770.969,1.0,220.0,6.0,1.10682,0.975561
Asian,20,Left,19,Female,No,English,B,222,1,16,0,180.0,1.0,1.0,1736.07,1.0,221.0,6.0,1.05323,0.957047
Asian,20,Left,19,Female,No,English,B,223,0,8,0,0.0,0.0,1.0,755.47,1.0,222.0,6.0,1.05899,0.979846
Asian,20,Left,19,Female,No,English,B,224,0,0,0,180.0,1.0,1.0,745.906,1.0,223.0,6.0,1.00196,0.84628
Asian,20,Left,19,Female,No,English,B,225,1,4,4,0.0,0.0,1.0,1019.61,1.0,224.0,7.0,1.03554,0.825045
Asian,20,Left,19,Female,No,English,B,226,1,0,4,0.0,0.0,1.0,919.237,1.0,225.0,7.0,1.15926,0.824232
Asian,20,Left,19,Female,No,English,B,227,1,4,16,0.0,0.0,1.0,808.1,1.0,226.0,7.0,1.11772,0.835597
Asian,20,Left,19,Female,No,English,B,228,1,8,4,180.0,1.0,1.0,840.493,1.0,227.0,7.0,1.03107,0.828645
Asian,20,Left,19,Female,No,English,B,229,1,0,16,0.0,0.0,1.0,769.402,1.0,228.0,7.0,1.02711,0.85264
Asian,20,Left,19,Female,No,English,B,230,0,4,0,180.0,1.0,1.0,828.256,1.0,229.0,7.0,1.0979,0.947735
Asian,20,Left,19,Female,No,English,B,231,1,0,0,0.0,0.0,1.0,766.658,1.0,230.0,7.0,1.13911,0.987219
Asian,20,Left,19,Female,No,English,B,232,1,8,16,180.0,1.0,1.0,963.589,1.0,231.0,7.0,1.03174,0.959952
Asian,20,Left,19,Female,No,English,B,233,0,8,4,0.0,0.0,1.0,1184.09,1.0,232.0,7.0,1.02858,0.862844
Asian,20,Left,19,Female,No,English,B,234,0,0,0,180.0,1.0,1.0,784.238,1.0,233.0,7.0,1.08277,0.847959
Asian,20,Left,19,Female,No,English,B,235,0,4,16,180.0,1.0,1.0,903.934,1.0,234.0,7.0,1.09605,0.840509
Asian,20,Left,19,Female,No,English,B,236,1,16,16,180.0,1.0,1.0,859.086,1.0,235.0,7.0,1.19602,0.871758
Asian,20,Left,19,Female,No,English,B,237,0,16,0,0.0,0.0,1.0,1038.17,1.0,236.0,7.0,1.0998,0.976889
Asian,20,Left,19,Female,No,English,B,238,0,8,0,0.0,0.0,1.0,1814.98,1.0,237.0,7.0,1.05453,0.896376
Asian,20,Left,19,Female,No,English,B,239,0,0,8,0.0,0.0,1.0,805.379,1.0,238.0,7.0,1.02671,0.849155
Asian,20,Left,19,Female,No,English,B,240,1,8,0,180.0,1.0,1.0,1078.71,1.0,239.0,7.0,1.00995,0.931093
Asian,20,Left,19,Female,No,English,B,241,1,16,0,180.0,1.0,1.0,1090.98,1.0,240.0,7.0,1.04804,0.907459
Asian,20,Left,19,Female,No,English,B,242,0,0,4,0.0,0.0,1.0,835.396,1.0,241.0,7.0,1.08726,0.927034
Asian,20,Left,19,Female,No,English,B,243,1,0,8,0.0,0.0,1.0,717.093,1.0,242.0,7.0,1.15854,0.950179
Asian,20,Left,19,Female,No,English,B,244,1,16,8,0.0,0.0,1.0,1116.46,1.0,243.0,7.0,1.10467,0.859538
Asian,20,Left,19,Female,No,English,B,245,0,16,4,180.0,1.0,1.0,996.688,1.0,244.0,7.0,1.08934,0.812445
Asian,20,Left,19,Female,No,English,B,246,1,4,8,180.0,1.0,1.0,728.428,1.0,245.0,7.0,1.0097,0.992738
Asian,20,Left,19,Female,No,English,B,247,0,8,8,180.0,1.0,1.0,903.501,1.0,246.0,7.0,1.0512,0.894054
Asian,20,Left,19,Female,No,English,B,248,1,4,0,180.0,1.0,1.0,791.631,1.0,247.0,7.0,1.04748,0.942458
Asian,20,Left,19,Female,No,English,B,249,0,4,4,0.0,0.0,1.0,1370.37,1.0,248.0,7.0,1.12256,0.983746
Asian,20,Left,19,Female,No,English,B,250,1,8,8,180.0,1.0,1.0,993.644,1.0,249.0,7.0,1.18924,0.999547
Asian,20,Left,19,Female,No,English,B,251,0,0,16,180.0,1.0,1.0,761.033,1.0,250.0,7.0,1.10492,0.815589
Asian,20,Left,19,Female,No,English,B,252,0,4,8,180.0,1.0,1.0,865.98,1.0,251.0,7.0,1.03939,0.883221
Asian,20,Left,19,Female,No,English,B,253,0,8,16,0.0,0.0,1.0,743.952,1.0,252.0,7.0,1.04764,0.913547
Asian,20,Left,19,Female,No,English,B,254,0,16,16,180.0,1.0,1.0,1151.57,1.0,253.0,7.0,1.02899,0.905611
Asian,20,Left,19,Female,No,English,B,255,1,16,4,0.0,0.0,1.0,1011.1,1.0,254.0,7.0,1.1361,0.819649
Asian,20,Left,19,Female,No,English,B,256,0,16,8,0.0,0.0,1.0,1283.81,1.0,255.0,7.0,1.12549,0.901747
Asian,20,Left,19,Female,No,English,B,257,1,0,0,0.0,0.0,1.0,718.85,1.0,256.0,8.0,1.04531,0.942372
Asian,20,Left,19,Female,No,English,B,258,0,4,4,180.0,1.0,1.0,839.724,1.0,257.0,8.0,1.01968,0.864462
Asian,20,Left,19,Female,No,English,B,259,1,4,0,0.0,0.0,1.0,1621.49,1.0,258.0,8.0,1.03313,0.971056
Asian,20,Left,19,Female,No,English,B,260,0,8,16,180.0,1.0,1.0,920.707,1.0,259.0,8.0,1.08787,0.973998
Asian,20,Left,19,Female,No,English,B,261,1,4,4,0.0,0.0,1.0,2037.63,1.0,260.0,8.0,1.16583,0.93281
Asian,20,Left,19,Female,No,English,B,262,0,4,16,0.0,0.0,1.0,855.76,1.0,261.0,8.0,1.17724,0.811112
Asian,20,Left,19,Female,No,English,B,263,1,0,8,180.0,1.0,1.0,1345.83,1.0,262.0,8.0,1.19038,0.978018
Asian,20,Left,19,Female,No,English,B,264,1,4,8,180.0,1.0,1.0,983.803,1.0,263.0,8.0,1.06407,0.902356
Asian,20,Left,19,Female,No,English,B,265,1,16,4,180.0,1.0,1.0,1166.22,1.0,264.0,8.0,1.15393,0.853392
Asian,20,Left,19,Female,No,English,B,266,0,16,16,180.0,1.0,1.0,936.841,1.0,265.0,8.0,1.07965,0.930469
Asian,20,Left,19,Female,No,English,B,267,1,0,4,0.0,0.0,1.0,1043.11,1.0,266.0,8.0,1.04801,0.846651
Asian,20,Left,19,Female,No,English,B,268,1,8,8,180.0,1.0,1.0,1115.03,1.0,267.0,8.0,1.10929,0.829403
Asian,20,Left,19,Female,No,English,B,269,0,0,0,180.0,1.0,1.0,622.553,1.0,268.0,8.0,1.12171,0.985614
Asian,20,Left,19,Female,No,English,B,270,0,8,4,0.0,0.0,1.0,1101.61,1.0,269.0,8.0,1.12063,0.845326
Asian,20,Left,19,Female,No,English,B,271,1,16,16,0.0,0.0,1.0,890.071,1.0,270.0,8.0,1.19392,0.926279
Asian,20,Left,19,Female,No,English,B,272,1,4,16,180.0,1.0,1.0,795.513,1.0,271.0,8.0,1.12818,0.908594
Asian,20,Left,19,Female,No,English,B,273,1,8,4,0.0,0.0,1.0,672.39,1.0,272.0,8.0,1.09814,0.806979
Asian,20,Left,19,Female,No,English,B,274,0,4,8,0.0,0.0,1.0,998.626,1.0,273.0,8.0,1.06798,0.827753
Asian,20,Left,19,Female,No,English,B,275,0,8,0,0.0,0.0,1.0,696.81,1.0,274.0,8.0,1.07171,0.930851
Asian,20,Left,19,Female,No,English,B,276,0,0,16,180.0,1.0,1.0,898.759,1.0,275.0,8.0,1.05965,0.955416
Asian,20,Left,19,Female,No,English,B,277,1,16,8,180.0,1.0,1.0,1506.89,1.0,276.0,8.0,1.12668,0.8579
Asian,20,Left,19,Female,No,English,B,278,0,16,4,0.0,0.0,1.0,1011.03,1.0,277.0,8.0,1.02451,0.84621
Asian,20,Left,19,Female,No,English,B,279,0,16,0,0.0,0.0,1.0,1048.21,1.0,278.0,8.0,1.17163,0.839131
Asian,20,Left,19,Female,No,English,B,280,0,0,8,180.0,1.0,1.0,954.838,1.0,279.0,8.0,1.19449,0.95732
Asian,20,Left,19,Female,No,English,B,281,0,0,4,0.0,0.0,1.0,1311.53,1.0,280.0,8.0,1.01377,0.885784
Asian,20,Left,19,Female,No,English,B,282,0,8,8,180.0,1.0,1.0,799.708,1.0,281.0,8.0,1.16303,0.811781
Asian,20,Left,19,Female,No,English,B,283,1,8,16,180.0,1.0,1.0,1060.54,1.0,282.0,8.0,1.049,0.940494
Asian,20,Left,19,Female,No,English,B,284,0,4,0,180.0,1.0,1.0,781.065,1.0,283.0,8.0,1.14006,0.909618
Asian,20,Left,19,Female,No,English,B,285,0,16,8,0.0,0.0,1.0,1018.2,1.0,284.0,8.0,1.15274,0.953631
Asian,20,Left,19,Female,No,English,B,286,1,16,0,180.0,1.0,1.0,791.788,1.0,285.0,8.0,1.04306,0.86295
Asian,20,Left,19,Female,No,English,B,287,1,8,0,0.0,0.0,1.0,771.508,1.0,286.0,8.0,1.18194,0.892581
Asian,20,Left,19,Female,No,English,B,288,1,0,16,0.0,0.0,1.0,634.657,1.0,287.0,8.0,1.09057,0.879852
Asian,20,Left,19,Female,No,English,B,289,1,4,4,0.0,0.0,1.0,1144.82,1.0,288.0,9.0,1.01167,0.93697
Asian,20,Left,19,Female,No,English,B,290,1,8,4,180.0,1.0,1.0,889.846,1.0,289.0,9.0,1.16693,0.981264
Asian,20,Left,19,Female,No,English,B,291,0,0,8,0.0,0.0,1.0,899.844,1.0,290.0,9.0,1.00998,0.834019
Asian,20,Left,19,Female,No,English,B,292,0,0,4,180.0,1.0,1.0,833.873,1.0,291.0,9.0,1.07496,0.937889
Asian,20,Left,19,Female,No,English,B,293,1,4,0,180.0,1.0,1.0,662.265,1.0,292.0,9.0,1.08299,0.803701
Asian,20,Left,19,Female,No,English,B,294,1,16,4,0.0,0.0,1.0,1198.72,1.0,293.0,9.0,1.047,0.940658
Asian,20,Left,19,Female,No,English,B,295,0,4,16,0.0,0.0,1.0,1040.02,1.0,294.0,9.0,1.12264,0.928755
Asian,20,Left,19,Female,No,English,B,296,1,0,8,0.0,0.0,1.0,810.412,1.0,295.0,9.0,1.12648,0.853148
Asian,20,Left,19,Female,No,English,B,297,0,16,8,180.0,1.0,1.0,1132.42,1.0,296.0,9.0,1.06183,0.981588
Asian,20,Left,19,Female,No,English,B,298,1,16,16,180.0,1.0,1.0,1368.42,1.0,297.0,9.0,1.01846,0.974968
Asian,20,Left,19,Female,No,English,B,299,1,8,0,0.0,0.0,1.0,813.423,1.0,298.0,9.0,1.08699,0.854406
Asian,20,Left,19,Female,No,English,B,300,1,8,16,0.0,0.0,1.0,915.113,1.0,299.0,9.0,1.01186,0.805089
Asian,20,Left,19,Female,No,English,B,301,1,16,8,180.0,1.0,1.0,839.05,1.0,300.0,9.0,1.18884,0.929045
Asian,20,Left,19,Female,No,English,B,302,0,16,16,0.0,0.0,1.0,930.586,1.0,301.0,9.0,1.19992,0.921959
Asian,20,Left,19,Female,No,English,B,303,0,8,0,0.0,0.0,1.0,1177.36,1.0,302.0,9.0,1.02814,0.94635
Asian,20,Left,19,Female,No,English,B,304,1,4,8,0.0,0.0,1.0,1009.81,1.0,303.0,9.0,1.04179,0.856682
Asian,20,Left,19,Female,No,English,B,305,0,16,0,180.0,1.0,1.0,1164.34,1.0,304.0,9.0,1.06817,0.942447
Asian,20,Left,19,Female,No,English,B,306,0,8,16,180.0,1.0,1.0,908.501,1.0,305.0,9.0,1.08266,0.846004
Asian,20,Left,19,Female,No,English,B,307,0,8,4,180.0,1.0,1.0,1568.76,1.0,306.0,9.0,1.18789,0.810463
Asian,20,Left,19,Female,No,English,B,308,1,0,4,180.0,1.0,1.0,882.128,1.0,307.0,9.0,1.12015,0.996416
Asian,20,Left,19,Female,No,English,B,309,1,8,8,180.0,1.0,1.0,833.268,1.0,308.0,9.0,1.10099,0.878501
Asian,20,Left,19,Female,No,English,B,310,1,0,16,180.0,1.0,1.0,857.773,1.0,309.0,9.0,1.18316,0.907244
Asian,20,Left,19,Female,No,English,B,311,0,8,8,0.0,0.0,1.0,887.301,1.0,310.0,9.0,1.17582,0.956846
Asian,20,Left,19,Female,No,English,B,312,0,0,16,0.0,0.0,1.0,949.584,1.0,311.0,9.0,1.18637,0.987361
Asian,20,Left,19,Female,No,English,B,313,0,4,0,0.0,0.0,1.0,1196.0,1.0,312.0,9.0,1.06328,0.899837
Asian,20,Left,19,Female,No,English,B,314,1,16,0,0.0,0.0,1.0,908.103,1.0,313.0,9.0,1.07965,0.975589
Asian,20,Left,19,Female,No,English,B,315,0,0,0,0.0,0.0,1.0,851.089,1.0,314.0,9.0,1.11548,0.970608
Asian,20,Left,19,Female,No,English,B,316,0,16,4,180.0,1.0,1.0,977.191,1.0,315.0,9.0,1.03229,0.816457
Asian,20,Left,19,Female,No,English,B,317,1,4,16,180.0,1.0,1.0,927.754,1.0,316.0,9.0,1.05162,0.986117
Asian,20,Left,19,Female,No,English,B,318,0,4,4,180.0,1.0,1.0,734.467,1.0,317.0,9.0,1.13679,0.887237
Asian,20,Left,19,Female,No,English,B,319,0,4,8,180.0,1.0,1.0,1185.35,1.0,318.0,9.0,1.14636,0.861102
Asian,20,Left,19,Female,No,English,B,320,1,0,0,0.0,0.0,1.0,1580.78,1.0,319.0,9.0,1.17773,0.949028
Asian,20,Left,19,Female,No,English,B,321,1,4,0,0.0,0.0,1.0,1173.8,1.0,320.0,10.0,1.09482,0.880107
Asian,20,Left,19,Female,No,English,B,322,1,8,4,0.0,0.0,1.0,920.251,1.0,321.0,10.0,1.13648,0.98285
Asian,20,Left,19,Female,No,English,B,323,0,0,4,180.0,1.0,1.0,987.973,1.0,322.0,10.0,1.19617,0.82807
Asian,20,Left,19,Female,No,English,B,324,1,0,16,0.0,0.0,1.0,926.951,1.0,323.0,10.0,1.05284,0.845389
Asian,20,Left,19,Female,No,English,B,325,1,0,8,180.0,1.0,1.0,1036.83,1.0,324.0,10.0,1.17202,0.803898
Asian,20,Left,19,Female,No,English,B,326,1,16,4,0.0,0.0,1.0,987.999,1.0,325.0,10.0,1.00048,0.823292
Asian,20,Left,19,Female,No,English,B,327,1,4,8,180.0,1.0,1.0,944.835,1.0,326.0,10.0,1.16221,0.979917
Asian,20,Left,19,Female,No,English,B,328,0,0,0,180.0,1.0,1.0,955.276,1.0,327.0,10.0,1.1908,0.810603
Asian,20,Left,19,Female,No,English,B,329,1,4,4,180.0,1.0,1.0,868.506,1.0,328.0,10.0,1.08321,0.898106
Asian,20,Left,19,Female,No,English,B,330,1,0,4,180.0,1.0,1.0,1018.72,1.0,329.0,10.0,1.05526,0.892561
Asian,20,Left,19,Female,No,English,B,331,0,16,4,180.0,1.0,1.0,1057.12,1.0,330.0,10.0,1.19149,0.832241
Asian,20,Left,19,Female,No,English,B,332,0,4,4,180.0,1.0,1.0,918.314,1.0,331.0,10.0,1.00876,0.848945
Asian,20,Left,19,Female,No,English,B,333,1,16,16,0.0,0.0,1.0,1027.7,1.0,332.0,10.0,1.17837,0.911644
Asian,20,Left,19,Female,No,English,B,334,0,16,0,180.0,1.0,1.0,1064.73,1.0,333.0,10.0,1.03219,0.861021
Asian,20,Left,19,Female,No,English,B,335,1,16,8,0.0,0.0,1.0,865.554,1.0,334.0,10.0,1.12459,0.874047
Asian,20,Left,19,Female,No,English,B,336,0,8,8,0.0,0.0,1.0,1500.31,1.0,335.0,10.0,1.07784,0.97657
Asian,20,Left,19,Female,No,English,B,337,0,0,8,180.0,1.0,1.0,802.615,1.0,336.0,10.0,1.18496,0.9229
Asian,20,Left,19,Female,No,English,B,338,1,8,0,180.0,1.0,1.0,1132.29,1.0,337.0,10.0,1.07061,0.847232
Asian,20,Left,19,Female,No,English,B,339,0,16,16,0.0,0.0,1.0,951.705,1.0,338.0,10.0,1.12932,0.833751
Asian,20,Left,19,Female,No,English,B,340,0,16,8,0.0,0.0,1.0,765.497,1.0,339.0,10.0,1.01303,0.921755
Asian,20,Left,19,Female,No,English,B,341,0,8,16,0.0,0.0,1.0,1095.0,1.0,340.0,10.0,1.00589,0.861824
Asian,20,Left,19,Female,No,English,B,342,0,4,0,0.0,0.0,1.0,739.102,1.0,341.0,10.0,1.1994,0.844241
Asian,20,Left,19,Female,No,English,B,343,0,4,8,180.0,1.0,1.0,716.858,1.0,342.0,10.0,1.02359,0.834316
Asian,20,Left,19,Female,No,English,B,344,1,0,0,180.0,1.0,1.0,936.827,1.0,343.0,10.0,1.11151,0.988676
Asian,20,Left,19,Female,No,English,B,345,0,8,4,180.0,1.0,1.0,909.684,1.0,344.0,10.0,1.14437,0.941193
Asian,20,Left,19,Female,No,English,B,346,0,0,16,0.0,0.0,1.0,812.911,1.0,345.0,10.0,1.14937,0.977953
Asian,20,Left,19,Female,No,English,B,347,1,8,8,0.0,0.0,1.0,713.76,1.0,346.0,10.0,1.11804,0.848551
Asian,20,Left,19,Female,No,English,B,348,1,8,16,180.0,1.0,1.0,1204.59,1.0,347.0,10.0,1.01786,0.993939
Asian,20,Left,19,Female,No,English,B,349,0,4,16,180.0,1.0,1.0,883.28,1.0,348.0,10.0,1.07884,0.988026
Asian,20,Left,19,Female,No,English,B,350,1,16,0,0.0,0.0,1.0,1126.31,1.0,349.0,10.0,1.16897,0.915183
Asian,20,Left,19,Female,No,English,B,351,0,8,0,0.0,0.0,1.0,730.706,1.0,350.0,10.0,1.16982,0.863671
Asian,20,Left,19,Female,No,English,B,352,1,4,16,0.0,0.0,1.0,970.021,1.0,351.0,10.0,1.10059,0.942879
Asian,20,Left,19,Female,No,English,B,353,0,4,8,180.0,1.0,1.0,920.853,1.0,352.0,11.0,1.06288,0.802494
Asian,20,Left,19,Female,No,English,B,354,1,8,8,0.0,0.0,1.0,1078.86,1.0,353.0,11.0,1.19193,0.845639
Asian,20,Left,19,Female,No,English,B,355,1,8,16,180.0,1.0,1.0,774.083,1.0,354.0,11.0,1.01924,0.97105
Asian,20,Left,19,Female,No,English,B,356,0,16,16,0.0,0.0,1.0,965.395,1.0,355.0,11.0,1.06382,0.940528
Asian,20,Left,19,Female,No,English,B,357,0,8,0,180.0,1.0,1.0,965.846,1.0,356.0,11.0,1.19786,0.879533
Asian,20,Left,19,Female,No,English,B,358,0,16,8,180.0,1.0,1.0,921.566,1.0,357.0,11.0,1.04848,0.894098
Asian,20,Left,19,Female,No,English,B,359,1,0,8,180.0,1.0,1.0,1051.47,1.0,358.0,11.0,1.19916,0.812858
Asian,20,Left,19,Female,No,English,B,360,0,16,4,180.0,1.0,1.0,821.079,1.0,359.0,11.0,1.16313,0.960783
Asian,20,Left,19,Female,No,English,B,361,0,0,8,180.0,1.0,1.0,741.906,1.0,360.0,11.0,1.02405,0.895103
Asian,20,Left,19,Female,No,English,B,362,1,4,16,180.0,1.0,1.0,684.563,1.0,361.0,11.0,1.12653,0.881953
Asian,20,Left,19,Female,No,English,B,363,1,8,4,0.0,0.0,1.0,1341.83,1.0,362.0,11.0,1.08375,0.84272
Asian,20,Left,19,Female,No,English,B,364,1,4,8,0.0,0.0,1.0,714.096,1.0,363.0,11.0,1.12477,0.870425
Asian,20,Left,19,Female,No,English,B,365,1,16,0,0.0,0.0,1.0,1619.93,1.0,364.0,11.0,1.05496,0.946062
Asian,20,Left,19,Female,No,English,B,366,0,4,4,0.0,0.0,1.0,1699.47,1.0,365.0,11.0,1.02482,0.993507
Asian,20,Left,19,Female,No,English,B,367,1,16,8,0.0,0.0,1.0,1217.67,1.0,366.0,11.0,1.18848,0.953279
Asian,20,Left,19,Female,No,English,B,368,0,0,16,0.0,0.0,1.0,952.542,1.0,367.0,11.0,1.08841,0.908665
Asian,20,Left,19,Female,No,English,B,369,1,8,0,0.0,0.0,1.0,1157.5,1.0,368.0,11.0,1.16776,0.849834
Asian,20,Left,19,Female,No,English,B,370,0,0,4,0.0,0.0,1.0,857.486,1.0,369.0,11.0,1.09079,0.923671
Asian,20,Left,19,Female,No,English,B,371,0,4,0,0.0,0.0,1.0,871.606,1.0,370.0,11.0,1.09263,0.953979
Asian,20,Left,19,Female,No,English,B,372,1,0,16,180.0,1.0,1.0,1047.18,1.0,371.0,11.0,1.01437,0.8118
Asian,20,Left,19,Female,No,English,B,373,0,16,0,0.0,0.0,1.0,853.278,1.0,372.0,11.0,1.15208,0.92748
Asian,20,Left,19,Female,No,English,B,374,0,8,4,0.0,0.0,1.0,706.254,1.0,373.0,11.0,1.15748,0.884054
Asian,20,Left,19,Female,No,English,B,375,0,4,16,180.0,1.0,1.0,744.691,1.0,374.0,11.0,1.08345,0.982884
Asian,20,Left,19,Female,No,English,B,376,0,8,16,180.0,1.0,1.0,1298.5,1.0,375.0,11.0,1.15117,0.929996
Asian,20,Left,19,Female,No,English,B,377,1,4,4,180.0,1.0,1.0,769.1,1.0,376.0,11.0,1.01129,0.912268
Asian,20,Left,19,Female,No,English,B,378,1,4,0,0.0,0.0,1.0,1383.34,1.0,377.0,11.0,1.11804,0.872742
Asian,20,Left,19,Female,No,English,B,379,1,0,4,180.0,1.0,1.0,1085.37,1.0,378.0,11.0,1.19807,0.940292
Asian,20,Left,19,Female,No,English,B,380,1,16,4,0.0,0.0,1.0,1160.75,1.0,379.0,11.0,1.03995,0.952203
Asian,20,Left,19,Female,No,English,B,381,1,16,16,0.0,0.0,1.0,858.755,1.0,380.0,11.0,1.18309,0.974614
Asian,20,Left,19,Female,No,English,B,382,0,0,0,180.0,1.0,1.0,930.004,1.0,381.0,11.0,1.13796,0.815428
Asian,20,Left,19,Female,No,English,B,383,1,0,0,180.0,1.0,1.0,751.317,1.0,382.0,11.0,1.13718,0.996729
Asian,20,Left,19,Female,No,English,B,384,0,8,8,180.0,1.0,1.0,907.986,1.0,383.0,11.0,1.19503,0.970975
Asian,20,Left,19,Female,No,English,B,385,1,16,4,180.0,1.0,1.0,656.792,1.0,384.0,12.0,1.00587,0.957225
Asian,20,Left,19,Female,No,English,B,386,0,8,16,0.0,0.0,1.0,1365.01,1.0,385.0,12.0,1.07706,0.966338
Asian,20,Left,19,Female,No,English,B,387,0,16,16,0.0,0.0,1.0,946.107,1.0,386.0,12.0,1.15336,0.829957
Asian,20,Left,19,Female,No,English,B,388,0,8,4,180.0,1.0,1.0,1002.68,1.0,387.0,12.0,1.04542,0.812671
Asian,20,Left,19,Female,No,English,B,389,1,8,8,0.0,0.0,1.0,989.228,1.0,388.0,12.0,1.02188,0.927131
Asian,20,Left,19,Female,No,English,B,390,1,8,0,0.0,0.0,1.0,977.618,1.0,389.0,12.0,1.19261,0.956038
Asian,20,Left,19,Female,No,English,B,391,0,16,0,180.0,1.0,1.0,1325.65,1.0,390.0,12.0,1.19041,0.810754
Asian,20,Left,19,Female,No,English,B,392,0,16,8,0.0,0.0,1.0,1323.14,1.0,391.0,12.0,1.03466,0.83816
Asian,20,Left,19,Female,No,English,B,393,1,0,16,180.0,1.0,1.0,660.872,1.0,392.0,12.0,1.0725,0.903459
Asian,20,Left,19,Female,No,English,B,394,1,16,0,0.0,0.0,1.0,815.802,1.0,393.0,12.0,1.048,0.984867
Asian,20,Left,19,Female,No,English,B,395,1,4,4,180.0,1.0,1.0,1004.97,1.0,394.0,12.0,1.10364,0.83474
Asian,20,Left,19,Female,No,English,B,396,0,4,16,0.0,0.0,1.0,1374.0,1.0,395.0,12.0,1.10645,0.875947
Asian,20,Left,19,Female,No,English,B,397,1,0,4,180.0,1.0,1.0,946.172,1.0,396.0,12.0,1.0694,0.818133
Asian,20,Left,19,Female,No,English,B,398,1,4,0,0.0,0.0,1.0,1071.86,1.0,397.0,12.0,1.03996,0.875039
Asian,20,Left,19,Female,No,English,B,399,0,0,0,0.0,0.0,1.0,706.785,1.0,398.0,12.0,1.1238,0.820957
Asian,20,Left,19,Female,No,English,B,400,0,0,16,0.0,0.0,1.0,741.357,1.0,399.0,12.0,1.06242,0.920387
Asian,20,Left,19,Female,No,English,B,401,0,8,8,0.0,0.0,1.0,943.709,1.0,400.0,12.0,1.06744,0.931627
Asian,20,Left,19,Female,No,English,B,402,0,16,4,0.0,0.0,1.0,698.175,1.0,401.0,12.0,1.05102,0.836901
Asian,20,Left,19,Female,No,English,B,403,1,0,0,0.0,0.0,1.0,567.429,1.0,402.0,12.0,1.08025,0.905163
Asian,20,Left,19,Female,No,English,B,404,0,4,8,180.0,1.0,1.0,1165.0,1.0,403.0,12.0,1.14812,0.928012
Asian,20,Left,19,Female,No,English,B,405,1,4,16,180.0,1.0,1.0,603.423,1.0,404.0,12.0,1.08723,0.829789
Asian,20,Left,19,Female,No,English,B,406,0,4,4,0.0,0.0,1.0,855.484,1.0,405.0,12.0,1.0318,0.955367
Asian,20,Left,19,Female,No,English,B,407,1,8,16,180.0,1.0,1.0,1421.75,1.0,406.0,12.0,1.18961,0.862114
Asian,20,Left,19,Female,No,English,B,408,0,0,4,180.0,1.0,1.0,815.288,1.0,407.0,12.0,1.00248,0.998104
Asian,20,Left,19,Female,No,English,B,409,1,16,16,180.0,1.0,1.0,948.875,1.0,408.0,12.0,1.19377,0.875612
Asian,20,Left,19,Female,No,English,B,410,1,16,8,180.0,1.0,1.0,891.123,1.0,409.0,12.0,1.09526,0.896856
Asian,20,Left,19,Female,No,English,B,411,1,0,8,180.0,1.0,1.0,816.209,1.0,410.0,12.0,1.10719,0.951315
Asian,20,Left,19,Female,No,English,B,412,1,8,4,180.0,1.0,1.0,1035.78,1.0,411.0,12.0,1.00568,0.941395
Asian,20,Left,19,Female,No,English,B,413,0,4,0,180.0,1.0,1.0,604.702,1.0,412.0,12.0,1.02208,0.842544
Asian,20,Left,19,Female,No,English,B,414,0,0,8,0.0,0.0,1.0,778.19,1.0,413.0,12.0,1.11442,0.829171
Asian,20,Left,19,Female,No,English,B,415,0,8,0,180.0,1.0,1.0,1223.27,1.0,414.0,12.0,1.13743,0.957184
Asian,20,Left,19,Female,No,English,B,416,1,4,8,0.0,0.0,1.0,1285.34,1.0,415.0,12.0,1.06615,0.933938
Asian,20,Left,19,Female,No,English,B,417,0,4,16,0.0,0.0,1.0,573.004,1.0,416.0,13.0,1.05355,0.909933
Asian,20,Left,19,Female,No,English,B,418,0,4,4,180.0,1.0,1.0,793.147,1.0,417.0,13.0,1.08444,0.978345
Asian,20,Left,19,Female,No,English,B,419,1,8,4,180.0,1.0,1.0,1067.83,1.0,418.0,13.0,1.05496,0.991008
Asian,20,Left,19,Female,No,English,B,420,1,4,0,180.0,1.0,1.0,1165.05,1.0,419.0,13.0,1.13193,0.946355
Asian,20,Left,19,Female,No,English,B,421,0,0,16,180.0,1.0,1.0,592.749,1.0,420.0,13.0,1.01028,0.803737
Asian,20,Left,19,Female,No,English,B,422,1,16,16,180.0,1.0,1.0,974.069,1.0,421.0,13.0,1.19979,0.885887
Asian,20,Left,19,Female,No,English,B,423,0,16,4,0.0,0.0,1.0,814.298,1.0,422.0,13.0,1.04986,0.895219
Asian,20,Left,19,Female,No,English,B,424,1,8,8,0.0,0.0,1.0,915.62,1.0,423.0,13.0,1.10324,0.924058
Asian,20,Left,19,Female,No,English,B,425,1,8,16,0.0,0.0,1.0,1365.0,1.0,424.0,13.0,1.04101,0.868722
Asian,20,Left,19,Female,No,English,B,426,1,8,0,0.0,0.0,1.0,1006.68,1.0,425.0,13.0,1.02994,0.919469
Asian,20,Left,19,Female,No,English,B,427,0,4,8,0.0,0.0,1.0,1323.42,1.0,426.0,13.0,1.01281,0.991799
Asian,20,Left,19,Female,No,English,B,428,1,4,4,180.0,1.0,1.0,710.541,1.0,427.0,13.0,1.03147,0.805807
Asian,20,Left,19,Female,No,English,B,429,1,0,16,0.0,0.0,1.0,725.46,1.0,428.0,13.0,1.08588,0.939117
Asian,20,Left,19,Female,No,English,B,430,0,8,8,0.0,0.0,1.0,1468.13,1.0,429.0,13.0,1.10575,0.896829
Asian,20,Left,19,Female,No,English,B,431,1,16,0,0.0,0.0,1.0,917.168,1.0,430.0,13.0,1.17295,0.994285
Asian,20,Left,19,Female,No,English,B,432,1,0,4,0.0,0.0,1.0,1316.3,1.0,431.0,13.0,1.12986,0.864184
Asian,20,Left,19,Female,No,English,B,433,0,0,0,0.0,0.0,1.0,738.789,1.0,432.0,13.0,1.00522,0.966513
Asian,20,Left,19,Female,No,English,B,434,1,16,4,180.0,1.0,1.0,1270.47,1.0,433.0,13.0,1.12518,0.912714
Asian,20,Left,19,Female,No,English,B,435,1,0,8,0.0,0.0,1.0,768.402,1.0,434.0,13.0,1.02079,0.94583
Asian,20,Left,19,Female,No,English,B,436,1,4,8,180.0,1.0,1.0,981.88,1.0,435.0,13.0,1.17368,0.881247
Asian,20,Left,19,Female,No,English,B,437,1,4,16,180.0,1.0,1.0,571.697,1.0,436.0,13.0,1.09514,0.814456
Asian,20,Left,19,Female,No,English,B,438,0,0,4,0.0,0.0,1.0,1290.27,1.0,437.0,13.0,1.14371,0.908463
Asian,20,Left,19,Female,No,English,B,439,1,16,8,0.0,0.0,1.0,1069.39,1.0,438.0,13.0,1.05587,0.893656
Asian,20,Left,19,Female,No,English,B,440,0,16,8,180.0,1.0,1.0,729.02,1.0,439.0,13.0,1.15754,0.975101
Asian,20,Left,19,Female,No,English,B,441,0,8,16,0.0,0.0,1.0,613.659,1.0,440.0,13.0,1.08335,0.816926
Asian,20,Left,19,Female,No,English,B,442,0,0,8,180.0,1.0,1.0,1059.63,1.0,441.0,13.0,1.1799,0.982496
Asian,20,Left,19,Female,No,English,B,443,1,0,0,180.0,1.0,1.0,720.215,1.0,442.0,13.0,1.0763,0.928334
Asian,20,Left,19,Female,No,English,B,444,0,4,0,180.0,1.0,1.0,1158.69,1.0,443.0,13.0,1.08599,0.920891
Asian,20,Left,19,Female,No,English,B,445,0,8,0,180.0,1.0,1.0,1300.74,1.0,444.0,13.0,1.18861,0.901499
Asian,20,Left,19,Female,No,English,B,446,0,16,0,180.0,1.0,1.0,950.943,1.0,445.0,13.0,1.15059,0.951683
Asian,20,Left,19,Female,No,English,B,447,0,16,16,0.0,0.0,1.0,784.274,1.0,446.0,13.0,1.19119,0.983473
Asian,20,Left,19,Female,No,English,B,448,0,8,4,180.0,1.0,1.0,656.976,1.0,447.0,13.0,1.03756,0.998859
Asian,20,Left,19,Female,No,English,B,449,0,8,16,180.0,1.0,1.0,743.944,1.0,448.0,14.0,1.19671,0.971198
Asian,20,Left,19,Female,No,English,B,450,1,16,0,180.0,1.0,1.0,1702.18,1.0,449.0,14.0,1.00107,0.857994
Asian,20,Left,19,Female,No,English,B,451,1,16,16,0.0,9999.0,0.0,9999.0,1.0,450.0,14.0,1.11279,0.924645
Asian,20,Left,19,Female,No,English,B,452,0,16,0,180.0,9999.0,0.0,9999.0,1.0,451.0,14.0,1.05553,0.993059
Asian,20,Left,19,Female,No,English,B,453,1,4,8,0.0,0.0,1.0,1777.38,1.0,452.0,14.0,1.02119,0.817526
Asian,20,Left,19,Female,No,English,B,454,0,8,0,180.0,1.0,1.0,1426.91,1.0,453.0,14.0,1.16129,0.818189
Asian,20,Left,19,Female,No,English,B,455,1,0,16,0.0,0.0,1.0,1098.24,1.0,454.0,14.0,1.04073,0.954915
Asian,20,Left,19,Female,No,English,B,456,1,8,8,0.0,0.0,1.0,1924.0,1.0,455.0,14.0,1.15524,0.877221
Asian,20,Left,19,Female,No,English,B,457,0,0,8,180.0,1.0,1.0,1279.89,1.0,456.0,14.0,1.18227,0.80601
Asian,20,Left,19,Female,No,English,B,458,1,0,4,180.0,1.0,1.0,1192.52,1.0,457.0,14.0,1.00791,0.86122
Asian,20,Left,19,Female,No,English,B,459,1,8,0,180.0,1.0,1.0,669.183,1.0,458.0,14.0,1.08133,0.925991
Asian,20,Left,19,Female,No,English,B,460,1,16,8,0.0,0.0,1.0,1056.24,1.0,459.0,14.0,1.1474,0.815149
Asian,20,Left,19,Female,No,English,B,461,0,8,4,0.0,0.0,1.0,902.49,1.0,460.0,14.0,1.07664,0.894334
Asian,20,Left,19,Female,No,English,B,462,1,4,0,180.0,1.0,1.0,1117.58,1.0,461.0,14.0,1.08578,0.93308
Asian,20,Left,19,Female,No,English,B,463,0,8,8,0.0,0.0,1.0,1139.44,1.0,462.0,14.0,1.01081,0.91082
Asian,20,Left,19,Female,No,English,B,464,0,4,16,180.0,1.0,1.0,856.436,1.0,463.0,14.0,1.07966,0.919384
Asian,20,Left,19,Female,No,English,B,465,1,4,16,0.0,0.0,1.0,920.473,1.0,464.0,14.0,1.1194,0.842965
Asian,20,Left,19,Female,No,English,B,466,1,0,8,0.0,0.0,1.0,675.864,1.0,465.0,14.0,1.02059,0.911011
Asian,20,Left,19,Female,No,English,B,467,1,0,0,180.0,1.0,1.0,598.565,1.0,466.0,14.0,1.10972,0.994536
Asian,20,Left,19,Female,No,English,B,468,1,16,4,180.0,1.0,1.0,822.178,1.0,467.0,14.0,1.12063,0.990304
Asian,20,Left,19,Female,No,English,B,469,1,8,16,0.0,0.0,1.0,769.371,1.0,468.0,14.0,1.00374,0.930462
Asian,20,Left,19,Female,No,English,B,470,1,4,4,0.0,0.0,1.0,872.504,1.0,469.0,14.0,1.04413,0.97391
Asian,20,Left,19,Female,No,English,B,471,0,4,8,0.0,0.0,1.0,1345.02,1.0,470.0,14.0,1.17101,0.899286
Asian,20,Left,19,Female,No,English,B,472,0,0,0,180.0,1.0,1.0,639.978,1.0,471.0,14.0,1.12822,0.976613
Asian,20,Left,19,Female,No,English,B,473,0,0,16,0.0,0.0,1.0,854.144,1.0,472.0,14.0,1.15913,0.922808
Asian,20,Left,19,Female,No,English,B,474,1,8,4,180.0,1.0,1.0,785.256,1.0,473.0,14.0,1.07948,0.935766
Asian,20,Left,19,Female,No,English,B,475,0,4,4,180.0,1.0,1.0,649.192,1.0,474.0,14.0,1.05792,0.832321
Asian,20,Left,19,Female,No,English,B,476,0,16,4,180.0,1.0,1.0,815.382,1.0,475.0,14.0,1.03106,0.980279
Asian,20,Left,19,Female,No,English,B,477,0,16,8,180.0,1.0,1.0,696.411,1.0,476.0,14.0,1.06757,0.979869
Asian,20,Left,19,Female,No,English,B,478,0,4,0,0.0,0.0,1.0,1032.42,1.0,477.0,14.0,1.07429,0.878378
Asian,20,Left,19,Female,No,English,B,479,0,16,16,0.0,0.0,1.0,501.313,1.0,478.0,14.0,1.14042,0.957994
Asian,20,Left,19,Female,No,English,B,480,0,0,4,0.0,1.0,0.0,503.361,1.0,479.0,14.0,1.04172,0.801853
Asian,20,Left,19,Female,No,English,B,481,1,0,8,180.0,1.0,1.0,917.944,1.0,480.0,15.0,1.04559,0.908746
Asian,20,Left,19,Female,No,English,B,482,1,4,0,0.0,0.0,1.0,1111.78,1.0,481.0,15.0,1.13309,0.872294
Asian,20,Left,19,Female,No,English,B,483,0,16,16,180.0,1.0,1.0,1094.91,1.0,482.0,15.0,1.1941,0.990138
Asian,20,Left,19,Female,No,English,B,484,0,0,0,0.0,0.0,1.0,733.183,1.0,483.0,15.0,1.18149,0.963985
Asian,20,Left,19,Female,No,English,B,485,1,8,8,180.0,1.0,1.0,1125.51,1.0,484.0,15.0,1.05707,0.879674
Asian,20,Left,19,Female,No,English,B,486,0,4,0,180.0,1.0,1.0,692.325,1.0,485.0,15.0,1.12362,0.803901
Asian,20,Left,19,Female,No,English,B,487,1,0,16,180.0,1.0,1.0,1032.01,1.0,486.0,15.0,1.00241,0.888161
Asian,20,Left,19,Female,No,English,B,488,0,16,8,0.0,0.0,1.0,1070.29,1.0,487.0,15.0,1.04689,0.949726
Asian,20,Left,19,Female,No,English,B,489,0,0,4,0.0,0.0,1.0,705.245,1.0,488.0,15.0,1.02393,0.80772
Asian,20,Left,19,Female,No,English,B,490,0,0,8,0.0,0.0,1.0,616.253,1.0,489.0,15.0,1.12361,0.857332
Asian,20,Left,19,Female,No,English,B,491,1,0,0,180.0,1.0,1.0,683.336,1.0,490.0,15.0,1.09091,0.860499
Asian,20,Left,19,Female,No,English,B,492,0,8,0,180.0,1.0,1.0,709.717,1.0,491.0,15.0,1.07433,0.987239
Asian,20,Left,19,Female,No,English,B,493,1,16,8,180.0,1.0,1.0,615.347,1.0,492.0,15.0,1.04314,0.924052
Asian,20,Left,19,Female,No,English,B,494,1,4,16,0.0,1.0,0.0,498.612,1.0,493.0,15.0,1.12592,0.981496
Asian,20,Left,19,Female,No,English,B,495,1,0,4,0.0,0.0,1.0,1096.93,1.0,494.0,15.0,1.1414,0.987827
Asian,20,Left,19,Female,No,English,B,496,0,0,16,180.0,1.0,1.0,861.836,1.0,495.0,15.0,1.08213,0.832519
Asian,20,Left,19,Female,No,English,B,497,0,8,4,0.0,0.0,1.0,930.566,1.0,496.0,15.0,1.04551,0.930751
Asian,20,Left,19,Female,No,English,B,498,0,16,0,0.0,0.0,1.0,1331.26,1.0,497.0,15.0,1.16786,0.84615
Asian,20,Left,19,Female,No,English,B,499,0,16,4,180.0,1.0,1.0,851.726,1.0,498.0,15.0,1.197,0.941153
Asian,20,Left,19,Female,No,English,B,500,1,8,16,180.0,1.0,1.0,877.744,1.0,499.0,15.0,1.01769,0.973641
Asian,20,Left,19,Female,No,English,B,501,1,4,4,0.0,0.0,1.0,719.115,1.0,500.0,15.0,1.05766,0.874785
Asian,20,Left,19,Female,No,English,B,502,0,8,16,180.0,1.0,1.0,972.647,1.0,501.0,15.0,1.02714,0.811003
Asian,20,Left,19,Female,No,English,B,503,1,16,16,0.0,0.0,1.0,806.609,1.0,502.0,15.0,1.08252,0.915918
Asian,20,Left,19,Female,No,English,B,504,0,8,8,0.0,0.0,1.0,862.025,1.0,503.0,15.0,1.17301,0.959001
Asian,20,Left,19,Female,No,English,B,505,0,4,4,180.0,1.0,1.0,790.863,1.0,504.0,15.0,1.08259,0.90241
Asian,20,Left,19,Female,No,English,B,506,1,8,0,180.0,1.0,1.0,941.029,1.0,505.0,15.0,1.15836,0.921792
Asian,20,Left,19,Female,No,English,B,507,1,4,8,0.0,0.0,1.0,728.482,1.0,506.0,15.0,1.1724,0.955932
Asian,20,Left,19,Female,No,English,B,508,1,8,4,0.0,0.0,1.0,701.591,1.0,507.0,15.0,1.03514,0.996586
Asian,20,Left,19,Female,No,English,B,509,0,4,8,180.0,1.0,1.0,880.782,1.0,508.0,15.0,1.038,0.962145
Asian,20,Left,19,Female,No,English,B,510,0,4,16,0.0,0.0,1.0,735.964,1.0,509.0,15.0,1.15763,0.953504
Asian,20,Left,19,Female,No,English,B,511,1,16,0,180.0,1.0,1.0,1250.04,1.0,510.0,15.0,1.1628,0.949794
Asian,20,Left,19,Female,No,English,B,512,1,16,4,0.0,0.0,1.0,918.041,1.0,511.0,15.0,1.00847,0.908127
Asian,20,Left,19,Female,No,English,B,513,0,4,8,180.0,1.0,1.0,825.221,1.0,512.0,16.0,1.10698,0.974322
Asian,20,Left,19,Female,No,English,B,514,0,8,16,180.0,1.0,1.0,782.381,1.0,513.0,16.0,1.03303,0.993436
Asian,20,Left,19,Female,No,English,B,515,0,16,0,0.0,0.0,1.0,910.087,1.0,514.0,16.0,1.06595,0.856931
Asian,20,Left,19,Female,No,English,B,516,1,4,0,180.0,1.0,1.0,530.293,1.0,515.0,16.0,1.02371,0.927643
Asian,20,Left,19,Female,No,English,B,517,0,8,8,180.0,1.0,1.0,674.485,1.0,516.0,16.0,1.00817,0.876139
Asian,20,Left,19,Female,No,English,B,518,0,0,0,180.0,1.0,1.0,644.431,1.0,517.0,16.0,1.09909,0.861754
Asian,20,Left,19,Female,No,English,B,519,0,8,4,180.0,1.0,1.0,990.533,1.0,518.0,16.0,1.11467,0.945417
Asian,20,Left,19,Female,No,English,B,520,0,0,4,0.0,0.0,1.0,776.424,1.0,519.0,16.0,1.18936,0.878329
Asian,20,Left,19,Female,No,English,B,521,1,0,0,180.0,1.0,1.0,867.573,1.0,520.0,16.0,1.15403,0.936092
Asian,20,Left,19,Female,No,English,B,522,1,8,0,0.0,0.0,1.0,1157.48,1.0,521.0,16.0,1.00338,0.960943
Asian,20,Left,19,Female,No,English,B,523,1,4,16,0.0,0.0,1.0,796.724,1.0,522.0,16.0,1.16619,0.829342
Asian,20,Left,19,Female,No,English,B,524,1,4,8,180.0,1.0,1.0,981.433,1.0,523.0,16.0,1.00116,0.910343
Asian,20,Left,19,Female,No,English,B,525,1,0,8,180.0,1.0,1.0,1029.1,1.0,524.0,16.0,1.04999,0.889685
Asian,20,Left,19,Female,No,English,B,526,1,8,4,0.0,0.0,1.0,1288.78,1.0,525.0,16.0,1.0729,0.841429
Asian,20,Left,19,Female,No,English,B,527,0,4,0,0.0,0.0,1.0,1128.55,1.0,526.0,16.0,1.16988,0.873124
Asian,20,Left,19,Female,No,English,B,528,1,4,4,0.0,0.0,1.0,1038.45,1.0,527.0,16.0,1.08214,0.834332
Asian,20,Left,19,Female,No,English,B,529,0,0,8,0.0,0.0,1.0,796.878,1.0,528.0,16.0,1.19148,0.936386
Asian,20,Left,19,Female,No,English,B,530,1,16,8,180.0,1.0,1.0,988.815,1.0,529.0,16.0,1.08119,0.887145
Asian,20,Left,19,Female,No,English,B,531,0,4,4,0.0,0.0,1.0,925.215,1.0,530.0,16.0,1.07551,0.828494
Asian,20,Left,19,Female,No,English,B,532,1,8,16,0.0,0.0,1.0,990.942,1.0,531.0,16.0,1.08869,0.858546
Asian,20,Left,19,Female,No,English,B,533,1,16,16,180.0,1.0,1.0,925.624,1.0,532.0,16.0,1.17544,0.931056
Asian,20,Left,19,Female,No,English,B,534,1,0,16,0.0,0.0,1.0,654.288,1.0,533.0,16.0,1.19635,0.858319
Asian,20,Left,19,Female,No,English,B,535,0,16,16,0.0,0.0,1.0,902.693,1.0,534.0,16.0,1.06846,0.844413
Asian,20,Left,19,Female,No,English,B,536,1,8,8,180.0,1.0,1.0,1196.05,1.0,535.0,16.0,1.07342,0.827824
Asian,20,Left,19,Female,No,English,B,537,1,16,4,0.0,0.0,1.0,1100.13,1.0,536.0,16.0,1.07748,0.812756
Asian,20,Left,19,Female,No,English,B,538,1,16,0,0.0,0.0,1.0,1022.37,1.0,537.0,16.0,1.19915,0.913208
Asian,20,Left,19,Female,No,English,B,539,0,16,8,180.0,1.0,1.0,1025.33,1.0,538.0,16.0,1.13411,0.833297
Asian,20,Left,19,Female,No,English,B,540,0,16,4,180.0,1.0,1.0,1506.54,1.0,539.0,16.0,1.00107,0.876221
Asian,20,Left,19,Female,No,English,B,541,0,0,16,0.0,0.0,1.0,997.141,1.0,540.0,16.0,1.19646,0.889996
Asian,20,Left,19,Female,No,English,B,542,0,8,0,180.0,1.0,1.0,776.843,1.0,541.0,16.0,1.08943,0.996481
Asian,20,Left,19,Female,No,English,B,543,0,4,16,0.0,0.0,1.0,954.252,1.0,542.0,16.0,1.11461,0.878554
Asian,20,Left,19,Female,No,English,B,544,1,0,4,180.0,1.0,1.0,1168.47,1.0,543.0,16.0,1.14544,0.992225
Asian,20,Left,19,Female,No,English,B,545,1,0,4,180.0,1.0,1.0,889.938,1.0,544.0,17.0,1.09361,0.809205
Asian,20,Left,19,Female,No,English,B,546,1,16,4,0.0,0.0,1.0,1094.32,1.0,545.0,17.0,1.03476,0.892752
Asian,20,Left,19,Female,No,English,B,547,0,16,4,0.0,0.0,1.0,1007.75,1.0,546.0,17.0,1.03555,0.909865
Asian,20,Left,19,Female,No,English,B,548,0,0,0,180.0,1.0,1.0,1016.47,1.0,547.0,17.0,1.0691,0.986897
Asian,20,Left,19,Female,No,English,B,549,1,16,0,180.0,1.0,1.0,1400.9,1.0,548.0,17.0,1.06981,0.80913
Asian,20,Left,19,Female,No,English,B,550,1,0,0,180.0,1.0,1.0,969.967,1.0,549.0,17.0,1.15311,0.915675
Asian,20,Left,19,Female,No,English,B,551,1,8,0,0.0,0.0,1.0,1011.15,1.0,550.0,17.0,1.06523,0.9233
Asian,20,Left,19,Female,No,English,B,552,0,16,0,0.0,0.0,1.0,916.369,1.0,551.0,17.0,1.10574,0.805587
Asian,20,Left,19,Female,No,English,B,553,0,0,16,180.0,1.0,1.0,965.836,1.0,552.0,17.0,1.17162,0.870943
Asian,20,Left,19,Female,No,English,B,554,1,4,8,0.0,0.0,1.0,1171.65,1.0,553.0,17.0,1.01667,0.993027
Asian,20,Left,19,Female,No,English,B,555,0,16,8,0.0,0.0,1.0,1509.4,1.0,554.0,17.0,1.11541,0.824452
Asian,20,Left,19,Female,No,English,B,556,0,0,8,180.0,1.0,1.0,1059.79,1.0,555.0,17.0,1.07015,0.886463
Asian,20,Left,19,Female,No,English,B,557,1,8,4,180.0,1.0,1.0,708.436,1.0,556.0,17.0,1.08524,0.979551
Asian,20,Left,19,Female,No,English,B,558,0,4,16,180.0,1.0,1.0,1224.96,1.0,557.0,17.0,1.00926,0.803219
Asian,20,Left,19,Female,No,English,B,559,0,4,4,0.0,0.0,1.0,1274.34,1.0,558.0,17.0,1.02816,0.878447
Asian,20,Left,19,Female,No,English,B,560,0,16,16,0.0,0.0,1.0,941.958,1.0,559.0,17.0,1.11015,0.993244
Asian,20,Left,19,Female,No,English,B,561,1,16,16,0.0,0.0,1.0,912.254,1.0,560.0,17.0,1.04175,0.932721
Asian,20,Left,19,Female,No,English,B,562,1,4,4,0.0,0.0,1.0,893.07,1.0,561.0,17.0,1.00947,0.934165
Asian,20,Left,19,Female,No,English,B,563,1,8,8,0.0,0.0,1.0,910.711,1.0,562.0,17.0,1.13002,0.809001
Asian,20,Left,19,Female,No,English,B,564,0,8,0,0.0,0.0,1.0,870.037,1.0,563.0,17.0,1.02863,0.912074
Asian,20,Left,19,Female,No,English,B,565,0,4,8,0.0,0.0,1.0,1117.39,1.0,564.0,17.0,1.06161,0.85138
Asian,20,Left,19,Female,No,English,B,566,0,8,8,180.0,1.0,1.0,905.557,1.0,565.0,17.0,1.06036,0.895011
Asian,20,Left,19,Female,No,English,B,567,1,0,8,180.0,1.0,1.0,1739.91,1.0,566.0,17.0,1.00217,0.985654
Asian,20,Left,19,Female,No,English,B,568,0,4,0,180.0,1.0,1.0,1148.39,1.0,567.0,17.0,1.10501,0.921083
Asian,20,Left,19,Female,No,English,B,569,0,8,16,180.0,1.0,1.0,1863.32,1.0,568.0,17.0,1.1456,0.812071
Asian,20,Left,19,Female,No,English,B,570,0,8,4,180.0,1.0,1.0,1514.68,1.0,569.0,17.0,1.02297,0.904812
Asian,20,Left,19,Female,No,English,B,571,1,8,16,180.0,1.0,1.0,658.115,1.0,570.0,17.0,1.13395,0.964352
Asian,20,Left,19,Female,No,English,B,572,0,0,4,180.0,1.0,1.0,988.482,1.0,571.0,17.0,1.05281,0.915824
Asian,20,Left,19,Female,No,English,B,573,1,0,16,0.0,0.0,1.0,894.681,1.0,572.0,17.0,1.1129,0.84198
Asian,20,Left,19,Female,No,English,B,574,1,16,8,180.0,1.0,1.0,1133.71,1.0,573.0,17.0,1.01347,0.964713
Asian,20,Left,19,Female,No,English,B,575,1,4,0,0.0,0.0,1.0,771.485,1.0,574.0,17.0,1.00762,0.930936
Asian,20,Left,19,Female,No,English,B,576,1,4,16,0.0,0.0,1.0,596.919,1.0,575.0,17.0,1.06102,0.975062
Asian,20,Left,19,Female,No,English,B,577,1,8,0,180.0,1.0,1.0,875.094,1.0,576.0,18.0,1.11208,0.979728
Asian,20,Left,19,Female,No,English,B,578,0,0,8,0.0,0.0,1.0,679.973,1.0,577.0,18.0,1.06134,0.801996
Asian,20,Left,19,Female,No,English,B,579,0,8,16,0.0,0.0,1.0,715.244,1.0,578.0,18.0,1.19732,0.832704
Asian,20,Left,19,Female,No,English,B,580,0,0,0,0.0,0.0,1.0,627.674,1.0,579.0,18.0,1.07593,0.956667
Asian,20,Left,19,Female,No,English,B,581,1,8,8,0.0,0.0,1.0,1098.14,1.0,580.0,18.0,1.10684,0.885969
Asian,20,Left,19,Female,No,English,B,582,0,0,16,180.0,1.0,1.0,888.892,1.0,581.0,18.0,1.00756,0.912032
Asian,20,Left,19,Female,No,English,B,583,0,8,0,0.0,0.0,1.0,649.752,1.0,582.0,18.0,1.16923,0.995382
Asian,20,Left,19,Female,No,English,B,584,1,16,0,180.0,1.0,1.0,650.238,1.0,583.0,18.0,1.15479,0.877195
Asian,20,Left,19,Female,No,English,B,585,1,8,4,0.0,0.0,1.0,874.813,1.0,584.0,18.0,1.08741,0.956282
Asian,20,Left,19,Female,No,English,B,586,1,16,16,0.0,0.0,1.0,956.083,1.0,585.0,18.0,1.08655,0.823536
Asian,20,Left,19,Female,No,English,B,587,1,0,0,0.0,0.0,1.0,585.788,1.0,586.0,18.0,1.09483,0.890629
Asian,20,Left,19,Female,No,English,B,588,1,4,16,0.0,0.0,1.0,956.389,1.0,587.0,18.0,1.10148,0.973097
Asian,20,Left,19,Female,No,English,B,589,0,16,8,180.0,1.0,1.0,1393.91,1.0,588.0,18.0,1.11237,0.842589
Asian,20,Left,19,Female,No,English,B,590,0,8,4,180.0,0.0,0.0,1079.08,1.0,589.0,18.0,1.12728,0.949066
Asian,20,Left,19,Female,No,English,B,591,1,8,16,180.0,1.0,1.0,859.366,1.0,590.0,18.0,1.04309,0.820798
Asian,20,Left,19,Female,No,English,B,592,1,16,4,180.0,1.0,1.0,1831.73,1.0,591.0,18.0,1.12147,0.843295
Asian,20,Left,19,Female,No,English,B,593,1,4,4,0.0,0.0,1.0,1136.27,1.0,592.0,18.0,1.15966,0.973665
Asian,20,Left,19,Female,No,English,B,594,0,4,8,180.0,1.0,1.0,747.29,1.0,593.0,18.0,1.05565,0.992751
Asian,20,Left,19,Female,No,English,B,595,1,4,8,180.0,1.0,1.0,1822.34,1.0,594.0,18.0,1.09068,0.994603
Asian,20,Left,19,Female,No,English,B,596,1,16,8,180.0,1.0,1.0,986.714,1.0,595.0,18.0,1.10487,0.981006
Asian,20,Left,19,Female,No,English,B,597,0,16,16,0.0,0.0,1.0,1687.99,1.0,596.0,18.0,1.11701,0.93673
Asian,20,Left,19,Female,No,English,B,598,1,0,4,180.0,1.0,1.0,725.278,1.0,597.0,18.0,1.05722,0.95652
Asian,20,Left,19,Female,No,English,B,599,0,16,0,180.0,1.0,1.0,978.47,1.0,598.0,18.0,1.03114,0.96429
Asian,20,Left,19,Female,No,English,B,600,0,16,4,0.0,0.0,1.0,1482.92,1.0,599.0,18.0,1.0368,0.98674
Asian,20,Left,19,Female,No,English,B,601,0,4,16,0.0,0.0,1.0,1055.05,1.0,600.0,18.0,1.05911,0.80446
Asian,20,Left,19,Female,No,English,B,602,1,4,0,180.0,1.0,1.0,886.796,1.0,601.0,18.0,1.08631,0.965318
Asian,20,Left,19,Female,No,English,B,603,0,4,0,180.0,1.0,1.0,1188.12,1.0,602.0,18.0,1.09054,0.941475
Asian,20,Left,19,Female,No,English,B,604,1,0,16,180.0,1.0,1.0,1137.57,1.0,603.0,18.0,1.1738,0.924279
Asian,20,Left,19,Female,No,English,B,605,1,0,8,0.0,0.0,1.0,776.75,1.0,604.0,18.0,1.10208,0.845829
Asian,20,Left,19,Female,No,English,B,606,0,4,4,180.0,1.0,1.0,1126.47,1.0,605.0,18.0,1.12196,0.995738
Asian,20,Left,19,Female,No,English,B,607,0,8,8,0.0,0.0,1.0,881.099,1.0,606.0,18.0,1.1574,0.86699
Asian,20,Left,19,Female,No,English,B,608,0,0,4,0.0,0.0,1.0,951.074,1.0,607.0,18.0,1.0884,0.896971
Asian,20,Left,19,Female,No,English,B,609,1,4,4,180.0,1.0,1.0,1306.7,1.0,608.0,19.0,1.1994,0.886241
Asian,20,Left,19,Female,No,English,B,610,1,4,0,0.0,0.0,1.0,743.782,1.0,609.0,19.0,1.03728,0.839209
Asian,20,Left,19,Female,No,English,B,611,0,16,0,0.0,0.0,1.0,1130.82,1.0,610.0,19.0,1.1589,0.999682
Asian,20,Left,19,Female,No,English,B,612,0,8,8,180.0,1.0,1.0,766.247,1.0,611.0,19.0,1.05336,0.812644
Asian,20,Left,19,Female,No,English,B,613,0,4,8,0.0,0.0,1.0,1269.77,1.0,612.0,19.0,1.03167,0.994657
Asian,20,Left,19,Female,No,English,B,614,1,16,8,180.0,1.0,1.0,1154.74,1.0,613.0,19.0,1.11257,0.920393
Asian,20,Left,19,Female,No,English,B,615,1,16,4,180.0,1.0,1.0,791.841,1.0,614.0,19.0,1.04666,0.868446
Asian,20,Left,19,Female,No,English,B,616,0,16,4,0.0,0.0,1.0,1499.71,1.0,615.0,19.0,1.1247,0.920415
Asian,20,Left,19,Female,No,English,B,617,1,8,16,180.0,1.0,1.0,686.098,1.0,616.0,19.0,1.08502,0.871776
Asian,20,Left,19,Female,No,English,B,618,1,8,4,180.0,1.0,1.0,680.96,1.0,617.0,19.0,1.08167,0.813074
Asian,20,Left,19,Female,No,English,B,619,0,0,0,180.0,1.0,1.0,690.137,1.0,618.0,19.0,1.06769,0.881235
Asian,20,Left,19,Female,No,English,B,620,0,4,16,0.0,0.0,1.0,974.598,1.0,619.0,19.0,1.06326,0.941552
Asian,20,Left,19,Female,No,English,B,621,0,4,0,0.0,0.0,1.0,890.412,1.0,620.0,19.0,1.13045,0.94604
Asian,20,Left,19,Female,No,English,B,622,1,0,4,180.0,1.0,1.0,1150.71,1.0,621.0,19.0,1.16699,0.991942
Asian,20,Left,19,Female,No,English,B,623,1,4,8,180.0,1.0,1.0,1189.73,1.0,622.0,19.0,1.01718,0.814398
Asian,20,Left,19,Female,No,English,B,624,1,0,8,180.0,1.0,1.0,835.239,1.0,623.0,19.0,1.01615,0.903638
Asian,20,Left,19,Female,No,English,B,625,0,4,4,0.0,0.0,1.0,777.603,1.0,624.0,19.0,1.02727,0.953271
Asian,20,Left,19,Female,No,English,B,626,1,16,0,0.0,0.0,1.0,1229.99,1.0,625.0,19.0,1.1415,0.844901
Asian,20,Left,19,Female,No,English,B,627,0,0,4,0.0,0.0,1.0,866.66,1.0,626.0,19.0,1.08573,0.856205
Asian,20,Left,19,Female,No,English,B,628,1,8,8,0.0,0.0,1.0,805.974,1.0,627.0,19.0,1.12675,0.883856
Asian,20,Left,19,Female,No,English,B,629,0,8,16,0.0,0.0,1.0,740.357,1.0,628.0,19.0,1.15462,0.811353
Asian,20,Left,19,Female,No,English,B,630,1,16,16,0.0,0.0,1.0,955.278,1.0,629.0,19.0,1.00653,0.966538
Asian,20,Left,19,Female,No,English,B,631,0,16,8,0.0,0.0,1.0,819.607,1.0,630.0,19.0,1.12984,0.919409
Asian,20,Left,19,Female,No,English,B,632,1,8,0,180.0,1.0,1.0,841.952,1.0,631.0,19.0,1.07922,0.914283
Asian,20,Left,19,Female,No,English,B,633,0,0,8,180.0,1.0,1.0,889.684,1.0,632.0,19.0,1.02784,0.807701
Asian,20,Left,19,Female,No,English,B,634,1,0,0,0.0,0.0,1.0,748.488,1.0,633.0,19.0,1.18225,0.914127
Asian,20,Left,19,Female,No,English,B,635,1,0,16,180.0,1.0,1.0,1102.16,1.0,634.0,19.0,1.02306,0.891072
Asian,20,Left,19,Female,No,English,B,636,0,16,16,0.0,0.0,1.0,892.84,1.0,635.0,19.0,1.01961,0.923665
Asian,20,Left,19,Female,No,English,B,637,0,8,0,180.0,1.0,1.0,823.36,1.0,636.0,19.0,1.15958,0.802216
Asian,20,Left,19,Female,No,English,B,638,0,8,4,0.0,0.0,1.0,786.556,1.0,637.0,19.0,1.14111,0.871123
Asian,20,Left,19,Female,No,English,B,639,0,0,16,180.0,1.0,1.0,613.649,1.0,638.0,19.0,1.14784,0.989187
Asian,20,Left,19,Female,No,English,B,640,1,4,16,180.0,1.0,1.0,681.133,1.0,639.0,19.0,1.05261,0.880495
Asian,20,Left,19,Female,No,English,B,641,1,8,8,0.0,0.0,1.0,908.833,1.0,640.0,20.0,1.07972,0.923721
Asian,20,Left,19,Female,No,English,B,642,1,8,16,0.0,0.0,1.0,669.279,1.0,641.0,20.0,1.18914,0.908247
Asian,20,Left,19,Female,No,English,B,643,0,0,4,0.0,0.0,1.0,931.952,1.0,642.0,20.0,1.09909,0.961407
Asian,20,Left,19,Female,No,English,B,644,1,8,0,0.0,0.0,1.0,1306.02,1.0,643.0,20.0,1.18625,0.805661
Asian,20,Left,19,Female,No,English,B,645,0,16,16,0.0,0.0,1.0,645.75,1.0,644.0,20.0,1.15787,0.914128
Asian,20,Left,19,Female,No,English,B,646,0,4,4,180.0,1.0,1.0,711.966,1.0,645.0,20.0,1.1769,0.89088
Asian,20,Left,19,Female,No,English,B,647,1,0,0,0.0,0.0,1.0,648.068,1.0,646.0,20.0,1.03048,0.863899
Asian,20,Left,19,Female,No,English,B,648,0,0,8,0.0,0.0,1.0,853.881,1.0,647.0,20.0,1.01255,0.946183
Asian,20,Left,19,Female,No,English,B,649,0,4,16,0.0,0.0,1.0,677.661,1.0,648.0,20.0,1.14279,0.948323
Asian,20,Left,19,Female,No,English,B,650,0,16,8,180.0,1.0,1.0,737.997,1.0,649.0,20.0,1.04915,0.867969
Asian,20,Left,19,Female,No,English,B,651,0,0,0,180.0,1.0,1.0,740.204,1.0,650.0,20.0,1.18717,0.965695
Asian,20,Left,19,Female,No,English,B,652,0,4,0,0.0,0.0,1.0,704.464,1.0,651.0,20.0,1.19443,0.873093
Asian,20,Left,19,Female,No,English,B,653,1,16,16,180.0,1.0,1.0,1535.98,1.0,652.0,20.0,1.00765,0.886273
Asian,20,Left,19,Female,No,English,B,654,1,16,8,180.0,1.0,1.0,1020.1,1.0,653.0,20.0,1.15415,0.98867
Asian,20,Left,19,Female,No,English,B,655,1,16,4,180.0,1.0,1.0,982.393,1.0,654.0,20.0,1.11984,0.811486
Asian,20,Left,19,Female,No,English,B,656,1,0,16,180.0,1.0,1.0,723.029,1.0,655.0,20.0,1.09239,0.805457
Asian,20,Left,19,Female,No,English,B,657,0,0,16,0.0,0.0,1.0,784.726,1.0,656.0,20.0,1.01774,0.899279
Asian,20,Left,19,Female,No,English,B,658,0,4,8,0.0,0.0,1.0,1309.86,1.0,657.0,20.0,1.18049,0.943746
Asian,20,Left,19,Female,No,English,B,659,0,8,4,180.0,1.0,1.0,708.787,1.0,658.0,20.0,1.14124,0.990948
Asian,20,Left,19,Female,No,English,B,660,1,4,0,0.0,0.0,1.0,943.86,1.0,659.0,20.0,1.12128,0.947011
Asian,20,Left,19,Female,No,English,B,661,1,4,16,0.0,0.0,1.0,688.139,1.0,660.0,20.0,1.12583,0.917583
Asian,20,Left,19,Female,No,English,B,662,0,8,8,180.0,1.0,1.0,1179.76,1.0,661.0,20.0,1.03363,0.896541
Asian,20,Left,19,Female,No,English,B,663,0,16,4,180.0,1.0,1.0,803.33,1.0,662.0,20.0,1.03674,0.949781
Asian,20,Left,19,Female,No,English,B,664,0,16,0,180.0,1.0,1.0,1031.58,1.0,663.0,20.0,1.0681,0.995658
Asian,20,Left,19,Female,No,English,B,665,1,4,4,180.0,1.0,1.0,914.235,1.0,664.0,20.0,1.15924,0.834461
Asian,20,Left,19,Female,No,English,B,666,1,0,4,180.0,1.0,1.0,659.91,1.0,665.0,20.0,1.0586,0.858935
Asian,20,Left,19,Female,No,English,B,667,0,8,16,0.0,0.0,1.0,888.704,1.0,666.0,20.0,1.01888,0.882701
Asian,20,Left,19,Female,No,English,B,668,1,4,8,180.0,1.0,1.0,804.815,1.0,667.0,20.0,1.01482,0.845595
Asian,20,Left,19,Female,No,English,B,669,1,0,8,180.0,1.0,1.0,947.839,1.0,668.0,20.0,1.17311,0.822466
Asian,20,Left,19,Female,No,English,B,670,0,8,0,180.0,1.0,1.0,831.118,1.0,669.0,20.0,1.08528,0.892291
Asian,20,Left,19,Female,No,English,B,671,1,8,4,0.0,0.0,1.0,841.437,1.0,670.0,20.0,1.01569,0.840004
Asian,20,Left,19,Female,No,English,B,672,1,16,0,0.0,0.0,1.0,752.291,1.0,671.0,20.0,1.16415,0.915374
Asian,20,Left,19,Female,No,English,B,673,1,8,8,0.0,0.0,1.0,1296.19,1.0,672.0,21.0,1.1084,0.922497
Asian,20,Left,19,Female,No,English,B,674,1,4,0,180.0,1.0,1.0,870.253,1.0,673.0,21.0,1.18497,0.941302
Asian,20,Left,19,Female,No,English,B,675,1,0,0,0.0,0.0,1.0,655.72,1.0,674.0,21.0,1.03621,0.859376
Asian,20,Left,19,Female,No,English,B,676,1,8,4,0.0,0.0,1.0,1082.69,1.0,675.0,21.0,1.06396,0.800457
Asian,20,Left,19,Female,No,English,B,677,0,4,0,180.0,1.0,1.0,909.935,1.0,676.0,21.0,1.17915,0.859925
Asian,20,Left,19,Female,No,English,B,678,0,0,8,0.0,0.0,1.0,657.53,1.0,677.0,21.0,1.018,0.932709
Asian,20,Left,19,Female,No,English,B,679,1,0,4,0.0,0.0,1.0,989.475,1.0,678.0,21.0,1.1516,0.968916
Asian,20,Left,19,Female,No,English,B,680,1,16,16,0.0,0.0,1.0,1280.9,1.0,679.0,21.0,1.11863,0.903536
Asian,20,Left,19,Female,No,English,B,681,0,8,4,0.0,0.0,1.0,567.973,1.0,680.0,21.0,1.16426,0.980987
Asian,20,Left,19,Female,No,English,B,682,0,0,16,0.0,0.0,1.0,550.399,1.0,681.0,21.0,1.14447,0.953002
Asian,20,Left,19,Female,No,English,B,683,1,16,4,180.0,1.0,1.0,1172.45,1.0,682.0,21.0,1.16511,0.924677
Asian,20,Left,19,Female,No,English,B,684,0,0,0,180.0,1.0,1.0,980.989,1.0,683.0,21.0,1.0214,0.842658
Asian,20,Left,19,Female,No,English,B,685,1,4,16,180.0,1.0,1.0,1115.66,1.0,684.0,21.0,1.08639,0.906717
Asian,20,Left,19,Female,No,English,B,686,0,16,16,180.0,1.0,1.0,1078.11,1.0,685.0,21.0,1.04,0.939635
Asian,20,Left,19,Female,No,English,B,687,0,0,4,180.0,1.0,1.0,887.324,1.0,686.0,21.0,1.12983,0.837336
Asian,20,Left,19,Female,No,English,B,688,0,8,16,180.0,1.0,1.0,1211.38,1.0,687.0,21.0,1.05246,0.806038
Asian,20,Left,19,Female,No,English,B,689,0,4,4,180.0,1.0,1.0,709.891,1.0,688.0,21.0,1.19175,0.95034
Asian,20,Left,19,Female,No,English,B,690,1,8,16,0.0,0.0,1.0,869.056,1.0,689.0,21.0,1.00891,0.976329
Asian,20,Left,19,Female,No,English,B,691,0,8,0,0.0,0.0,1.0,983.247,1.0,690.0,21.0,1.096,0.973242
Asian,20,Left,19,Female,No,English,B,692,1,4,4,180.0,1.0,1.0,1237.32,1.0,691.0,21.0,1.17533,0.814916
Asian,20,Left,19,Female,No,English,B,693,1,4,8,0.0,0.0,1.0,1168.13,1.0,692.0,21.0,1.17097,0.908262
Asian,20,Left,19,Female,No,English,B,694,0,16,0,180.0,1.0,1.0,974.787,1.0,693.0,21.0,1.11941,0.9253
Asian,20,Left,19,Female,No,English,B,695,1,8,0,0.0,0.0,1.0,1122.64,1.0,694.0,21.0,1.11999,0.879128
Asian,20,Left,19,Female,No,English,B,696,0,16,4,0.0,0.0,1.0,676.002,1.0,695.0,21.0,1.15753,0.946201
Asian,20,Left,19,Female,No,English,B,697,1,16,0,180.0,1.0,1.0,838.591,1.0,696.0,21.0,1.16016,0.832926
Asian,20,Left,19,Female,No,English,B,698,1,0,16,0.0,0.0,1.0,1055.32,1.0,697.0,21.0,1.00935,0.915936
Asian,20,Left,19,Female,No,English,B,699,0,8,8,0.0,0.0,1.0,912.973,1.0,698.0,21.0,1.05264,0.800551
Asian,20,Left,19,Female,No,English,B,700,1,0,8,180.0,1.0,1.0,847.659,1.0,699.0,21.0,1.19158,0.964945
Asian,20,Left,19,Female,No,English,B,701,0,4,16,180.0,1.0,1.0,1073.61,1.0,700.0,21.0,1.01322,0.890055
Asian,20,Left,19,Female,No,English,B,702,0,4,8,180.0,1.0,1.0,760.259,1.0,701.0,21.0,1.15708,0.927703
Asian,20,Left,19,Female,No,English,B,703,0,16,8,0.0,0.0,1.0,863.379,1.0,702.0,21.0,1.13484,0.811501
Asian,20,Left,19,Female,No,English,B,704,1,16,8,180.0,1.0,1.0,990.25,1.0,703.0,21.0,1.16166,0.967611
Asian,20,Left,19,Female,No,English,B,705,1,0,16,180.0,1.0,1.0,700.168,1.0,704.0,22.0,1.13234,0.922354
Asian,20,Left,19,Female,No,English,B,706,0,4,8,0.0,0.0,1.0,1270.36,1.0,705.0,22.0,1.06052,0.862211
Asian,20,Left,19,Female,No,English,B,707,1,4,0,180.0,1.0,1.0,1097.93,1.0,706.0,22.0,1.02202,0.840371
Asian,20,Left,19,Female,No,English,B,708,1,16,8,0.0,0.0,1.0,1837.84,1.0,707.0,22.0,1.1758,0.803066
Asian,20,Left,19,Female,No,English,B,709,1,16,4,0.0,0.0,1.0,669.419,1.0,708.0,22.0,1.01968,0.893654
Asian,20,Left,19,Female,No,English,B,710,0,0,16,180.0,1.0,1.0,940.342,1.0,709.0,22.0,1.03761,0.845723
Asian,20,Left,19,Female,No,English,B,711,0,16,8,180.0,1.0,1.0,574.696,1.0,710.0,22.0,1.00423,0.859903
Asian,20,Left,19,Female,No,English,B,712,1,16,0,180.0,1.0,1.0,1108.51,1.0,711.0,22.0,1.01137,0.872312
Asian,20,Left,19,Female,No,English,B,713,1,4,16,0.0,0.0,1.0,1229.49,1.0,712.0,22.0,1.01966,0.947595
Asian,20,Left,19,Female,No,English,B,714,0,8,0,0.0,0.0,1.0,1178.69,1.0,713.0,22.0,1.15355,0.96315
Asian,20,Left,19,Female,No,English,B,715,0,4,0,180.0,1.0,1.0,751.791,1.0,714.0,22.0,1.11997,0.855759
Asian,20,Left,19,Female,No,English,B,716,0,8,16,0.0,0.0,1.0,1622.27,1.0,715.0,22.0,1.06401,0.811141
Asian,20,Left,19,Female,No,English,B,717,1,0,8,180.0,1.0,1.0,711.077,1.0,716.0,22.0,1.00172,0.895838
Asian,20,Left,19,Female,No,English,B,718,1,0,4,180.0,1.0,1.0,970.235,1.0,717.0,22.0,1.14608,0.994245
Asian,20,Left,19,Female,No,English,B,719,1,8,8,0.0,0.0,1.0,977.662,1.0,718.0,22.0,1.04064,0.980325
Asian,20,Left,19,Female,No,English,B,720,0,8,4,0.0,0.0,1.0,1506.25,1.0,719.0,22.0,1.11595,0.900979
Asian,20,Left,19,Female,No,English,B,721,0,16,16,180.0,1.0,1.0,607.374,1.0,720.0,22.0,1.043,0.855685
Asian,20,Left,19,Female,No,English,B,722,1,4,8,0.0,0.0,1.0,850.534,1.0,721.0,22.0,1.14579,0.953283
Asian,20,Left,19,Female,No,English,B,723,1,8,0,180.0,1.0,1.0,621.278,1.0,722.0,22.0,1.0162,0.831808
Asian,20,Left,19,Female,No,English,B,724,0,0,0,0.0,0.0,1.0,838.395,1.0,723.0,22.0,1.1595,0.903887
Asian,20,Left,19,Female,No,English,B,725,1,8,4,180.0,1.0,1.0,1195.43,1.0,724.0,22.0,1.00002,0.841465
Asian,20,Left,19,Female,No,English,B,726,1,16,16,180.0,1.0,1.0,808.94,1.0,725.0,22.0,1.1395,0.906566
Asian,20,Left,19,Female,No,English,B,727,0,16,4,0.0,0.0,1.0,989.622,1.0,726.0,22.0,1.12216,0.995305
Asian,20,Left,19,Female,No,English,B,728,0,4,16,0.0,0.0,1.0,939.818,1.0,727.0,22.0,1.02837,0.966516
Asian,20,Left,19,Female,No,English,B,729,0,8,8,180.0,1.0,1.0,1017.53,1.0,728.0,22.0,1.13321,0.890189
Asian,20,Left,19,Female,No,English,B,730,1,4,4,180.0,1.0,1.0,528.664,1.0,729.0,22.0,1.09169,0.849922
Asian,20,Left,19,Female,No,English,B,731,0,0,4,0.0,0.0,1.0,653.202,1.0,730.0,22.0,1.08038,0.953335
Asian,20,Left,19,Female,No,English,B,732,1,8,16,0.0,0.0,1.0,797.178,1.0,731.0,22.0,1.03628,0.892622
Asian,20,Left,19,Female,No,English,B,733,0,4,4,180.0,1.0,1.0,753.983,1.0,732.0,22.0,1.19663,0.901569
Asian,20,Left,19,Female,No,English,B,734,0,16,0,0.0,0.0,1.0,777.378,1.0,733.0,22.0,1.06898,0.842088
Asian,20,Left,19,Female,No,English,B,735,1,0,0,0.0,0.0,1.0,633.35,1.0,734.0,22.0,1.05907,0.952936
Asian,20,Left,19,Female,No,English,B,736,0,0,8,180.0,1.0,1.0,802.234,1.0,735.0,22.0,1.15822,0.980547
Asian,20,Left,19,Female,No,English,B,737,1,4,16,0.0,0.0,1.0,1174.68,1.0,736.0,23.0,1.16628,0.839655
Asian,20,Left,19,Female,No,English,B,738,0,8,16,180.0,1.0,1.0,1116.37,1.0,737.0,23.0,1.18418,0.86501
Asian,20,Left,19,Female,No,English,B,739,1,0,0,180.0,1.0,1.0,726.727,1.0,738.0,23.0,1.17369,0.908215
Asian,20,Left,19,Female,No,English,B,740,1,8,8,0.0,0.0,1.0,871.1,1.0,739.0,23.0,1.14855,0.83917
Asian,20,Left,19,Female,No,English,B,741,1,0,4,180.0,1.0,1.0,990.747,1.0,740.0,23.0,1.02308,0.90145
Asian,20,Left,19,Female,No,English,B,742,0,16,16,0.0,0.0,1.0,789.935,1.0,741.0,23.0,1.03864,0.81301
Asian,20,Left,19,Female,No,English,B,743,1,8,16,0.0,0.0,1.0,881.103,1.0,742.0,23.0,1.19994,0.897013
Asian,20,Left,19,Female,No,English,B,744,1,16,0,0.0,0.0,1.0,1035.69,1.0,743.0,23.0,1.10866,0.927804
Asian,20,Left,19,Female,No,English,B,745,0,8,8,180.0,1.0,1.0,717.784,1.0,744.0,23.0,1.07647,0.978809
Asian,20,Left,19,Female,No,English,B,746,1,16,16,0.0,0.0,1.0,825.385,1.0,745.0,23.0,1.00042,0.84286
Asian,20,Left,19,Female,No,English,B,747,0,0,16,0.0,0.0,1.0,710.524,1.0,746.0,23.0,1.18951,0.947655
Asian,20,Left,19,Female,No,English,B,748,0,4,4,180.0,1.0,1.0,1009.83,1.0,747.0,23.0,1.18118,0.956044
Asian,20,Left,19,Female,No,English,B,749,1,4,4,0.0,0.0,1.0,714.584,1.0,748.0,23.0,1.0038,0.931416
Asian,20,Left,19,Female,No,English,B,750,0,0,0,180.0,1.0,1.0,897.928,1.0,749.0,23.0,1.11642,0.913469
Asian,20,Left,19,Female,No,English,B,751,1,4,8,180.0,1.0,1.0,1001.83,1.0,750.0,23.0,1.05803,0.956553
Asian,20,Left,19,Female,No,English,B,752,0,0,4,0.0,0.0,1.0,907.657,1.0,751.0,23.0,1.19414,0.868349
Asian,20,Left,19,Female,No,English,B,753,1,4,0,0.0,0.0,1.0,747.235,1.0,752.0,23.0,1.15765,0.868921
Asian,20,Left,19,Female,No,English,B,754,1,8,4,180.0,1.0,1.0,653.04,1.0,753.0,23.0,1.09249,0.96796
Asian,20,Left,19,Female,No,English,B,755,0,4,16,180.0,1.0,1.0,1199.46,1.0,754.0,23.0,1.11929,0.910414
Asian,20,Left,19,Female,No,English,B,756,0,16,4,0.0,0.0,1.0,935.12,1.0,755.0,23.0,1.07948,0.927467
Asian,20,Left,19,Female,No,English,B,757,1,16,4,0.0,0.0,1.0,1195.65,1.0,756.0,23.0,1.00823,0.992765
Asian,20,Left,19,Female,No,English,B,758,0,8,0,0.0,0.0,1.0,1349.99,1.0,757.0,23.0,1.12803,0.958479
Asian,20,Left,19,Female,No,English,B,759,0,4,8,180.0,1.0,1.0,1374.41,1.0,758.0,23.0,1.15814,0.876569
Asian,20,Left,19,Female,No,English,B,760,1,0,8,180.0,1.0,1.0,678.703,1.0,759.0,23.0,1.18338,0.868453
Asian,20,Left,19,Female,No,English,B,761,1,0,16,180.0,1.0,1.0,580.63,1.0,760.0,23.0,1.18929,0.870864
Asian,20,Left,19,Female,No,English,B,762,0,0,8,0.0,0.0,1.0,724.753,1.0,761.0,23.0,1.17719,0.922417
Asian,20,Left,19,Female,No,English,B,763,0,4,0,0.0,0.0,1.0,1168.3,1.0,762.0,23.0,1.10843,0.875944
Asian,20,Left,19,Female,No,English,B,764,1,8,0,180.0,0.0,0.0,600.958,1.0,763.0,23.0,1.13065,0.842855
Asian,20,Left,19,Female,No,English,B,765,1,16,8,0.0,0.0,1.0,1385.61,1.0,764.0,23.0,1.11768,0.967521
Asian,20,Left,19,Female,No,English,B,766,0,16,8,180.0,1.0,1.0,1139.51,1.0,765.0,23.0,1.18349,0.949477
Asian,20,Left,19,Female,No,English,B,767,0,8,4,180.0,1.0,1.0,834.901,1.0,766.0,23.0,1.011,0.831073
Asian,20,Left,19,Female,No,English,B,768,0,16,0,180.0,1.0,1.0,919.008,1.0,767.0,23.0,1.00702,0.92748
