Ethnicity,Subject Number,Preferred Hand,Age,Gender,Color blind,First Language,Room,TrialNumber,background,turtles,tortoises,target_id,resp,hit,rt,ran,order,block,iti,fix_duration
Asian,5,Right,18,Female,Yes,English,B,1,1,0,4,180.0,1.0,1.0,1221.22,1.0,0.0,0.0,1.03398,0.870652
Asian,5,Right,18,Female,Yes,English,B,2,0,8,0,0.0,0.0,1.0,1055.17,1.0,1.0,0.0,1.11289,0.88459
Asian,5,Right,18,Female,Yes,English,B,3,1,16,16,0.0,1.0,0.0,1297.62,1.0,2.0,0.0,1.10888,0.884169
Asian,5,Right,18,Female,Yes,English,B,4,1,16,8,0.0,0.0,1.0,722.026,1.0,3.0,0.0,1.17382,0.890868
Asian,5,Right,18,Female,Yes,English,B,5,1,4,8,0.0,0.0,1.0,567.272,1.0,4.0,0.0,1.01796,0.860492
Asian,5,Right,18,Female,Yes,English,B,6,1,0,8,180.0,1.0,1.0,710.755,1.0,5.0,0.0,1.00871,0.983329
Asian,5,Right,18,Female,Yes,English,B,7,1,8,8,0.0,0.0,1.0,788.75,1.0,6.0,0.0,1.15962,0.822117
Asian,5,Right,18,Female,Yes,English,B,8,1,8,0,0.0,0.0,1.0,700.657,1.0,7.0,0.0,1.04592,0.919087
Asian,5,Right,18,Female,Yes,English,B,9,1,0,0,0.0,0.0,1.0,541.446,1.0,8.0,0.0,1.17492,0.870616
Asian,5,Right,18,Female,Yes,English,B,10,0,16,4,180.0,1.0,1.0,773.596,1.0,9.0,0.0,1.02726,0.819208
Asian,5,Right,18,Female,Yes,English,B,11,0,8,16,0.0,0.0,1.0,745.047,1.0,10.0,0.0,1.15636,0.841235
Asian,5,Right,18,Female,Yes,English,B,12,0,16,0,180.0,1.0,1.0,771.987,1.0,11.0,0.0,1.11763,0.982986
Asian,5,Right,18,Female,Yes,English,B,13,0,4,16,0.0,0.0,1.0,727.055,1.0,12.0,0.0,1.17824,0.9261
Asian,5,Right,18,Female,Yes,English,B,14,0,8,8,0.0,0.0,1.0,856.04,1.0,13.0,0.0,1.0822,0.921557
Asian,5,Right,18,Female,Yes,English,B,15,1,4,16,0.0,0.0,1.0,1320.91,1.0,14.0,0.0,1.00532,0.962408
Asian,5,Right,18,Female,Yes,English,B,16,0,4,4,180.0,0.0,0.0,817.375,1.0,15.0,0.0,1.02426,0.938507
Asian,5,Right,18,Female,Yes,English,B,17,0,16,8,180.0,1.0,1.0,797.63,1.0,16.0,0.0,1.02041,0.99249
Asian,5,Right,18,Female,Yes,English,B,18,0,16,16,0.0,0.0,1.0,956.76,1.0,17.0,0.0,1.06271,0.855673
Asian,5,Right,18,Female,Yes,English,B,19,0,0,0,180.0,1.0,1.0,680.127,1.0,18.0,0.0,1.17919,0.940053
Asian,5,Right,18,Female,Yes,English,B,20,1,16,0,180.0,1.0,1.0,1194.76,1.0,19.0,0.0,1.03035,0.896573
Asian,5,Right,18,Female,Yes,English,B,21,0,4,8,180.0,1.0,1.0,775.835,1.0,20.0,0.0,1.14825,0.880175
Asian,5,Right,18,Female,Yes,English,B,22,1,0,16,0.0,0.0,1.0,877.667,1.0,21.0,0.0,1.10405,0.944076
Asian,5,Right,18,Female,Yes,English,B,23,0,8,4,0.0,0.0,1.0,795.848,1.0,22.0,0.0,1.10037,0.874227
Asian,5,Right,18,Female,Yes,English,B,24,1,16,4,180.0,1.0,1.0,773.402,1.0,23.0,0.0,1.06704,0.916304
Asian,5,Right,18,Female,Yes,English,B,25,0,0,16,180.0,1.0,1.0,736.901,1.0,24.0,0.0,1.15008,0.828199
Asian,5,Right,18,Female,Yes,English,B,26,0,0,4,180.0,1.0,1.0,799.141,1.0,25.0,0.0,1.00212,0.825296
Asian,5,Right,18,Female,Yes,English,B,27,1,8,4,0.0,0.0,1.0,1140.19,1.0,26.0,0.0,1.00536,0.986201
Asian,5,Right,18,Female,Yes,English,B,28,1,4,0,180.0,1.0,1.0,811.81,1.0,27.0,0.0,1.10248,0.97679
Asian,5,Right,18,Female,Yes,English,B,29,0,0,8,0.0,0.0,1.0,788.777,1.0,28.0,0.0,1.0428,0.926661
Asian,5,Right,18,Female,Yes,English,B,30,1,4,4,180.0,1.0,1.0,1250.29,1.0,29.0,0.0,1.11902,0.831279
Asian,5,Right,18,Female,Yes,English,B,31,0,4,0,180.0,1.0,1.0,762.728,1.0,30.0,0.0,1.01965,0.89097
Asian,5,Right,18,Female,Yes,English,B,32,1,8,16,180.0,1.0,1.0,1248.39,1.0,31.0,0.0,1.11773,0.869881
Asian,5,Right,18,Female,Yes,English,B,33,1,16,16,0.0,0.0,1.0,1516.49,1.0,32.0,1.0,1.12213,0.953115
Asian,5,Right,18,Female,Yes,English,B,34,0,4,16,0.0,0.0,1.0,942.279,1.0,33.0,1.0,1.03372,0.969039
Asian,5,Right,18,Female,Yes,English,B,35,0,0,8,0.0,0.0,1.0,645.702,1.0,34.0,1.0,1.05364,0.942959
Asian,5,Right,18,Female,Yes,English,B,36,0,4,8,180.0,1.0,1.0,1061.46,1.0,35.0,1.0,1.07107,0.9719
Asian,5,Right,18,Female,Yes,English,B,37,1,0,16,0.0,0.0,1.0,1010.74,1.0,36.0,1.0,1.15723,0.919347
Asian,5,Right,18,Female,Yes,English,B,38,0,0,0,0.0,0.0,1.0,642.196,1.0,37.0,1.0,1.06481,0.89898
Asian,5,Right,18,Female,Yes,English,B,39,1,4,8,180.0,1.0,1.0,742.089,1.0,38.0,1.0,1.03809,0.990407
Asian,5,Right,18,Female,Yes,English,B,40,0,4,4,180.0,1.0,1.0,822.843,1.0,39.0,1.0,1.06808,0.8906
Asian,5,Right,18,Female,Yes,English,B,41,1,4,0,0.0,0.0,1.0,796.652,1.0,40.0,1.0,1.10548,0.897708
Asian,5,Right,18,Female,Yes,English,B,42,1,8,16,0.0,0.0,1.0,708.602,1.0,41.0,1.0,1.00377,0.969005
Asian,5,Right,18,Female,Yes,English,B,43,0,0,4,0.0,0.0,1.0,617.196,1.0,42.0,1.0,1.13362,0.908865
Asian,5,Right,18,Female,Yes,English,B,44,0,16,16,180.0,1.0,1.0,1423.52,1.0,43.0,1.0,1.03624,0.942892
Asian,5,Right,18,Female,Yes,English,B,45,0,16,4,0.0,0.0,1.0,1435.8,1.0,44.0,1.0,1.09953,0.970056
Asian,5,Right,18,Female,Yes,English,B,46,0,16,0,0.0,0.0,1.0,607.036,1.0,45.0,1.0,1.06375,0.865341
Asian,5,Right,18,Female,Yes,English,B,47,0,4,0,180.0,1.0,1.0,1350.99,1.0,46.0,1.0,1.16085,0.82508
Asian,5,Right,18,Female,Yes,English,B,48,1,8,4,0.0,0.0,1.0,696.476,1.0,47.0,1.0,1.15269,0.951978
Asian,5,Right,18,Female,Yes,English,B,49,1,16,0,180.0,1.0,1.0,955.69,1.0,48.0,1.0,1.07991,0.996771
Asian,5,Right,18,Female,Yes,English,B,50,1,8,0,180.0,1.0,1.0,774.086,1.0,49.0,1.0,1.18417,0.928281
Asian,5,Right,18,Female,Yes,English,B,51,0,8,0,180.0,1.0,1.0,965.836,1.0,50.0,1.0,1.12133,0.922374
Asian,5,Right,18,Female,Yes,English,B,52,0,8,4,0.0,0.0,1.0,1079.34,1.0,51.0,1.0,1.00063,0.880289
Asian,5,Right,18,Female,Yes,English,B,53,1,0,0,180.0,1.0,1.0,663.075,1.0,52.0,1.0,1.1482,0.849347
Asian,5,Right,18,Female,Yes,English,B,54,1,0,4,0.0,0.0,1.0,830.768,1.0,53.0,1.0,1.12078,0.869097
Asian,5,Right,18,Female,Yes,English,B,55,0,0,16,180.0,1.0,1.0,766.409,1.0,54.0,1.0,1.18738,0.967507
Asian,5,Right,18,Female,Yes,English,B,56,1,4,4,0.0,0.0,1.0,1366.0,1.0,55.0,1.0,1.03547,0.807638
Asian,5,Right,18,Female,Yes,English,B,57,1,8,8,180.0,1.0,1.0,1457.5,1.0,56.0,1.0,1.11212,0.859271
Asian,5,Right,18,Female,Yes,English,B,58,1,0,8,180.0,1.0,1.0,687.752,1.0,57.0,1.0,1.02647,0.88642
Asian,5,Right,18,Female,Yes,English,B,59,1,16,4,180.0,1.0,1.0,571.87,1.0,58.0,1.0,1.02497,0.885672
Asian,5,Right,18,Female,Yes,English,B,60,1,16,8,180.0,1.0,1.0,801.194,1.0,59.0,1.0,1.12465,0.871005
Asian,5,Right,18,Female,Yes,English,B,61,0,8,8,180.0,1.0,1.0,661.078,1.0,60.0,1.0,1.1553,0.809109
Asian,5,Right,18,Female,Yes,English,B,62,1,4,16,180.0,1.0,1.0,914.287,1.0,61.0,1.0,1.04598,0.814937
Asian,5,Right,18,Female,Yes,English,B,63,0,8,16,0.0,0.0,1.0,930.695,1.0,62.0,1.0,1.02818,0.945201
Asian,5,Right,18,Female,Yes,English,B,64,0,16,8,0.0,0.0,1.0,734.51,1.0,63.0,1.0,1.0884,0.847967
Asian,5,Right,18,Female,Yes,English,B,65,1,8,4,180.0,1.0,1.0,808.462,1.0,64.0,2.0,1.02673,0.86385
Asian,5,Right,18,Female,Yes,English,B,66,0,16,4,180.0,1.0,1.0,937.578,1.0,65.0,2.0,1.14063,0.899819
Asian,5,Right,18,Female,Yes,English,B,67,0,4,4,180.0,1.0,1.0,968.705,1.0,66.0,2.0,1.08773,0.879187
Asian,5,Right,18,Female,Yes,English,B,68,0,8,8,0.0,0.0,1.0,554.803,1.0,67.0,2.0,1.09062,0.989395
Asian,5,Right,18,Female,Yes,English,B,69,1,4,8,0.0,0.0,1.0,538.263,1.0,68.0,2.0,1.12008,0.825707
Asian,5,Right,18,Female,Yes,English,B,70,0,4,16,0.0,0.0,1.0,728.062,1.0,69.0,2.0,1.16126,0.859239
Asian,5,Right,18,Female,Yes,English,B,71,1,0,0,180.0,1.0,1.0,594.223,1.0,70.0,2.0,1.06675,0.862762
Asian,5,Right,18,Female,Yes,English,B,72,0,4,0,180.0,1.0,1.0,892.585,1.0,71.0,2.0,1.06244,0.948031
Asian,5,Right,18,Female,Yes,English,B,73,1,0,8,0.0,0.0,1.0,777.469,1.0,72.0,2.0,1.01787,0.976101
Asian,5,Right,18,Female,Yes,English,B,74,0,0,0,0.0,0.0,1.0,763.719,1.0,73.0,2.0,1.12627,0.812306
Asian,5,Right,18,Female,Yes,English,B,75,0,8,4,180.0,1.0,1.0,651.787,1.0,74.0,2.0,1.09706,0.855538
Asian,5,Right,18,Female,Yes,English,B,76,0,4,8,0.0,0.0,1.0,626.177,1.0,75.0,2.0,1.05953,0.84047
Asian,5,Right,18,Female,Yes,English,B,77,1,16,0,180.0,1.0,1.0,1076.52,1.0,76.0,2.0,1.03883,0.878316
Asian,5,Right,18,Female,Yes,English,B,78,1,0,4,0.0,0.0,1.0,804.901,1.0,77.0,2.0,1.12016,0.845165
Asian,5,Right,18,Female,Yes,English,B,79,1,4,16,180.0,1.0,1.0,731.908,1.0,78.0,2.0,1.06821,0.854974
Asian,5,Right,18,Female,Yes,English,B,80,1,16,8,180.0,1.0,1.0,754.779,1.0,79.0,2.0,1.03481,0.965689
Asian,5,Right,18,Female,Yes,English,B,81,1,4,4,180.0,1.0,1.0,1261.05,1.0,80.0,2.0,1.19252,0.90632
Asian,5,Right,18,Female,Yes,English,B,82,1,8,8,0.0,0.0,1.0,796.887,1.0,81.0,2.0,1.0142,0.828421
Asian,5,Right,18,Female,Yes,English,B,83,0,0,8,0.0,0.0,1.0,711.607,1.0,82.0,2.0,1.15413,0.867926
Asian,5,Right,18,Female,Yes,English,B,84,0,0,16,180.0,1.0,1.0,605.268,1.0,83.0,2.0,1.17365,0.902866
Asian,5,Right,18,Female,Yes,English,B,85,1,0,16,0.0,0.0,1.0,517.717,1.0,84.0,2.0,1.10293,0.892117
Asian,5,Right,18,Female,Yes,English,B,86,1,16,4,180.0,1.0,1.0,1088.29,1.0,85.0,2.0,1.16057,0.936375
Asian,5,Right,18,Female,Yes,English,B,87,0,8,16,180.0,1.0,1.0,1415.53,1.0,86.0,2.0,1.03257,0.992483
Asian,5,Right,18,Female,Yes,English,B,88,1,8,0,180.0,1.0,1.0,856.957,1.0,87.0,2.0,1.13843,0.919047
Asian,5,Right,18,Female,Yes,English,B,89,0,0,4,180.0,1.0,1.0,706.98,1.0,88.0,2.0,1.14412,0.953793
Asian,5,Right,18,Female,Yes,English,B,90,0,8,0,0.0,0.0,1.0,1023.3,1.0,89.0,2.0,1.05042,0.947496
Asian,5,Right,18,Female,Yes,English,B,91,1,8,16,180.0,1.0,1.0,1030.07,1.0,90.0,2.0,1.09321,0.935464
Asian,5,Right,18,Female,Yes,English,B,92,0,16,8,0.0,0.0,1.0,544.307,1.0,91.0,2.0,1.10567,0.911387
Asian,5,Right,18,Female,Yes,English,B,93,1,16,16,0.0,0.0,1.0,1276.38,1.0,92.0,2.0,1.18624,0.866986
Asian,5,Right,18,Female,Yes,English,B,94,0,16,0,0.0,0.0,1.0,1099.06,1.0,93.0,2.0,1.02455,0.865953
Asian,5,Right,18,Female,Yes,English,B,95,0,16,16,0.0,0.0,1.0,593.629,1.0,94.0,2.0,1.03759,0.824067
Asian,5,Right,18,Female,Yes,English,B,96,1,4,0,0.0,0.0,1.0,934.447,1.0,95.0,2.0,1.1726,0.997742
Asian,5,Right,18,Female,Yes,English,B,97,0,4,0,180.0,1.0,1.0,933.436,1.0,96.0,3.0,1.10896,0.835411
Asian,5,Right,18,Female,Yes,English,B,98,0,4,8,0.0,0.0,1.0,507.021,1.0,97.0,3.0,1.05208,0.928372
Asian,5,Right,18,Female,Yes,English,B,99,1,16,16,180.0,1.0,1.0,655.069,1.0,98.0,3.0,1.18226,0.864999
Asian,5,Right,18,Female,Yes,English,B,100,1,4,8,180.0,1.0,1.0,988.111,1.0,99.0,3.0,1.14266,0.866024
Asian,5,Right,18,Female,Yes,English,B,101,0,4,16,180.0,1.0,1.0,954.629,1.0,100.0,3.0,1.0741,0.914615
Asian,5,Right,18,Female,Yes,English,B,102,0,8,8,180.0,1.0,1.0,779.494,1.0,101.0,3.0,1.01171,0.800111
Asian,5,Right,18,Female,Yes,English,B,103,0,16,0,0.0,0.0,1.0,622.482,1.0,102.0,3.0,1.00223,0.84448
Asian,5,Right,18,Female,Yes,English,B,104,0,4,4,0.0,0.0,1.0,578.332,1.0,103.0,3.0,1.0823,0.800811
Asian,5,Right,18,Female,Yes,English,B,105,1,16,8,180.0,1.0,1.0,670.316,1.0,104.0,3.0,1.11506,0.906497
Asian,5,Right,18,Female,Yes,English,B,106,1,8,0,0.0,0.0,1.0,782.054,1.0,105.0,3.0,1.12179,0.89023
Asian,5,Right,18,Female,Yes,English,B,107,1,0,4,180.0,1.0,1.0,1282.21,1.0,106.0,3.0,1.12966,0.900656
Asian,5,Right,18,Female,Yes,English,B,108,1,16,0,180.0,1.0,1.0,1013.87,1.0,107.0,3.0,1.05876,0.962355
Asian,5,Right,18,Female,Yes,English,B,109,1,4,16,0.0,0.0,1.0,1066.68,1.0,108.0,3.0,1.13236,0.939371
Asian,5,Right,18,Female,Yes,English,B,110,1,4,4,180.0,1.0,1.0,748.377,1.0,109.0,3.0,1.16071,0.880691
Asian,5,Right,18,Female,Yes,English,B,111,1,0,16,0.0,0.0,1.0,517.078,1.0,110.0,3.0,1.15852,0.96917
Asian,5,Right,18,Female,Yes,English,B,112,0,0,0,180.0,1.0,1.0,612.51,1.0,111.0,3.0,1.14134,0.835938
Asian,5,Right,18,Female,Yes,English,B,113,0,0,8,180.0,1.0,1.0,841.511,1.0,112.0,3.0,1.03558,0.927506
Asian,5,Right,18,Female,Yes,English,B,114,1,16,4,0.0,0.0,1.0,1055.63,1.0,113.0,3.0,1.06689,0.848239
Asian,5,Right,18,Female,Yes,English,B,115,1,8,16,0.0,0.0,1.0,820.859,1.0,114.0,3.0,1.07934,0.923185
Asian,5,Right,18,Female,Yes,English,B,116,1,8,8,0.0,0.0,1.0,813.887,1.0,115.0,3.0,1.12168,0.941601
Asian,5,Right,18,Female,Yes,English,B,117,0,8,16,0.0,0.0,1.0,1395.73,1.0,116.0,3.0,1.10164,0.981743
Asian,5,Right,18,Female,Yes,English,B,118,1,0,8,0.0,0.0,1.0,833.603,1.0,117.0,3.0,1.19713,0.844671
Asian,5,Right,18,Female,Yes,English,B,119,0,16,16,180.0,1.0,1.0,684.727,1.0,118.0,3.0,1.19331,0.802625
Asian,5,Right,18,Female,Yes,English,B,120,0,16,8,0.0,0.0,1.0,911.612,1.0,119.0,3.0,1.1047,0.936954
Asian,5,Right,18,Female,Yes,English,B,121,0,0,16,180.0,1.0,1.0,1359.51,1.0,120.0,3.0,1.07535,0.924644
Asian,5,Right,18,Female,Yes,English,B,122,0,0,4,0.0,0.0,1.0,616.035,1.0,121.0,3.0,1.0044,0.991015
Asian,5,Right,18,Female,Yes,English,B,123,1,4,0,0.0,0.0,1.0,687.762,1.0,122.0,3.0,1.09739,0.855824
Asian,5,Right,18,Female,Yes,English,B,124,0,8,4,0.0,0.0,1.0,681.074,1.0,123.0,3.0,1.1649,0.86351
Asian,5,Right,18,Female,Yes,English,B,125,1,8,4,0.0,0.0,1.0,1202.09,1.0,124.0,3.0,1.03165,0.890833
Asian,5,Right,18,Female,Yes,English,B,126,0,16,4,180.0,1.0,1.0,1161.39,1.0,125.0,3.0,1.03105,0.811753
Asian,5,Right,18,Female,Yes,English,B,127,1,0,0,180.0,1.0,1.0,763.363,1.0,126.0,3.0,1.07825,0.856486
Asian,5,Right,18,Female,Yes,English,B,128,0,8,0,180.0,1.0,1.0,1368.09,1.0,127.0,3.0,1.00554,0.831353
Asian,5,Right,18,Female,Yes,English,B,129,0,0,0,0.0,0.0,1.0,640.857,1.0,128.0,4.0,1.12089,0.862679
Asian,5,Right,18,Female,Yes,English,B,130,1,0,8,0.0,0.0,1.0,765.002,1.0,129.0,4.0,1.06442,0.987188
Asian,5,Right,18,Female,Yes,English,B,131,0,8,0,0.0,0.0,1.0,758.581,1.0,130.0,4.0,1.19607,0.938865
Asian,5,Right,18,Female,Yes,English,B,132,0,4,4,180.0,1.0,1.0,1003.86,1.0,131.0,4.0,1.04806,0.861572
Asian,5,Right,18,Female,Yes,English,B,133,0,0,8,180.0,1.0,1.0,661.685,1.0,132.0,4.0,1.17122,0.980796
Asian,5,Right,18,Female,Yes,English,B,134,1,0,16,0.0,0.0,1.0,793.513,1.0,133.0,4.0,1.1326,0.897144
Asian,5,Right,18,Female,Yes,English,B,135,1,4,8,0.0,0.0,1.0,654.958,1.0,134.0,4.0,1.06408,0.983294
Asian,5,Right,18,Female,Yes,English,B,136,1,4,4,180.0,1.0,1.0,456.056,1.0,135.0,4.0,1.00977,0.83248
Asian,5,Right,18,Female,Yes,English,B,137,1,16,8,180.0,1.0,1.0,771.645,1.0,136.0,4.0,1.06552,0.938246
Asian,5,Right,18,Female,Yes,English,B,138,0,16,4,180.0,1.0,1.0,1475.84,1.0,137.0,4.0,1.07665,0.960417
Asian,5,Right,18,Female,Yes,English,B,139,0,0,16,180.0,1.0,1.0,669.039,1.0,138.0,4.0,1.15541,0.994006
Asian,5,Right,18,Female,Yes,English,B,140,1,16,16,180.0,1.0,1.0,751.448,1.0,139.0,4.0,1.18503,0.861671
Asian,5,Right,18,Female,Yes,English,B,141,1,8,8,180.0,1.0,1.0,989.061,1.0,140.0,4.0,1.19255,0.94131
Asian,5,Right,18,Female,Yes,English,B,142,1,4,16,180.0,1.0,1.0,620.371,1.0,141.0,4.0,1.02124,0.851412
Asian,5,Right,18,Female,Yes,English,B,143,1,0,4,0.0,0.0,1.0,654.532,1.0,142.0,4.0,1.18306,0.920721
Asian,5,Right,18,Female,Yes,English,B,144,0,16,8,180.0,1.0,1.0,1071.6,1.0,143.0,4.0,1.01893,0.950401
Asian,5,Right,18,Female,Yes,English,B,145,1,16,0,0.0,0.0,1.0,800.141,1.0,144.0,4.0,1.0673,0.826765
Asian,5,Right,18,Female,Yes,English,B,146,0,0,4,180.0,1.0,1.0,832.11,1.0,145.0,4.0,1.17099,0.820766
Asian,5,Right,18,Female,Yes,English,B,147,1,0,0,180.0,1.0,1.0,781.278,1.0,146.0,4.0,1.02851,0.804932
Asian,5,Right,18,Female,Yes,English,B,148,0,4,8,0.0,0.0,1.0,1200.59,1.0,147.0,4.0,1.06133,0.952438
Asian,5,Right,18,Female,Yes,English,B,149,1,8,16,0.0,0.0,1.0,637.364,1.0,148.0,4.0,1.18331,0.993889
Asian,5,Right,18,Female,Yes,English,B,150,1,8,4,0.0,0.0,1.0,1568.1,1.0,149.0,4.0,1.09949,0.810245
Asian,5,Right,18,Female,Yes,English,B,151,0,16,0,0.0,0.0,1.0,903.97,1.0,150.0,4.0,1.00919,0.862737
Asian,5,Right,18,Female,Yes,English,B,152,0,4,16,0.0,0.0,1.0,671.708,1.0,151.0,4.0,1.04378,0.856047
Asian,5,Right,18,Female,Yes,English,B,153,0,8,4,180.0,1.0,1.0,586.704,1.0,152.0,4.0,1.0651,0.817537
Asian,5,Right,18,Female,Yes,English,B,154,1,8,0,0.0,0.0,1.0,823.852,1.0,153.0,4.0,1.19272,0.94609
Asian,5,Right,18,Female,Yes,English,B,155,1,4,0,0.0,0.0,1.0,553.726,1.0,154.0,4.0,1.09314,0.82283
Asian,5,Right,18,Female,Yes,English,B,156,0,8,16,180.0,1.0,1.0,1736.07,1.0,155.0,4.0,1.15771,0.936305
Asian,5,Right,18,Female,Yes,English,B,157,0,4,0,0.0,0.0,1.0,862.989,1.0,156.0,4.0,1.00518,0.802225
Asian,5,Right,18,Female,Yes,English,B,158,1,16,4,180.0,1.0,1.0,1539.72,1.0,157.0,4.0,1.06866,0.990385
Asian,5,Right,18,Female,Yes,English,B,159,0,16,16,180.0,1.0,1.0,1490.63,1.0,158.0,4.0,1.05601,0.807266
Asian,5,Right,18,Female,Yes,English,B,160,0,8,8,0.0,0.0,1.0,617.157,1.0,159.0,4.0,1.03773,0.875448
Asian,5,Right,18,Female,Yes,English,B,161,1,8,16,0.0,0.0,1.0,586.066,1.0,160.0,5.0,1.02131,0.907849
Asian,5,Right,18,Female,Yes,English,B,162,1,4,0,0.0,0.0,1.0,1317.93,1.0,161.0,5.0,1.13225,0.972614
Asian,5,Right,18,Female,Yes,English,B,163,0,0,4,0.0,0.0,1.0,629.398,1.0,162.0,5.0,1.06101,0.970687
Asian,5,Right,18,Female,Yes,English,B,164,0,16,16,0.0,0.0,1.0,827.865,1.0,163.0,5.0,1.04657,0.949634
Asian,5,Right,18,Female,Yes,English,B,165,0,16,0,0.0,0.0,1.0,595.403,1.0,164.0,5.0,1.11687,0.836392
Asian,5,Right,18,Female,Yes,English,B,166,1,0,0,180.0,1.0,1.0,779.899,1.0,165.0,5.0,1.02761,0.918236
Asian,5,Right,18,Female,Yes,English,B,167,0,4,16,180.0,1.0,1.0,729.505,1.0,166.0,5.0,1.01604,0.90231
Asian,5,Right,18,Female,Yes,English,B,168,1,0,8,0.0,0.0,1.0,518.36,1.0,167.0,5.0,1.15444,0.834031
Asian,5,Right,18,Female,Yes,English,B,169,0,4,8,0.0,0.0,1.0,663.148,1.0,168.0,5.0,1.1843,0.901776
Asian,5,Right,18,Female,Yes,English,B,170,0,8,4,180.0,1.0,1.0,635.517,1.0,169.0,5.0,1.1687,0.95866
Asian,5,Right,18,Female,Yes,English,B,171,1,8,4,180.0,1.0,1.0,983.854,1.0,170.0,5.0,1.02204,0.945586
Asian,5,Right,18,Female,Yes,English,B,172,0,16,4,0.0,0.0,1.0,1289.61,1.0,171.0,5.0,1.09862,0.896213
Asian,5,Right,18,Female,Yes,English,B,173,1,0,4,180.0,1.0,1.0,1008.87,1.0,172.0,5.0,1.11663,0.974577
Asian,5,Right,18,Female,Yes,English,B,174,0,4,4,0.0,0.0,1.0,539.029,1.0,173.0,5.0,1.01213,0.971083
Asian,5,Right,18,Female,Yes,English,B,175,1,16,8,0.0,0.0,1.0,1292.36,1.0,174.0,5.0,1.08856,0.83619
Asian,5,Right,18,Female,Yes,English,B,176,1,16,4,0.0,0.0,1.0,1260.49,1.0,175.0,5.0,1.1978,0.844882
Asian,5,Right,18,Female,Yes,English,B,177,0,0,16,0.0,0.0,1.0,634.342,1.0,176.0,5.0,1.14652,0.967831
Asian,5,Right,18,Female,Yes,English,B,178,0,0,8,0.0,0.0,1.0,1193.05,1.0,177.0,5.0,1.05698,0.888338
Asian,5,Right,18,Female,Yes,English,B,179,0,0,0,0.0,0.0,1.0,724.609,1.0,178.0,5.0,1.12705,0.93707
Asian,5,Right,18,Female,Yes,English,B,180,1,0,16,180.0,1.0,1.0,952.08,1.0,179.0,5.0,1.08741,0.864623
Asian,5,Right,18,Female,Yes,English,B,181,0,4,0,180.0,1.0,1.0,777.402,1.0,180.0,5.0,1.17538,0.920269
Asian,5,Right,18,Female,Yes,English,B,182,1,16,0,0.0,0.0,1.0,496.277,1.0,181.0,5.0,1.02245,0.816733
Asian,5,Right,18,Female,Yes,English,B,183,0,8,16,180.0,1.0,1.0,656.81,1.0,182.0,5.0,1.00904,0.880125
Asian,5,Right,18,Female,Yes,English,B,184,1,4,4,180.0,1.0,1.0,567.636,1.0,183.0,5.0,1.0073,0.866306
Asian,5,Right,18,Female,Yes,English,B,185,1,4,16,180.0,1.0,1.0,795.414,1.0,184.0,5.0,1.03859,0.827983
Asian,5,Right,18,Female,Yes,English,B,186,1,8,0,180.0,1.0,1.0,720.232,1.0,185.0,5.0,1.12436,0.812896
Asian,5,Right,18,Female,Yes,English,B,187,1,8,8,180.0,1.0,1.0,733.682,1.0,186.0,5.0,1.11832,0.86637
Asian,5,Right,18,Female,Yes,English,B,188,0,16,8,180.0,1.0,1.0,1085.34,1.0,187.0,5.0,1.02939,0.851098
Asian,5,Right,18,Female,Yes,English,B,189,0,8,0,180.0,1.0,1.0,741.028,1.0,188.0,5.0,1.0812,0.810319
Asian,5,Right,18,Female,Yes,English,B,190,1,4,8,180.0,1.0,1.0,577.213,1.0,189.0,5.0,1.14761,0.864897
Asian,5,Right,18,Female,Yes,English,B,191,0,8,8,0.0,0.0,1.0,794.072,1.0,190.0,5.0,1.01576,0.803525
Asian,5,Right,18,Female,Yes,English,B,192,1,16,16,180.0,1.0,1.0,819.438,1.0,191.0,5.0,1.01572,0.881161
Asian,5,Right,18,Female,Yes,English,B,193,0,8,0,180.0,1.0,1.0,991.794,1.0,192.0,6.0,1.01839,0.865571
Asian,5,Right,18,Female,Yes,English,B,194,1,0,4,0.0,0.0,1.0,698.787,1.0,193.0,6.0,1.12205,0.925918
Asian,5,Right,18,Female,Yes,English,B,195,1,4,4,180.0,1.0,1.0,1044.37,1.0,194.0,6.0,1.07421,0.901302
Asian,5,Right,18,Female,Yes,English,B,196,1,4,16,180.0,1.0,1.0,741.397,1.0,195.0,6.0,1.02465,0.904777
Asian,5,Right,18,Female,Yes,English,B,197,1,0,16,180.0,1.0,1.0,704.66,1.0,196.0,6.0,1.12664,0.930351
Asian,5,Right,18,Female,Yes,English,B,198,0,0,16,0.0,0.0,1.0,710.507,1.0,197.0,6.0,1.1773,0.899293
Asian,5,Right,18,Female,Yes,English,B,199,1,0,8,180.0,1.0,1.0,542.479,1.0,198.0,6.0,1.16142,0.80318
Asian,5,Right,18,Female,Yes,English,B,200,0,16,8,0.0,0.0,1.0,872.876,1.0,199.0,6.0,1.14087,0.949466
Asian,5,Right,18,Female,Yes,English,B,201,0,4,8,180.0,1.0,1.0,858.093,1.0,200.0,6.0,1.12118,0.930397
Asian,5,Right,18,Female,Yes,English,B,202,0,8,16,180.0,1.0,1.0,620.733,1.0,201.0,6.0,1.16654,0.924905
Asian,5,Right,18,Female,Yes,English,B,203,0,8,4,180.0,1.0,1.0,645.024,1.0,202.0,6.0,1.05724,0.804082
Asian,5,Right,18,Female,Yes,English,B,204,0,4,4,0.0,0.0,1.0,1288.97,1.0,203.0,6.0,1.042,0.890068
Asian,5,Right,18,Female,Yes,English,B,205,0,0,4,180.0,1.0,1.0,723.409,1.0,204.0,6.0,1.16752,0.92695
Asian,5,Right,18,Female,Yes,English,B,206,1,8,4,0.0,0.0,1.0,801.572,1.0,205.0,6.0,1.18636,0.963703
Asian,5,Right,18,Female,Yes,English,B,207,0,4,16,0.0,0.0,1.0,992.748,1.0,206.0,6.0,1.0136,0.902671
Asian,5,Right,18,Female,Yes,English,B,208,0,16,4,180.0,1.0,1.0,964.897,1.0,207.0,6.0,1.09782,0.873971
Asian,5,Right,18,Female,Yes,English,B,209,1,8,16,0.0,0.0,1.0,1419.82,1.0,208.0,6.0,1.05716,0.84645
Asian,5,Right,18,Female,Yes,English,B,210,1,16,0,0.0,0.0,1.0,933.671,1.0,209.0,6.0,1.16815,0.866668
Asian,5,Right,18,Female,Yes,English,B,211,0,0,8,0.0,0.0,1.0,875.198,1.0,210.0,6.0,1.165,0.913564
Asian,5,Right,18,Female,Yes,English,B,212,0,8,8,180.0,1.0,1.0,767.154,1.0,211.0,6.0,1.06881,0.841064
Asian,5,Right,18,Female,Yes,English,B,213,1,16,16,180.0,1.0,1.0,764.104,1.0,212.0,6.0,1.12373,0.984714
Asian,5,Right,18,Female,Yes,English,B,214,1,16,8,0.0,0.0,1.0,669.998,1.0,213.0,6.0,1.06835,0.870612
Asian,5,Right,18,Female,Yes,English,B,215,1,0,0,0.0,0.0,1.0,665.015,1.0,214.0,6.0,1.06824,0.861355
Asian,5,Right,18,Female,Yes,English,B,216,1,4,0,0.0,0.0,1.0,623.383,1.0,215.0,6.0,1.01767,0.882035
Asian,5,Right,18,Female,Yes,English,B,217,1,8,8,0.0,0.0,1.0,562.148,1.0,216.0,6.0,1.01411,0.983333
Asian,5,Right,18,Female,Yes,English,B,218,0,16,16,180.0,1.0,1.0,786.864,1.0,217.0,6.0,1.1959,0.824822
Asian,5,Right,18,Female,Yes,English,B,219,0,0,0,180.0,1.0,1.0,823.707,1.0,218.0,6.0,1.06523,0.844889
Asian,5,Right,18,Female,Yes,English,B,220,1,4,8,180.0,1.0,1.0,852.967,1.0,219.0,6.0,1.17135,0.812319
Asian,5,Right,18,Female,Yes,English,B,221,0,4,0,0.0,0.0,1.0,921.182,1.0,220.0,6.0,1.15891,0.993289
Asian,5,Right,18,Female,Yes,English,B,222,0,16,0,0.0,0.0,1.0,693.732,1.0,221.0,6.0,1.01324,0.988087
Asian,5,Right,18,Female,Yes,English,B,223,1,8,0,0.0,0.0,1.0,803.392,1.0,222.0,6.0,1.12544,0.814007
Asian,5,Right,18,Female,Yes,English,B,224,1,16,4,180.0,1.0,1.0,561.394,1.0,223.0,6.0,1.04741,0.852962
Asian,5,Right,18,Female,Yes,English,B,225,0,0,8,180.0,1.0,1.0,934.652,1.0,224.0,7.0,1.05583,0.896324
Asian,5,Right,18,Female,Yes,English,B,226,0,4,4,180.0,1.0,1.0,575.382,1.0,225.0,7.0,1.12,0.841326
Asian,5,Right,18,Female,Yes,English,B,227,0,16,8,0.0,0.0,1.0,762.314,1.0,226.0,7.0,1.12907,0.972984
Asian,5,Right,18,Female,Yes,English,B,228,1,0,4,0.0,0.0,1.0,659.32,1.0,227.0,7.0,1.0967,0.936097
Asian,5,Right,18,Female,Yes,English,B,229,0,16,4,0.0,0.0,1.0,737.075,1.0,228.0,7.0,1.09593,0.904042
Asian,5,Right,18,Female,Yes,English,B,230,0,4,8,180.0,1.0,1.0,613.511,1.0,229.0,7.0,1.02016,0.884924
Asian,5,Right,18,Female,Yes,English,B,231,1,8,16,180.0,1.0,1.0,639.592,1.0,230.0,7.0,1.17927,0.892178
Asian,5,Right,18,Female,Yes,English,B,232,0,0,4,0.0,0.0,1.0,1131.12,1.0,231.0,7.0,1.18287,0.952434
Asian,5,Right,18,Female,Yes,English,B,233,0,8,0,0.0,0.0,1.0,1037.48,1.0,232.0,7.0,1.11197,0.941048
Asian,5,Right,18,Female,Yes,English,B,234,0,16,0,0.0,0.0,1.0,759.486,1.0,233.0,7.0,1.19556,0.893295
Asian,5,Right,18,Female,Yes,English,B,235,0,0,0,180.0,1.0,1.0,658.272,1.0,234.0,7.0,1.04523,0.843177
Asian,5,Right,18,Female,Yes,English,B,236,0,4,16,180.0,1.0,1.0,627.79,1.0,235.0,7.0,1.17851,0.9432
Asian,5,Right,18,Female,Yes,English,B,237,0,0,16,180.0,1.0,1.0,758.759,1.0,236.0,7.0,1.04177,0.82835
Asian,5,Right,18,Female,Yes,English,B,238,1,0,0,0.0,0.0,1.0,726.056,1.0,237.0,7.0,1.1206,0.811383
Asian,5,Right,18,Female,Yes,English,B,239,1,4,0,180.0,1.0,1.0,891.857,1.0,238.0,7.0,1.1792,0.98552
Asian,5,Right,18,Female,Yes,English,B,240,0,4,0,180.0,1.0,1.0,665.456,1.0,239.0,7.0,1.03362,0.892533
Asian,5,Right,18,Female,Yes,English,B,241,0,16,16,0.0,0.0,1.0,714.061,1.0,240.0,7.0,1.04908,0.96879
Asian,5,Right,18,Female,Yes,English,B,242,1,0,16,180.0,1.0,1.0,615.71,1.0,241.0,7.0,1.15768,0.952411
Asian,5,Right,18,Female,Yes,English,B,243,1,8,0,0.0,0.0,1.0,706.111,1.0,242.0,7.0,1.05668,0.841818
Asian,5,Right,18,Female,Yes,English,B,244,1,0,8,0.0,0.0,1.0,743.879,1.0,243.0,7.0,1.17645,0.866569
Asian,5,Right,18,Female,Yes,English,B,245,0,8,8,180.0,1.0,1.0,1361.43,1.0,244.0,7.0,1.08247,0.885845
Asian,5,Right,18,Female,Yes,English,B,246,1,16,0,0.0,0.0,1.0,856.774,1.0,245.0,7.0,1.15027,0.911571
Asian,5,Right,18,Female,Yes,English,B,247,0,8,16,180.0,1.0,1.0,625.892,1.0,246.0,7.0,1.19847,0.921361
Asian,5,Right,18,Female,Yes,English,B,248,0,8,4,180.0,1.0,1.0,857.53,1.0,247.0,7.0,1.17036,0.898086
Asian,5,Right,18,Female,Yes,English,B,249,1,4,16,180.0,1.0,1.0,1000.66,1.0,248.0,7.0,1.08307,0.950545
Asian,5,Right,18,Female,Yes,English,B,250,1,8,8,0.0,0.0,1.0,1267.12,1.0,249.0,7.0,1.1418,0.87859
Asian,5,Right,18,Female,Yes,English,B,251,1,16,8,180.0,1.0,1.0,813.306,1.0,250.0,7.0,1.15029,0.920799
Asian,5,Right,18,Female,Yes,English,B,252,1,4,8,0.0,0.0,1.0,785.03,1.0,251.0,7.0,1.18275,0.919153
Asian,5,Right,18,Female,Yes,English,B,253,1,4,4,0.0,0.0,1.0,1292.76,1.0,252.0,7.0,1.03552,0.867039
Asian,5,Right,18,Female,Yes,English,B,254,1,16,16,0.0,0.0,1.0,877.455,1.0,253.0,7.0,1.10498,0.9234
Asian,5,Right,18,Female,Yes,English,B,255,1,16,4,0.0,0.0,1.0,573.697,1.0,254.0,7.0,1.13939,0.917382
Asian,5,Right,18,Female,Yes,English,B,256,1,8,4,180.0,1.0,1.0,667.495,1.0,255.0,7.0,1.06676,0.868344
Asian,5,Right,18,Female,Yes,English,B,257,1,16,0,180.0,1.0,1.0,1000.5,1.0,256.0,8.0,1.01544,0.965892
Asian,5,Right,18,Female,Yes,English,B,258,0,4,16,180.0,1.0,1.0,766.064,1.0,257.0,8.0,1.167,0.936741
Asian,5,Right,18,Female,Yes,English,B,259,1,0,8,180.0,1.0,1.0,591.522,1.0,258.0,8.0,1.08234,0.821114
Asian,5,Right,18,Female,Yes,English,B,260,1,4,0,0.0,0.0,1.0,471.891,1.0,259.0,8.0,1.19318,0.991743
Asian,5,Right,18,Female,Yes,English,B,261,0,16,4,180.0,1.0,1.0,527.702,1.0,260.0,8.0,1.01176,0.94789
Asian,5,Right,18,Female,Yes,English,B,262,1,8,8,180.0,1.0,1.0,695.998,1.0,261.0,8.0,1.01221,0.905017
Asian,5,Right,18,Female,Yes,English,B,263,1,8,16,180.0,1.0,1.0,571.995,1.0,262.0,8.0,1.02695,0.814539
Asian,5,Right,18,Female,Yes,English,B,264,1,16,16,0.0,0.0,1.0,1536.19,1.0,263.0,8.0,1.15567,0.930663
Asian,5,Right,18,Female,Yes,English,B,265,1,4,4,180.0,1.0,1.0,768.365,1.0,264.0,8.0,1.17924,0.81141
Asian,5,Right,18,Female,Yes,English,B,266,0,0,0,0.0,0.0,1.0,702.62,1.0,265.0,8.0,1.0515,0.902384
Asian,5,Right,18,Female,Yes,English,B,267,0,0,4,0.0,0.0,1.0,599.97,1.0,266.0,8.0,1.10397,0.864796
Asian,5,Right,18,Female,Yes,English,B,268,1,16,8,0.0,0.0,1.0,1080.86,1.0,267.0,8.0,1.08541,0.817225
Asian,5,Right,18,Female,Yes,English,B,269,1,0,0,180.0,1.0,1.0,583.736,1.0,268.0,8.0,1.13777,0.924788
Asian,5,Right,18,Female,Yes,English,B,270,1,8,0,180.0,1.0,1.0,866.313,1.0,269.0,8.0,1.12487,0.90559
Asian,5,Right,18,Female,Yes,English,B,271,0,8,16,180.0,1.0,1.0,1023.45,1.0,270.0,8.0,1.19792,0.950435
Asian,5,Right,18,Female,Yes,English,B,272,0,0,16,0.0,0.0,1.0,1116.6,1.0,271.0,8.0,1.15327,0.875753
Asian,5,Right,18,Female,Yes,English,B,273,1,4,16,180.0,1.0,1.0,791.914,1.0,272.0,8.0,1.09873,0.91068
Asian,5,Right,18,Female,Yes,English,B,274,0,4,4,0.0,0.0,1.0,754.495,1.0,273.0,8.0,1.11502,0.877245
Asian,5,Right,18,Female,Yes,English,B,275,1,16,4,0.0,0.0,1.0,949.144,1.0,274.0,8.0,1.0821,0.996213
Asian,5,Right,18,Female,Yes,English,B,276,1,0,16,0.0,0.0,1.0,566.28,1.0,275.0,8.0,1.09432,0.960813
Asian,5,Right,18,Female,Yes,English,B,277,1,0,4,180.0,1.0,1.0,691.729,1.0,276.0,8.0,1.08753,0.806507
Asian,5,Right,18,Female,Yes,English,B,278,0,16,16,180.0,1.0,1.0,569.765,1.0,277.0,8.0,1.14272,0.944143
Asian,5,Right,18,Female,Yes,English,B,279,0,16,8,0.0,0.0,1.0,624.731,1.0,278.0,8.0,1.04245,0.850595
Asian,5,Right,18,Female,Yes,English,B,280,1,8,4,0.0,0.0,1.0,701.133,1.0,279.0,8.0,1.13382,0.894755
Asian,5,Right,18,Female,Yes,English,B,281,0,8,8,0.0,0.0,1.0,629.643,1.0,280.0,8.0,1.13698,0.980531
Asian,5,Right,18,Female,Yes,English,B,282,0,4,8,180.0,1.0,1.0,539.597,1.0,281.0,8.0,1.13285,0.978659
Asian,5,Right,18,Female,Yes,English,B,283,0,16,0,0.0,0.0,1.0,692.643,1.0,282.0,8.0,1.17488,0.866199
Asian,5,Right,18,Female,Yes,English,B,284,0,8,0,0.0,0.0,1.0,662.867,1.0,283.0,8.0,1.00994,0.839243
Asian,5,Right,18,Female,Yes,English,B,285,0,8,4,0.0,0.0,1.0,567.439,1.0,284.0,8.0,1.15772,0.90417
Asian,5,Right,18,Female,Yes,English,B,286,0,4,0,180.0,1.0,1.0,820.476,1.0,285.0,8.0,1.18738,0.917928
Asian,5,Right,18,Female,Yes,English,B,287,0,0,8,0.0,0.0,1.0,589.671,1.0,286.0,8.0,1.08936,0.889316
Asian,5,Right,18,Female,Yes,English,B,288,1,4,8,180.0,1.0,1.0,731.551,1.0,287.0,8.0,1.14006,0.854368
Asian,5,Right,18,Female,Yes,English,B,289,0,16,16,0.0,0.0,1.0,630.453,1.0,288.0,9.0,1.13317,0.845543
Asian,5,Right,18,Female,Yes,English,B,290,0,8,8,0.0,0.0,1.0,661.203,1.0,289.0,9.0,1.16699,0.91487
Asian,5,Right,18,Female,Yes,English,B,291,1,0,4,0.0,0.0,1.0,2021.8,1.0,290.0,9.0,1.15348,0.946086
Asian,5,Right,18,Female,Yes,English,B,292,0,0,0,180.0,1.0,1.0,677.74,1.0,291.0,9.0,1.0518,0.85849
Asian,5,Right,18,Female,Yes,English,B,293,0,16,8,180.0,1.0,1.0,623.187,1.0,292.0,9.0,1.15143,0.965874
Asian,5,Right,18,Female,Yes,English,B,294,0,16,4,0.0,0.0,1.0,766.068,1.0,293.0,9.0,1.01879,0.899698
Asian,5,Right,18,Female,Yes,English,B,295,1,0,8,180.0,1.0,1.0,638.758,1.0,294.0,9.0,1.08929,0.982898
Asian,5,Right,18,Female,Yes,English,B,296,0,4,16,0.0,0.0,1.0,614.196,1.0,295.0,9.0,1.06978,0.975833
Asian,5,Right,18,Female,Yes,English,B,297,1,4,4,0.0,0.0,1.0,727.323,1.0,296.0,9.0,1.01202,0.909894
Asian,5,Right,18,Female,Yes,English,B,298,0,8,16,0.0,0.0,1.0,804.424,1.0,297.0,9.0,1.18388,0.93352
Asian,5,Right,18,Female,Yes,English,B,299,1,8,0,180.0,1.0,1.0,810.664,1.0,298.0,9.0,1.10077,0.92268
Asian,5,Right,18,Female,Yes,English,B,300,0,4,4,0.0,0.0,1.0,652.255,1.0,299.0,9.0,1.00944,0.813906
Asian,5,Right,18,Female,Yes,English,B,301,1,4,8,0.0,0.0,1.0,735.961,1.0,300.0,9.0,1.16248,0.915215
Asian,5,Right,18,Female,Yes,English,B,302,1,8,4,0.0,0.0,1.0,759.651,1.0,301.0,9.0,1.03395,0.887341
Asian,5,Right,18,Female,Yes,English,B,303,0,4,8,180.0,1.0,1.0,826.315,1.0,302.0,9.0,1.08131,0.982478
Asian,5,Right,18,Female,Yes,English,B,304,0,8,4,0.0,0.0,1.0,455.32,1.0,303.0,9.0,1.0057,0.921807
Asian,5,Right,18,Female,Yes,English,B,305,1,8,16,0.0,0.0,1.0,665.45,1.0,304.0,9.0,1.02647,0.827258
Asian,5,Right,18,Female,Yes,English,B,306,1,0,16,180.0,1.0,1.0,816.841,1.0,305.0,9.0,1.08503,0.911344
Asian,5,Right,18,Female,Yes,English,B,307,1,0,0,180.0,1.0,1.0,602.624,1.0,306.0,9.0,1.16063,0.929769
Asian,5,Right,18,Female,Yes,English,B,308,1,16,0,180.0,1.0,1.0,490.401,1.0,307.0,9.0,1.01158,0.865609
Asian,5,Right,18,Female,Yes,English,B,309,0,16,0,180.0,1.0,1.0,644.558,1.0,308.0,9.0,1.0462,0.991256
Asian,5,Right,18,Female,Yes,English,B,310,1,16,4,0.0,0.0,1.0,690.969,1.0,309.0,9.0,1.10061,0.9883
Asian,5,Right,18,Female,Yes,English,B,311,1,4,0,180.0,1.0,1.0,937.564,1.0,310.0,9.0,1.12769,0.841509
Asian,5,Right,18,Female,Yes,English,B,312,0,0,8,0.0,0.0,1.0,1148.45,1.0,311.0,9.0,1.0195,0.92347
Asian,5,Right,18,Female,Yes,English,B,313,1,16,16,180.0,1.0,1.0,975.065,1.0,312.0,9.0,1.10241,0.853749
Asian,5,Right,18,Female,Yes,English,B,314,1,4,16,0.0,0.0,1.0,609.928,1.0,313.0,9.0,1.07884,0.938631
Asian,5,Right,18,Female,Yes,English,B,315,1,8,8,180.0,1.0,1.0,631.284,1.0,314.0,9.0,1.00649,0.861811
Asian,5,Right,18,Female,Yes,English,B,316,0,0,4,180.0,1.0,1.0,701.805,1.0,315.0,9.0,1.14519,0.993251
Asian,5,Right,18,Female,Yes,English,B,317,0,8,0,180.0,1.0,1.0,842.644,1.0,316.0,9.0,1.02459,0.939052
Asian,5,Right,18,Female,Yes,English,B,318,0,4,0,0.0,0.0,1.0,955.174,1.0,317.0,9.0,1.08211,0.954395
Asian,5,Right,18,Female,Yes,English,B,319,1,16,8,180.0,1.0,1.0,1040.01,1.0,318.0,9.0,1.04569,0.923959
Asian,5,Right,18,Female,Yes,English,B,320,0,0,16,180.0,1.0,1.0,625.869,1.0,319.0,9.0,1.15607,0.857466
Asian,5,Right,18,Female,Yes,English,B,321,0,16,0,0.0,0.0,1.0,1498.96,1.0,320.0,10.0,1.03243,0.808119
Asian,5,Right,18,Female,Yes,English,B,322,1,4,8,0.0,0.0,1.0,785.565,1.0,321.0,10.0,1.07908,0.995168
Asian,5,Right,18,Female,Yes,English,B,323,1,8,16,180.0,1.0,1.0,631.238,1.0,322.0,10.0,1.06842,0.842522
Asian,5,Right,18,Female,Yes,English,B,324,0,4,16,0.0,0.0,1.0,776.791,1.0,323.0,10.0,1.07293,0.911583
Asian,5,Right,18,Female,Yes,English,B,325,1,4,0,0.0,0.0,1.0,590.393,1.0,324.0,10.0,1.07796,0.91783
Asian,5,Right,18,Female,Yes,English,B,326,1,8,0,180.0,1.0,1.0,738.74,1.0,325.0,10.0,1.15708,0.936032
Asian,5,Right,18,Female,Yes,English,B,327,0,4,8,180.0,1.0,1.0,674.277,1.0,326.0,10.0,1.11515,0.965498
Asian,5,Right,18,Female,Yes,English,B,328,0,8,0,180.0,1.0,1.0,753.237,1.0,327.0,10.0,1.03332,0.963325
Asian,5,Right,18,Female,Yes,English,B,329,1,0,4,0.0,0.0,1.0,682.806,1.0,328.0,10.0,1.09032,0.882868
Asian,5,Right,18,Female,Yes,English,B,330,0,0,0,0.0,0.0,1.0,681.039,1.0,329.0,10.0,1.1947,0.879543
Asian,5,Right,18,Female,Yes,English,B,331,1,16,0,0.0,0.0,1.0,839.278,1.0,330.0,10.0,1.15415,0.824904
Asian,5,Right,18,Female,Yes,English,B,332,1,8,4,180.0,1.0,1.0,658.58,1.0,331.0,10.0,1.07465,0.958838
Asian,5,Right,18,Female,Yes,English,B,333,0,8,4,180.0,1.0,1.0,637.524,1.0,332.0,10.0,1.03322,0.850823
Asian,5,Right,18,Female,Yes,English,B,334,0,16,8,0.0,0.0,1.0,644.651,1.0,333.0,10.0,1.12182,0.817397
Asian,5,Right,18,Female,Yes,English,B,335,1,0,0,180.0,1.0,1.0,621.141,1.0,334.0,10.0,1.02757,0.849025
Asian,5,Right,18,Female,Yes,English,B,336,1,0,8,180.0,1.0,1.0,784.411,1.0,335.0,10.0,1.17027,0.848483
Asian,5,Right,18,Female,Yes,English,B,337,0,16,16,0.0,0.0,1.0,1197.57,1.0,336.0,10.0,1.13131,0.882872
Asian,5,Right,18,Female,Yes,English,B,338,0,4,4,180.0,1.0,1.0,623.419,1.0,337.0,10.0,1.14111,0.89872
Asian,5,Right,18,Female,Yes,English,B,339,0,0,16,0.0,0.0,1.0,669.161,1.0,338.0,10.0,1.11209,0.803967
Asian,5,Right,18,Female,Yes,English,B,340,0,16,4,180.0,1.0,1.0,544.355,1.0,339.0,10.0,1.12419,0.948456
Asian,5,Right,18,Female,Yes,English,B,341,1,4,16,0.0,0.0,1.0,736.955,1.0,340.0,10.0,1.09423,0.887437
Asian,5,Right,18,Female,Yes,English,B,342,1,4,4,180.0,1.0,1.0,584.718,1.0,341.0,10.0,1.15529,0.99811
Asian,5,Right,18,Female,Yes,English,B,343,1,16,8,180.0,1.0,1.0,1325.11,1.0,342.0,10.0,1.17146,0.806391
Asian,5,Right,18,Female,Yes,English,B,344,1,0,16,0.0,0.0,1.0,654.526,1.0,343.0,10.0,1.14025,0.815012
Asian,5,Right,18,Female,Yes,English,B,345,0,8,8,180.0,1.0,1.0,747.491,1.0,344.0,10.0,1.05505,0.837686
Asian,5,Right,18,Female,Yes,English,B,346,0,4,0,0.0,0.0,1.0,657.099,1.0,345.0,10.0,1.11418,0.973199
Asian,5,Right,18,Female,Yes,English,B,347,1,8,8,180.0,1.0,1.0,738.227,1.0,346.0,10.0,1.15566,0.97491
Asian,5,Right,18,Female,Yes,English,B,348,0,8,16,0.0,0.0,1.0,875.983,1.0,347.0,10.0,1.1007,0.921896
Asian,5,Right,18,Female,Yes,English,B,349,0,0,4,0.0,0.0,1.0,593.776,1.0,348.0,10.0,1.09182,0.907944
Asian,5,Right,18,Female,Yes,English,B,350,1,16,16,0.0,0.0,1.0,731.307,1.0,349.0,10.0,1.05673,0.923727
Asian,5,Right,18,Female,Yes,English,B,351,1,16,4,180.0,1.0,1.0,975.332,1.0,350.0,10.0,1.02425,0.993305
Asian,5,Right,18,Female,Yes,English,B,352,0,0,8,180.0,1.0,1.0,1000.04,1.0,351.0,10.0,1.15748,0.865343
Asian,5,Right,18,Female,Yes,English,B,353,1,0,16,0.0,0.0,1.0,606.52,1.0,352.0,11.0,1.14108,0.800847
Asian,5,Right,18,Female,Yes,English,B,354,1,0,4,180.0,1.0,1.0,594.014,1.0,353.0,11.0,1.11603,0.976933
Asian,5,Right,18,Female,Yes,English,B,355,1,4,4,180.0,1.0,1.0,608.161,1.0,354.0,11.0,1.12101,0.87809
Asian,5,Right,18,Female,Yes,English,B,356,0,4,8,0.0,0.0,1.0,742.052,1.0,355.0,11.0,1.02349,0.957162
Asian,5,Right,18,Female,Yes,English,B,357,1,16,16,180.0,1.0,1.0,812.476,1.0,356.0,11.0,1.18853,0.921847
Asian,5,Right,18,Female,Yes,English,B,358,0,16,16,0.0,0.0,1.0,614.066,1.0,357.0,11.0,1.12829,0.947047
Asian,5,Right,18,Female,Yes,English,B,359,0,16,0,180.0,1.0,1.0,587.303,1.0,358.0,11.0,1.07997,0.944082
Asian,5,Right,18,Female,Yes,English,B,360,1,4,16,180.0,1.0,1.0,586.335,1.0,359.0,11.0,1.08518,0.956399
Asian,5,Right,18,Female,Yes,English,B,361,1,16,8,0.0,0.0,1.0,1004.64,1.0,360.0,11.0,1.01607,0.858909
Asian,5,Right,18,Female,Yes,English,B,362,1,4,8,180.0,1.0,1.0,597.362,1.0,361.0,11.0,1.10294,0.905671
Asian,5,Right,18,Female,Yes,English,B,363,0,0,4,0.0,0.0,1.0,664.03,1.0,362.0,11.0,1.0433,0.982387
Asian,5,Right,18,Female,Yes,English,B,364,1,8,8,0.0,0.0,1.0,640.31,1.0,363.0,11.0,1.18041,0.947706
Asian,5,Right,18,Female,Yes,English,B,365,0,4,16,180.0,1.0,1.0,863.203,1.0,364.0,11.0,1.00513,0.805285
Asian,5,Right,18,Female,Yes,English,B,366,1,4,0,180.0,1.0,1.0,1022.96,1.0,365.0,11.0,1.10522,0.860739
Asian,5,Right,18,Female,Yes,English,B,367,0,0,16,0.0,0.0,1.0,982.688,1.0,366.0,11.0,1.11981,0.93356
Asian,5,Right,18,Female,Yes,English,B,368,0,16,8,0.0,0.0,1.0,1019.97,1.0,367.0,11.0,1.10695,0.882173
Asian,5,Right,18,Female,Yes,English,B,369,0,8,16,0.0,0.0,1.0,1052.05,1.0,368.0,11.0,1.13211,0.852772
Asian,5,Right,18,Female,Yes,English,B,370,0,4,0,180.0,1.0,1.0,570.504,1.0,369.0,11.0,1.02586,0.88898
Asian,5,Right,18,Female,Yes,English,B,371,0,8,0,0.0,0.0,1.0,707.39,1.0,370.0,11.0,1.08973,0.989367
Asian,5,Right,18,Female,Yes,English,B,372,1,8,16,180.0,1.0,1.0,591.249,1.0,371.0,11.0,1.19951,0.916077
Asian,5,Right,18,Female,Yes,English,B,373,0,16,4,180.0,1.0,1.0,827.488,1.0,372.0,11.0,1.02167,0.842944
Asian,5,Right,18,Female,Yes,English,B,374,1,8,0,0.0,0.0,1.0,765.367,1.0,373.0,11.0,1.15682,0.887015
Asian,5,Right,18,Female,Yes,English,B,375,0,0,0,180.0,1.0,1.0,449.697,1.0,374.0,11.0,1.02965,0.88795
Asian,5,Right,18,Female,Yes,English,B,376,0,8,4,180.0,1.0,1.0,706.813,1.0,375.0,11.0,1.17325,0.910331
Asian,5,Right,18,Female,Yes,English,B,377,0,0,8,0.0,0.0,1.0,628.373,1.0,376.0,11.0,1.02928,0.946868
Asian,5,Right,18,Female,Yes,English,B,378,1,16,0,180.0,1.0,1.0,517.305,1.0,377.0,11.0,1.11077,0.934497
Asian,5,Right,18,Female,Yes,English,B,379,1,0,8,0.0,0.0,1.0,532.273,1.0,378.0,11.0,1.10596,0.904451
Asian,5,Right,18,Female,Yes,English,B,380,1,8,4,180.0,1.0,1.0,580.76,1.0,379.0,11.0,1.13226,0.81775
Asian,5,Right,18,Female,Yes,English,B,381,1,0,0,0.0,0.0,1.0,619.875,1.0,380.0,11.0,1.11348,0.835961
Asian,5,Right,18,Female,Yes,English,B,382,0,8,8,180.0,1.0,1.0,640.839,1.0,381.0,11.0,1.14919,0.80606
Asian,5,Right,18,Female,Yes,English,B,383,0,4,4,0.0,0.0,1.0,660.114,1.0,382.0,11.0,1.17709,0.820587
Asian,5,Right,18,Female,Yes,English,B,384,1,16,4,0.0,0.0,1.0,873.545,1.0,383.0,11.0,1.16069,0.848959
Asian,5,Right,18,Female,Yes,English,B,385,0,4,16,180.0,1.0,1.0,639.598,1.0,384.0,12.0,1.03848,0.855136
Asian,5,Right,18,Female,Yes,English,B,386,0,4,4,180.0,1.0,1.0,662.536,1.0,385.0,12.0,1.13112,0.857929
Asian,5,Right,18,Female,Yes,English,B,387,1,0,16,0.0,0.0,1.0,538.617,1.0,386.0,12.0,1.11353,0.94919
Asian,5,Right,18,Female,Yes,English,B,388,1,8,16,0.0,0.0,1.0,788.874,1.0,387.0,12.0,1.0748,0.986825
Asian,5,Right,18,Female,Yes,English,B,389,0,8,8,0.0,1.0,0.0,509.244,1.0,388.0,12.0,1.07241,0.892831
Asian,5,Right,18,Female,Yes,English,B,390,0,4,8,180.0,1.0,1.0,866.537,1.0,389.0,12.0,1.18506,0.918263
Asian,5,Right,18,Female,Yes,English,B,391,0,0,0,180.0,1.0,1.0,682.056,1.0,390.0,12.0,1.06285,0.890677
Asian,5,Right,18,Female,Yes,English,B,392,1,16,16,180.0,1.0,1.0,841.953,1.0,391.0,12.0,1.1075,0.963547
Asian,5,Right,18,Female,Yes,English,B,393,0,8,16,0.0,0.0,1.0,922.132,1.0,392.0,12.0,1.14844,0.932377
Asian,5,Right,18,Female,Yes,English,B,394,1,0,0,0.0,0.0,1.0,598.249,1.0,393.0,12.0,1.12829,0.887295
Asian,5,Right,18,Female,Yes,English,B,395,0,8,4,180.0,1.0,1.0,738.088,1.0,394.0,12.0,1.16956,0.894276
Asian,5,Right,18,Female,Yes,English,B,396,1,8,0,0.0,0.0,1.0,736.673,1.0,395.0,12.0,1.15757,0.919074
Asian,5,Right,18,Female,Yes,English,B,397,1,4,0,0.0,0.0,1.0,727.089,1.0,396.0,12.0,1.18166,0.977592
Asian,5,Right,18,Female,Yes,English,B,398,0,16,16,0.0,0.0,1.0,869.65,1.0,397.0,12.0,1.003,0.834943
Asian,5,Right,18,Female,Yes,English,B,399,0,0,16,180.0,1.0,1.0,693.995,1.0,398.0,12.0,1.1972,0.920552
Asian,5,Right,18,Female,Yes,English,B,400,1,16,0,180.0,1.0,1.0,673.559,1.0,399.0,12.0,1.15672,0.883414
Asian,5,Right,18,Female,Yes,English,B,401,1,16,8,180.0,1.0,1.0,1036.75,1.0,400.0,12.0,1.1582,0.846454
Asian,5,Right,18,Female,Yes,English,B,402,0,4,0,180.0,1.0,1.0,1263.26,1.0,401.0,12.0,1.14645,0.877584
Asian,5,Right,18,Female,Yes,English,B,403,0,16,8,180.0,1.0,1.0,688.947,1.0,402.0,12.0,1.19385,0.847584
Asian,5,Right,18,Female,Yes,English,B,404,0,0,4,180.0,1.0,1.0,590.749,1.0,403.0,12.0,1.14805,0.955138
Asian,5,Right,18,Female,Yes,English,B,405,0,0,8,180.0,1.0,1.0,574.462,1.0,404.0,12.0,1.15478,0.938149
Asian,5,Right,18,Female,Yes,English,B,406,1,4,8,0.0,0.0,1.0,1051.0,1.0,405.0,12.0,1.01812,0.928653
Asian,5,Right,18,Female,Yes,English,B,407,0,8,0,180.0,1.0,1.0,652.671,1.0,406.0,12.0,1.07546,0.959096
Asian,5,Right,18,Female,Yes,English,B,408,1,0,8,180.0,1.0,1.0,447.268,1.0,407.0,12.0,1.01323,0.844408
Asian,5,Right,18,Female,Yes,English,B,409,0,16,4,180.0,1.0,1.0,638.936,1.0,408.0,12.0,1.12367,0.84228
Asian,5,Right,18,Female,Yes,English,B,410,1,16,4,0.0,0.0,1.0,700.696,1.0,409.0,12.0,1.10187,0.895139
Asian,5,Right,18,Female,Yes,English,B,411,1,4,16,0.0,0.0,1.0,735.492,1.0,410.0,12.0,1.01932,0.820439
Asian,5,Right,18,Female,Yes,English,B,412,1,4,4,0.0,0.0,1.0,751.006,1.0,411.0,12.0,1.04601,0.8642
Asian,5,Right,18,Female,Yes,English,B,413,1,8,4,0.0,0.0,1.0,725.613,1.0,412.0,12.0,1.01595,0.956086
Asian,5,Right,18,Female,Yes,English,B,414,1,0,4,0.0,0.0,1.0,600.445,1.0,413.0,12.0,1.03815,0.85049
Asian,5,Right,18,Female,Yes,English,B,415,0,16,0,0.0,0.0,1.0,605.018,1.0,414.0,12.0,1.15758,0.973957
Asian,5,Right,18,Female,Yes,English,B,416,1,8,8,0.0,0.0,1.0,467.419,1.0,415.0,12.0,1.14424,0.800416
Asian,5,Right,18,Female,Yes,English,B,417,1,8,16,180.0,1.0,1.0,764.349,1.0,416.0,13.0,1.05005,0.964548
Asian,5,Right,18,Female,Yes,English,B,418,1,0,8,180.0,1.0,1.0,649.405,1.0,417.0,13.0,1.11034,0.867736
Asian,5,Right,18,Female,Yes,English,B,419,0,4,4,0.0,0.0,1.0,1024.55,1.0,418.0,13.0,1.02419,0.987086
Asian,5,Right,18,Female,Yes,English,B,420,0,0,4,180.0,1.0,1.0,871.062,1.0,419.0,13.0,1.15108,0.917409
Asian,5,Right,18,Female,Yes,English,B,421,1,0,16,0.0,0.0,1.0,605.812,1.0,420.0,13.0,1.04711,0.901554
Asian,5,Right,18,Female,Yes,English,B,422,0,8,8,180.0,1.0,1.0,624.101,1.0,421.0,13.0,1.10032,0.906845
Asian,5,Right,18,Female,Yes,English,B,423,1,4,16,0.0,0.0,1.0,1155.85,1.0,422.0,13.0,1.0555,0.931692
Asian,5,Right,18,Female,Yes,English,B,424,0,16,16,180.0,1.0,1.0,581.171,1.0,423.0,13.0,1.04798,0.928743
Asian,5,Right,18,Female,Yes,English,B,425,0,4,16,180.0,1.0,1.0,763.497,1.0,424.0,13.0,1.10333,0.957935
Asian,5,Right,18,Female,Yes,English,B,426,0,8,4,0.0,0.0,1.0,803.009,1.0,425.0,13.0,1.16055,0.99366
Asian,5,Right,18,Female,Yes,English,B,427,1,8,8,0.0,0.0,1.0,668.624,1.0,426.0,13.0,1.1657,0.956337
Asian,5,Right,18,Female,Yes,English,B,428,1,8,0,0.0,0.0,1.0,903.365,1.0,427.0,13.0,1.01163,0.88453
Asian,5,Right,18,Female,Yes,English,B,429,0,8,0,0.0,0.0,1.0,669.894,1.0,428.0,13.0,1.15723,0.898803
Asian,5,Right,18,Female,Yes,English,B,430,1,16,8,0.0,0.0,1.0,886.254,1.0,429.0,13.0,1.0813,0.910546
Asian,5,Right,18,Female,Yes,English,B,431,0,16,0,180.0,1.0,1.0,678.156,1.0,430.0,13.0,1.05232,0.86119
Asian,5,Right,18,Female,Yes,English,B,432,1,4,0,180.0,1.0,1.0,741.953,1.0,431.0,13.0,1.02941,0.90604
Asian,5,Right,18,Female,Yes,English,B,433,1,4,4,180.0,1.0,1.0,945.214,1.0,432.0,13.0,1.1831,0.880665
Asian,5,Right,18,Female,Yes,English,B,434,1,0,0,180.0,1.0,1.0,618.977,1.0,433.0,13.0,1.00996,0.96051
Asian,5,Right,18,Female,Yes,English,B,435,1,16,0,0.0,0.0,1.0,790.133,1.0,434.0,13.0,1.19769,0.929518
Asian,5,Right,18,Female,Yes,English,B,436,1,0,4,180.0,1.0,1.0,587.581,1.0,435.0,13.0,1.09134,0.840776
Asian,5,Right,18,Female,Yes,English,B,437,0,0,8,180.0,1.0,1.0,685.346,1.0,436.0,13.0,1.05107,0.994436
Asian,5,Right,18,Female,Yes,English,B,438,0,16,8,0.0,0.0,1.0,763.791,1.0,437.0,13.0,1.01914,0.857393
Asian,5,Right,18,Female,Yes,English,B,439,0,8,16,180.0,1.0,1.0,676.685,1.0,438.0,13.0,1.14676,0.83307
Asian,5,Right,18,Female,Yes,English,B,440,1,8,4,0.0,0.0,1.0,680.974,1.0,439.0,13.0,1.17133,0.982516
Asian,5,Right,18,Female,Yes,English,B,441,0,0,16,180.0,1.0,1.0,814.736,1.0,440.0,13.0,1.089,0.972015
Asian,5,Right,18,Female,Yes,English,B,442,0,0,0,0.0,0.0,1.0,724.571,1.0,441.0,13.0,1.09591,0.887279
Asian,5,Right,18,Female,Yes,English,B,443,1,16,4,0.0,0.0,1.0,756.008,1.0,442.0,13.0,1.01787,0.878749
Asian,5,Right,18,Female,Yes,English,B,444,0,4,0,0.0,0.0,1.0,581.557,1.0,443.0,13.0,1.18803,0.849552
Asian,5,Right,18,Female,Yes,English,B,445,1,4,8,180.0,1.0,1.0,1188.27,1.0,444.0,13.0,1.18176,0.900543
Asian,5,Right,18,Female,Yes,English,B,446,0,16,4,0.0,0.0,1.0,708.583,1.0,445.0,13.0,1.07403,0.973038
Asian,5,Right,18,Female,Yes,English,B,447,0,4,8,180.0,1.0,1.0,757.692,1.0,446.0,13.0,1.16735,0.809993
Asian,5,Right,18,Female,Yes,English,B,448,1,16,16,0.0,0.0,1.0,647.853,1.0,447.0,13.0,1.0384,0.902707
Asian,5,Right,18,Female,Yes,English,B,449,0,4,16,0.0,0.0,1.0,747.754,1.0,448.0,14.0,1.12396,0.881686
Asian,5,Right,18,Female,Yes,English,B,450,0,8,16,180.0,1.0,1.0,677.648,1.0,449.0,14.0,1.09846,0.847147
Asian,5,Right,18,Female,Yes,English,B,451,0,0,0,0.0,0.0,1.0,501.108,1.0,450.0,14.0,1.06128,0.896024
Asian,5,Right,18,Female,Yes,English,B,452,1,8,0,180.0,1.0,1.0,542.651,1.0,451.0,14.0,1.09841,0.955815
Asian,5,Right,18,Female,Yes,English,B,453,0,8,4,0.0,0.0,1.0,647.43,1.0,452.0,14.0,1.01382,0.938664
Asian,5,Right,18,Female,Yes,English,B,454,1,8,16,180.0,1.0,1.0,1236.05,1.0,453.0,14.0,1.14722,0.990776
Asian,5,Right,18,Female,Yes,English,B,455,1,4,16,0.0,0.0,1.0,560.125,1.0,454.0,14.0,1.12925,0.838045
Asian,5,Right,18,Female,Yes,English,B,456,0,16,16,0.0,0.0,1.0,732.53,1.0,455.0,14.0,1.079,0.911116
Asian,5,Right,18,Female,Yes,English,B,457,0,4,4,0.0,0.0,1.0,645.322,1.0,456.0,14.0,1.04001,0.914259
Asian,5,Right,18,Female,Yes,English,B,458,1,0,16,0.0,0.0,1.0,554.648,1.0,457.0,14.0,1.18584,0.916503
Asian,5,Right,18,Female,Yes,English,B,459,0,4,8,180.0,0.0,0.0,579.051,1.0,458.0,14.0,1.11635,0.972488
Asian,5,Right,18,Female,Yes,English,B,460,1,16,8,0.0,0.0,1.0,688.356,1.0,459.0,14.0,1.19203,0.900802
Asian,5,Right,18,Female,Yes,English,B,461,1,4,0,180.0,1.0,1.0,716.107,1.0,460.0,14.0,1.0543,0.956731
Asian,5,Right,18,Female,Yes,English,B,462,1,0,8,0.0,0.0,1.0,601.663,1.0,461.0,14.0,1.03482,0.84566
Asian,5,Right,18,Female,Yes,English,B,463,1,0,0,0.0,0.0,1.0,585.853,1.0,462.0,14.0,1.16,0.907444
Asian,5,Right,18,Female,Yes,English,B,464,0,16,0,180.0,1.0,1.0,942.249,1.0,463.0,14.0,1.17795,0.959183
Asian,5,Right,18,Female,Yes,English,B,465,1,8,8,180.0,1.0,1.0,725.683,1.0,464.0,14.0,1.17074,0.983849
Asian,5,Right,18,Female,Yes,English,B,466,1,8,4,180.0,1.0,1.0,560.979,1.0,465.0,14.0,1.00868,0.910726
Asian,5,Right,18,Female,Yes,English,B,467,1,16,0,180.0,1.0,1.0,982.602,1.0,466.0,14.0,1.09896,0.804165
Asian,5,Right,18,Female,Yes,English,B,468,0,16,8,0.0,0.0,1.0,1030.95,1.0,467.0,14.0,1.05507,0.859345
Asian,5,Right,18,Female,Yes,English,B,469,1,4,8,0.0,0.0,1.0,673.497,1.0,468.0,14.0,1.05673,0.944718
Asian,5,Right,18,Female,Yes,English,B,470,1,16,4,180.0,1.0,1.0,967.865,1.0,469.0,14.0,1.17682,0.965095
Asian,5,Right,18,Female,Yes,English,B,471,0,0,8,0.0,0.0,1.0,638.482,1.0,470.0,14.0,1.14199,0.875081
Asian,5,Right,18,Female,Yes,English,B,472,0,16,4,0.0,0.0,1.0,1017.07,1.0,471.0,14.0,1.12158,0.921915
Asian,5,Right,18,Female,Yes,English,B,473,0,8,0,180.0,1.0,1.0,648.185,1.0,472.0,14.0,1.03899,0.862841
Asian,5,Right,18,Female,Yes,English,B,474,1,4,4,0.0,0.0,1.0,576.935,1.0,473.0,14.0,1.00349,0.938751
Asian,5,Right,18,Female,Yes,English,B,475,0,0,16,180.0,1.0,1.0,629.666,1.0,474.0,14.0,1.07342,0.942392
Asian,5,Right,18,Female,Yes,English,B,476,0,4,0,0.0,0.0,1.0,619.963,1.0,475.0,14.0,1.1262,0.971467
Asian,5,Right,18,Female,Yes,English,B,477,0,0,4,180.0,1.0,1.0,719.161,1.0,476.0,14.0,1.11383,0.818457
Asian,5,Right,18,Female,Yes,English,B,478,1,16,16,180.0,1.0,1.0,952.314,1.0,477.0,14.0,1.07458,0.997305
Asian,5,Right,18,Female,Yes,English,B,479,0,8,8,180.0,1.0,1.0,618.365,1.0,478.0,14.0,1.12198,0.853084
Asian,5,Right,18,Female,Yes,English,B,480,1,0,4,180.0,1.0,1.0,712.517,1.0,479.0,14.0,1.04058,0.817161
Asian,5,Right,18,Female,Yes,English,B,481,0,8,16,180.0,1.0,1.0,704.936,1.0,480.0,15.0,1.07143,0.988216
Asian,5,Right,18,Female,Yes,English,B,482,1,0,8,0.0,0.0,1.0,638.143,1.0,481.0,15.0,1.05417,0.919603
Asian,5,Right,18,Female,Yes,English,B,483,0,16,16,180.0,1.0,1.0,768.004,1.0,482.0,15.0,1.00491,0.976571
Asian,5,Right,18,Female,Yes,English,B,484,0,0,8,180.0,1.0,1.0,650.353,1.0,483.0,15.0,1.17937,0.932842
Asian,5,Right,18,Female,Yes,English,B,485,0,16,4,0.0,0.0,1.0,706.373,1.0,484.0,15.0,1.05593,0.942007
Asian,5,Right,18,Female,Yes,English,B,486,1,8,8,0.0,0.0,1.0,638.104,1.0,485.0,15.0,1.12571,0.964426
Asian,5,Right,18,Female,Yes,English,B,487,1,8,4,0.0,0.0,1.0,580.047,1.0,486.0,15.0,1.10785,0.879209
Asian,5,Right,18,Female,Yes,English,B,488,1,16,0,180.0,1.0,1.0,573.248,1.0,487.0,15.0,1.09822,0.957943
Asian,5,Right,18,Female,Yes,English,B,489,1,4,0,0.0,0.0,1.0,457.811,1.0,488.0,15.0,1.16219,0.95747
Asian,5,Right,18,Female,Yes,English,B,490,1,0,16,180.0,1.0,1.0,502.879,1.0,489.0,15.0,1.16333,0.822152
Asian,5,Right,18,Female,Yes,English,B,491,0,4,4,180.0,1.0,1.0,740.216,1.0,490.0,15.0,1.1281,0.955144
Asian,5,Right,18,Female,Yes,English,B,492,0,4,16,180.0,1.0,1.0,628.839,1.0,491.0,15.0,1.00318,0.979952
Asian,5,Right,18,Female,Yes,English,B,493,1,16,4,0.0,0.0,1.0,672.59,1.0,492.0,15.0,1.03618,0.830803
Asian,5,Right,18,Female,Yes,English,B,494,1,4,8,0.0,0.0,1.0,762.928,1.0,493.0,15.0,1.10073,0.890952
Asian,5,Right,18,Female,Yes,English,B,495,1,8,0,0.0,0.0,1.0,701.278,1.0,494.0,15.0,1.01954,0.941016
Asian,5,Right,18,Female,Yes,English,B,496,0,8,0,0.0,0.0,1.0,605.38,1.0,495.0,15.0,1.0726,0.834523
Asian,5,Right,18,Female,Yes,English,B,497,1,16,16,180.0,1.0,1.0,618.792,1.0,496.0,15.0,1.09542,0.961362
Asian,5,Right,18,Female,Yes,English,B,498,0,0,0,0.0,0.0,1.0,519.92,1.0,497.0,15.0,1.18983,0.881866
Asian,5,Right,18,Female,Yes,English,B,499,1,0,4,180.0,1.0,1.0,727.863,1.0,498.0,15.0,1.07253,0.82946
Asian,5,Right,18,Female,Yes,English,B,500,0,4,0,0.0,0.0,1.0,598.637,1.0,499.0,15.0,1.00841,0.979951
Asian,5,Right,18,Female,Yes,English,B,501,0,16,0,0.0,0.0,1.0,766.455,1.0,500.0,15.0,1.13322,0.971447
Asian,5,Right,18,Female,Yes,English,B,502,0,16,8,0.0,0.0,1.0,623.326,1.0,501.0,15.0,1.17389,0.861825
Asian,5,Right,18,Female,Yes,English,B,503,1,4,16,180.0,1.0,1.0,661.95,1.0,502.0,15.0,1.13666,0.909305
Asian,5,Right,18,Female,Yes,English,B,504,0,0,16,180.0,1.0,1.0,598.91,1.0,503.0,15.0,1.09103,0.886356
Asian,5,Right,18,Female,Yes,English,B,505,0,0,4,0.0,0.0,1.0,598.067,1.0,504.0,15.0,1.17632,0.816195
Asian,5,Right,18,Female,Yes,English,B,506,1,0,0,180.0,1.0,1.0,501.655,1.0,505.0,15.0,1.03828,0.832239
Asian,5,Right,18,Female,Yes,English,B,507,1,16,8,180.0,1.0,1.0,508.346,1.0,506.0,15.0,1.12364,0.967181
Asian,5,Right,18,Female,Yes,English,B,508,1,4,4,0.0,0.0,1.0,760.699,1.0,507.0,15.0,1.03458,0.979602
Asian,5,Right,18,Female,Yes,English,B,509,0,8,4,180.0,1.0,1.0,759.317,1.0,508.0,15.0,1.19366,0.926373
Asian,5,Right,18,Female,Yes,English,B,510,0,4,8,180.0,1.0,1.0,604.471,1.0,509.0,15.0,1.15948,0.94903
Asian,5,Right,18,Female,Yes,English,B,511,1,8,16,180.0,1.0,1.0,518.416,1.0,510.0,15.0,1.00109,0.959134
Asian,5,Right,18,Female,Yes,English,B,512,0,8,8,0.0,0.0,1.0,604.755,1.0,511.0,15.0,1.03252,0.82952
Asian,5,Right,18,Female,Yes,English,B,513,1,0,0,180.0,1.0,1.0,583.681,1.0,512.0,16.0,1.04154,0.90602
Asian,5,Right,18,Female,Yes,English,B,514,1,0,8,180.0,1.0,1.0,599.912,1.0,513.0,16.0,1.14927,0.831496
Asian,5,Right,18,Female,Yes,English,B,515,0,4,8,0.0,0.0,1.0,591.859,1.0,514.0,16.0,1.19849,0.938689
Asian,5,Right,18,Female,Yes,English,B,516,0,0,8,180.0,1.0,1.0,587.608,1.0,515.0,16.0,1.18145,0.844778
Asian,5,Right,18,Female,Yes,English,B,517,0,16,16,180.0,1.0,1.0,713.536,1.0,516.0,16.0,1.09064,0.895276
Asian,5,Right,18,Female,Yes,English,B,518,1,8,16,180.0,1.0,1.0,537.602,1.0,517.0,16.0,1.14752,0.971141
Asian,5,Right,18,Female,Yes,English,B,519,1,0,4,0.0,0.0,1.0,474.997,1.0,518.0,16.0,1.15493,0.944952
Asian,5,Right,18,Female,Yes,English,B,520,0,8,4,0.0,0.0,1.0,742.047,1.0,519.0,16.0,1.13039,0.915697
Asian,5,Right,18,Female,Yes,English,B,521,1,4,8,180.0,1.0,1.0,734.654,1.0,520.0,16.0,1.17709,0.933865
Asian,5,Right,18,Female,Yes,English,B,522,0,0,0,180.0,1.0,1.0,561.6,1.0,521.0,16.0,1.05273,0.976932
Asian,5,Right,18,Female,Yes,English,B,523,0,0,16,0.0,0.0,1.0,724.489,1.0,522.0,16.0,1.12576,0.926406
Asian,5,Right,18,Female,Yes,English,B,524,1,4,16,0.0,0.0,1.0,640.525,1.0,523.0,16.0,1.07406,0.984537
Asian,5,Right,18,Female,Yes,English,B,525,1,8,8,180.0,1.0,1.0,1277.21,1.0,524.0,16.0,1.04134,0.960231
Asian,5,Right,18,Female,Yes,English,B,526,0,4,16,0.0,0.0,1.0,589.565,1.0,525.0,16.0,1.03067,0.828375
Asian,5,Right,18,Female,Yes,English,B,527,1,0,16,0.0,0.0,1.0,710.83,1.0,526.0,16.0,1.11622,0.832443
Asian,5,Right,18,Female,Yes,English,B,528,1,4,4,0.0,0.0,1.0,682.477,1.0,527.0,16.0,1.18636,0.900367
Asian,5,Right,18,Female,Yes,English,B,529,0,16,8,180.0,1.0,1.0,1094.8,1.0,528.0,16.0,1.06722,0.918932
Asian,5,Right,18,Female,Yes,English,B,530,1,8,4,180.0,1.0,1.0,797.407,1.0,529.0,16.0,1.03908,0.810884
Asian,5,Right,18,Female,Yes,English,B,531,1,8,0,0.0,0.0,1.0,616.641,1.0,530.0,16.0,1.01314,0.960319
Asian,5,Right,18,Female,Yes,English,B,532,0,8,8,0.0,0.0,1.0,701.996,1.0,531.0,16.0,1.10803,0.974653
Asian,5,Right,18,Female,Yes,English,B,533,0,8,16,180.0,1.0,1.0,859.503,1.0,532.0,16.0,1.08618,0.836544
Asian,5,Right,18,Female,Yes,English,B,534,0,0,4,180.0,1.0,1.0,631.182,1.0,533.0,16.0,1.10122,0.927996
Asian,5,Right,18,Female,Yes,English,B,535,1,16,8,0.0,0.0,1.0,760.918,1.0,534.0,16.0,1.10588,0.934787
Asian,5,Right,18,Female,Yes,English,B,536,1,16,16,180.0,1.0,1.0,759.624,1.0,535.0,16.0,1.00412,0.844404
Asian,5,Right,18,Female,Yes,English,B,537,0,4,0,180.0,1.0,1.0,830.95,1.0,536.0,16.0,1.03409,0.98978
Asian,5,Right,18,Female,Yes,English,B,538,0,4,4,180.0,1.0,1.0,618.099,1.0,537.0,16.0,1.15889,0.992717
Asian,5,Right,18,Female,Yes,English,B,539,1,16,4,0.0,0.0,1.0,1154.26,1.0,538.0,16.0,1.13622,0.803953
Asian,5,Right,18,Female,Yes,English,B,540,0,8,0,0.0,0.0,1.0,629.703,1.0,539.0,16.0,1.06088,0.825357
Asian,5,Right,18,Female,Yes,English,B,541,1,16,0,0.0,0.0,1.0,879.978,1.0,540.0,16.0,1.06106,0.908701
Asian,5,Right,18,Female,Yes,English,B,542,0,16,4,180.0,1.0,1.0,1167.27,1.0,541.0,16.0,1.11622,0.989461
Asian,5,Right,18,Female,Yes,English,B,543,0,16,0,0.0,0.0,1.0,640.749,1.0,542.0,16.0,1.18677,0.930161
Asian,5,Right,18,Female,Yes,English,B,544,1,4,0,0.0,0.0,1.0,630.292,1.0,543.0,16.0,1.08778,0.900131
Asian,5,Right,18,Female,Yes,English,B,545,1,16,16,180.0,1.0,1.0,799.821,1.0,544.0,17.0,1.19642,0.836515
Asian,5,Right,18,Female,Yes,English,B,546,0,0,16,180.0,1.0,1.0,769.874,1.0,545.0,17.0,1.17088,0.841178
Asian,5,Right,18,Female,Yes,English,B,547,1,0,0,180.0,1.0,1.0,661.552,1.0,546.0,17.0,1.04432,0.994015
Asian,5,Right,18,Female,Yes,English,B,548,0,8,8,0.0,0.0,1.0,685.514,1.0,547.0,17.0,1.02121,0.985428
Asian,5,Right,18,Female,Yes,English,B,549,1,4,8,180.0,1.0,1.0,479.276,1.0,548.0,17.0,1.16941,0.978498
Asian,5,Right,18,Female,Yes,English,B,550,1,4,16,0.0,0.0,1.0,544.066,1.0,549.0,17.0,1.15137,0.913526
Asian,5,Right,18,Female,Yes,English,B,551,1,16,0,0.0,0.0,1.0,780.21,1.0,550.0,17.0,1.10621,0.99863
Asian,5,Right,18,Female,Yes,English,B,552,1,4,4,180.0,1.0,1.0,620.206,1.0,551.0,17.0,1.12024,0.963203
Asian,5,Right,18,Female,Yes,English,B,553,1,8,8,0.0,0.0,1.0,618.662,1.0,552.0,17.0,1.05109,0.821682
Asian,5,Right,18,Female,Yes,English,B,554,0,16,8,0.0,0.0,1.0,512.637,1.0,553.0,17.0,1.03159,0.956197
Asian,5,Right,18,Female,Yes,English,B,555,1,8,4,0.0,0.0,1.0,650.87,1.0,554.0,17.0,1.09988,0.913612
Asian,5,Right,18,Female,Yes,English,B,556,0,8,16,0.0,0.0,1.0,1276.4,1.0,555.0,17.0,1.13575,0.854067
Asian,5,Right,18,Female,Yes,English,B,557,1,0,8,0.0,0.0,1.0,637.307,1.0,556.0,17.0,1.14836,0.925152
Asian,5,Right,18,Female,Yes,English,B,558,0,16,16,180.0,1.0,1.0,744.491,1.0,557.0,17.0,1.10812,0.800268
Asian,5,Right,18,Female,Yes,English,B,559,0,4,8,180.0,1.0,1.0,809.561,1.0,558.0,17.0,1.16391,0.829663
Asian,5,Right,18,Female,Yes,English,B,560,0,16,4,180.0,1.0,1.0,733.555,1.0,559.0,17.0,1.02987,0.849665
Asian,5,Right,18,Female,Yes,English,B,561,0,0,4,180.0,1.0,1.0,625.975,1.0,560.0,17.0,1.12504,0.806888
Asian,5,Right,18,Female,Yes,English,B,562,1,16,4,180.0,1.0,1.0,1216.29,1.0,561.0,17.0,1.02809,0.996609
Asian,5,Right,18,Female,Yes,English,B,563,1,4,0,180.0,1.0,1.0,582.886,1.0,562.0,17.0,1.0305,0.924721
Asian,5,Right,18,Female,Yes,English,B,564,0,8,4,0.0,1.0,0.0,810.762,1.0,563.0,17.0,1.16217,0.970084
Asian,5,Right,18,Female,Yes,English,B,565,0,4,16,180.0,1.0,1.0,874.978,1.0,564.0,17.0,1.05139,0.908682
Asian,5,Right,18,Female,Yes,English,B,566,0,16,0,0.0,0.0,1.0,612.005,1.0,565.0,17.0,1.1606,0.863306
Asian,5,Right,18,Female,Yes,English,B,567,0,0,8,0.0,0.0,1.0,624.032,1.0,566.0,17.0,1.09464,0.976276
Asian,5,Right,18,Female,Yes,English,B,568,1,8,0,180.0,1.0,1.0,641.004,1.0,567.0,17.0,1.09127,0.861684
Asian,5,Right,18,Female,Yes,English,B,569,1,0,4,180.0,1.0,1.0,686.963,1.0,568.0,17.0,1.03213,0.829896
Asian,5,Right,18,Female,Yes,English,B,570,0,0,0,0.0,0.0,1.0,701.074,1.0,569.0,17.0,1.1429,0.98112
Asian,5,Right,18,Female,Yes,English,B,571,0,4,0,0.0,0.0,1.0,577.304,1.0,570.0,17.0,1.19235,0.810204
Asian,5,Right,18,Female,Yes,English,B,572,1,0,16,0.0,0.0,1.0,714.725,1.0,571.0,17.0,1.12438,0.937263
Asian,5,Right,18,Female,Yes,English,B,573,0,8,0,0.0,0.0,1.0,807.436,1.0,572.0,17.0,1.08288,0.886634
Asian,5,Right,18,Female,Yes,English,B,574,0,4,4,180.0,1.0,1.0,775.969,1.0,573.0,17.0,1.12126,0.927083
Asian,5,Right,18,Female,Yes,English,B,575,1,16,8,0.0,0.0,1.0,809.085,1.0,574.0,17.0,1.01829,0.82847
Asian,5,Right,18,Female,Yes,English,B,576,1,8,16,180.0,1.0,1.0,1845.5,1.0,575.0,17.0,1.17384,0.811115
Asian,5,Right,18,Female,Yes,English,B,577,1,0,16,180.0,1.0,1.0,1085.35,1.0,576.0,18.0,1.12397,0.92737
Asian,5,Right,18,Female,Yes,English,B,578,0,8,8,180.0,1.0,1.0,601.654,1.0,577.0,18.0,1.19495,0.905021
Asian,5,Right,18,Female,Yes,English,B,579,1,8,8,0.0,0.0,1.0,1295.29,1.0,578.0,18.0,1.15794,0.966179
Asian,5,Right,18,Female,Yes,English,B,580,1,16,8,180.0,1.0,1.0,683.557,1.0,579.0,18.0,1.06271,0.979163
Asian,5,Right,18,Female,Yes,English,B,581,1,4,0,180.0,1.0,1.0,823.682,1.0,580.0,18.0,1.16027,0.804478
Asian,5,Right,18,Female,Yes,English,B,582,1,8,0,0.0,0.0,1.0,880.01,1.0,581.0,18.0,1.10448,0.821008
Asian,5,Right,18,Female,Yes,English,B,583,0,0,16,180.0,1.0,1.0,759.929,1.0,582.0,18.0,1.12372,0.900201
Asian,5,Right,18,Female,Yes,English,B,584,0,0,8,180.0,1.0,1.0,531.711,1.0,583.0,18.0,1.06699,0.801673
Asian,5,Right,18,Female,Yes,English,B,585,1,0,4,180.0,1.0,1.0,595.669,1.0,584.0,18.0,1.12458,0.805688
Asian,5,Right,18,Female,Yes,English,B,586,0,4,4,180.0,1.0,1.0,752.117,1.0,585.0,18.0,1.11073,0.89836
Asian,5,Right,18,Female,Yes,English,B,587,1,16,16,180.0,1.0,1.0,611.966,1.0,586.0,18.0,1.18884,0.959369
Asian,5,Right,18,Female,Yes,English,B,588,1,0,8,0.0,0.0,1.0,633.362,1.0,587.0,18.0,1.02412,0.998427
Asian,5,Right,18,Female,Yes,English,B,589,0,0,0,0.0,0.0,1.0,619.639,1.0,588.0,18.0,1.07233,0.948424
Asian,5,Right,18,Female,Yes,English,B,590,0,16,0,180.0,1.0,1.0,797.256,1.0,589.0,18.0,1.17731,0.930975
Asian,5,Right,18,Female,Yes,English,B,591,0,4,8,180.0,1.0,1.0,714.149,1.0,590.0,18.0,1.01203,0.856277
Asian,5,Right,18,Female,Yes,English,B,592,0,4,0,0.0,0.0,1.0,1010.69,1.0,591.0,18.0,1.05004,0.94869
Asian,5,Right,18,Female,Yes,English,B,593,1,8,4,0.0,0.0,1.0,768.029,1.0,592.0,18.0,1.0842,0.887111
Asian,5,Right,18,Female,Yes,English,B,594,1,16,0,180.0,1.0,1.0,791.391,1.0,593.0,18.0,1.14729,0.951172
Asian,5,Right,18,Female,Yes,English,B,595,1,16,4,0.0,0.0,1.0,621.498,1.0,594.0,18.0,1.01799,0.990382
Asian,5,Right,18,Female,Yes,English,B,596,1,0,0,180.0,1.0,1.0,648.684,1.0,595.0,18.0,1.01941,0.857165
Asian,5,Right,18,Female,Yes,English,B,597,0,8,4,180.0,1.0,1.0,899.131,1.0,596.0,18.0,1.19306,0.990932
Asian,5,Right,18,Female,Yes,English,B,598,0,16,4,0.0,0.0,1.0,929.121,1.0,597.0,18.0,1.0794,0.942409
Asian,5,Right,18,Female,Yes,English,B,599,0,8,0,0.0,0.0,1.0,1016.53,1.0,598.0,18.0,1.07706,0.803083
Asian,5,Right,18,Female,Yes,English,B,600,0,8,16,180.0,1.0,1.0,710.919,1.0,599.0,18.0,1.13513,0.955193
Asian,5,Right,18,Female,Yes,English,B,601,1,4,16,0.0,0.0,1.0,634.142,1.0,600.0,18.0,1.13841,0.841034
Asian,5,Right,18,Female,Yes,English,B,602,0,16,8,180.0,1.0,1.0,636.604,1.0,601.0,18.0,1.13803,0.878749
Asian,5,Right,18,Female,Yes,English,B,603,0,4,16,0.0,0.0,1.0,590.292,1.0,602.0,18.0,1.06651,0.93871
Asian,5,Right,18,Female,Yes,English,B,604,0,16,16,0.0,0.0,1.0,940.808,1.0,603.0,18.0,1.01801,0.889574
Asian,5,Right,18,Female,Yes,English,B,605,1,8,16,0.0,0.0,1.0,626.63,1.0,604.0,18.0,1.03988,0.893107
Asian,5,Right,18,Female,Yes,English,B,606,1,4,4,0.0,0.0,1.0,962.722,1.0,605.0,18.0,1.02763,0.882423
Asian,5,Right,18,Female,Yes,English,B,607,0,0,4,0.0,0.0,1.0,659.028,1.0,606.0,18.0,1.07414,0.815263
Asian,5,Right,18,Female,Yes,English,B,608,1,4,8,0.0,0.0,1.0,502.602,1.0,607.0,18.0,1.10026,0.8288
Asian,5,Right,18,Female,Yes,English,B,609,1,0,16,180.0,1.0,1.0,539.14,1.0,608.0,19.0,1.13343,0.917768
Asian,5,Right,18,Female,Yes,English,B,610,0,16,4,0.0,0.0,1.0,568.853,1.0,609.0,19.0,1.01943,0.933774
Asian,5,Right,18,Female,Yes,English,B,611,0,8,8,180.0,1.0,1.0,992.573,1.0,610.0,19.0,1.09282,0.890179
Asian,5,Right,18,Female,Yes,English,B,612,1,4,16,180.0,1.0,1.0,717.091,1.0,611.0,19.0,1.15453,0.975542
Asian,5,Right,18,Female,Yes,English,B,613,1,8,8,0.0,0.0,1.0,537.044,1.0,612.0,19.0,1.15984,0.910263
Asian,5,Right,18,Female,Yes,English,B,614,1,0,0,0.0,0.0,1.0,575.803,1.0,613.0,19.0,1.00035,0.994767
Asian,5,Right,18,Female,Yes,English,B,615,0,0,8,180.0,1.0,1.0,869.028,1.0,614.0,19.0,1.10199,0.912982
Asian,5,Right,18,Female,Yes,English,B,616,1,4,0,180.0,1.0,1.0,659.781,1.0,615.0,19.0,1.08867,0.860046
Asian,5,Right,18,Female,Yes,English,B,617,1,8,0,0.0,0.0,1.0,794.807,1.0,616.0,19.0,1.02606,0.946925
Asian,5,Right,18,Female,Yes,English,B,618,0,4,8,0.0,0.0,1.0,571.443,1.0,617.0,19.0,1.07424,0.961865
Asian,5,Right,18,Female,Yes,English,B,619,0,8,4,180.0,1.0,1.0,615.158,1.0,618.0,19.0,1.00886,0.926815
Asian,5,Right,18,Female,Yes,English,B,620,0,16,8,180.0,1.0,1.0,935.631,1.0,619.0,19.0,1.06763,0.878382
Asian,5,Right,18,Female,Yes,English,B,621,0,4,0,180.0,1.0,1.0,611.895,1.0,620.0,19.0,1.02878,0.961438
Asian,5,Right,18,Female,Yes,English,B,622,1,0,8,180.0,1.0,1.0,1059.28,1.0,621.0,19.0,1.07347,0.809481
Asian,5,Right,18,Female,Yes,English,B,623,0,0,16,180.0,1.0,1.0,592.533,1.0,622.0,19.0,1.02619,0.865807
Asian,5,Right,18,Female,Yes,English,B,624,0,16,16,180.0,1.0,1.0,669.102,1.0,623.0,19.0,1.01873,0.927595
Asian,5,Right,18,Female,Yes,English,B,625,1,4,8,0.0,0.0,1.0,936.04,1.0,624.0,19.0,1.06222,0.993566
Asian,5,Right,18,Female,Yes,English,B,626,1,16,16,0.0,0.0,1.0,1171.36,1.0,625.0,19.0,1.02648,0.838804
Asian,5,Right,18,Female,Yes,English,B,627,0,0,0,0.0,0.0,1.0,568.115,1.0,626.0,19.0,1.08499,0.949792
Asian,5,Right,18,Female,Yes,English,B,628,0,4,16,0.0,0.0,1.0,485.771,1.0,627.0,19.0,1.11228,0.944782
Asian,5,Right,18,Female,Yes,English,B,629,1,0,4,0.0,0.0,1.0,746.803,1.0,628.0,19.0,1.03407,0.852784
Asian,5,Right,18,Female,Yes,English,B,630,1,8,4,0.0,0.0,1.0,568.232,1.0,629.0,19.0,1.12513,0.874987
Asian,5,Right,18,Female,Yes,English,B,631,0,16,0,180.0,1.0,1.0,760.793,1.0,630.0,19.0,1.06544,0.966468
Asian,5,Right,18,Female,Yes,English,B,632,0,4,4,0.0,0.0,1.0,669.528,1.0,631.0,19.0,1.03262,0.859249
Asian,5,Right,18,Female,Yes,English,B,633,0,0,4,0.0,0.0,1.0,515.285,1.0,632.0,19.0,1.03974,0.879977
Asian,5,Right,18,Female,Yes,English,B,634,0,8,16,0.0,0.0,1.0,656.475,1.0,633.0,19.0,1.16797,0.969938
Asian,5,Right,18,Female,Yes,English,B,635,1,16,0,180.0,1.0,1.0,694.154,1.0,634.0,19.0,1.18186,0.838834
Asian,5,Right,18,Female,Yes,English,B,636,1,16,4,180.0,1.0,1.0,704.737,1.0,635.0,19.0,1.03445,0.881791
Asian,5,Right,18,Female,Yes,English,B,637,1,4,4,0.0,0.0,1.0,533.91,1.0,636.0,19.0,1.03822,0.863115
Asian,5,Right,18,Female,Yes,English,B,638,1,16,8,180.0,0.0,0.0,632.981,1.0,637.0,19.0,1.02891,0.956443
Asian,5,Right,18,Female,Yes,English,B,639,1,8,16,0.0,0.0,1.0,769.431,1.0,638.0,19.0,1.10563,0.984465
Asian,5,Right,18,Female,Yes,English,B,640,0,8,0,180.0,1.0,1.0,582.064,1.0,639.0,19.0,1.08429,0.848444
Asian,5,Right,18,Female,Yes,English,B,641,0,8,4,0.0,0.0,1.0,713.364,1.0,640.0,20.0,1.0777,0.938762
Asian,5,Right,18,Female,Yes,English,B,642,0,4,0,180.0,1.0,1.0,569.658,1.0,641.0,20.0,1.00284,0.915116
Asian,5,Right,18,Female,Yes,English,B,643,0,0,4,0.0,0.0,1.0,850.203,1.0,642.0,20.0,1.14872,0.997899
Asian,5,Right,18,Female,Yes,English,B,644,1,8,0,180.0,1.0,1.0,710.383,1.0,643.0,20.0,1.00081,0.903216
Asian,5,Right,18,Female,Yes,English,B,645,1,16,16,0.0,0.0,1.0,643.118,1.0,644.0,20.0,1.19904,0.896147
Asian,5,Right,18,Female,Yes,English,B,646,0,16,8,0.0,0.0,1.0,930.037,1.0,645.0,20.0,1.02243,0.918841
Asian,5,Right,18,Female,Yes,English,B,647,1,8,4,0.0,0.0,1.0,594.855,1.0,646.0,20.0,1.06517,0.82876
Asian,5,Right,18,Female,Yes,English,B,648,1,4,16,180.0,1.0,1.0,558.151,1.0,647.0,20.0,1.15663,0.934725
Asian,5,Right,18,Female,Yes,English,B,649,1,8,16,0.0,0.0,1.0,777.247,1.0,648.0,20.0,1.13271,0.861801
Asian,5,Right,18,Female,Yes,English,B,650,1,4,0,180.0,1.0,1.0,752.899,1.0,649.0,20.0,1.00752,0.809251
Asian,5,Right,18,Female,Yes,English,B,651,0,16,4,180.0,1.0,1.0,910.701,1.0,650.0,20.0,1.0405,0.809067
Asian,5,Right,18,Female,Yes,English,B,652,1,16,0,0.0,0.0,1.0,673.255,1.0,651.0,20.0,1.19904,0.870588
Asian,5,Right,18,Female,Yes,English,B,653,1,4,4,0.0,0.0,1.0,1440.75,1.0,652.0,20.0,1.10644,0.836741
Asian,5,Right,18,Female,Yes,English,B,654,1,0,8,180.0,1.0,1.0,762.894,1.0,653.0,20.0,1.04978,0.95508
Asian,5,Right,18,Female,Yes,English,B,655,0,4,16,0.0,0.0,1.0,664.537,1.0,654.0,20.0,1.03521,0.884596
Asian,5,Right,18,Female,Yes,English,B,656,0,4,8,180.0,1.0,1.0,553.281,1.0,655.0,20.0,1.0116,0.929389
Asian,5,Right,18,Female,Yes,English,B,657,1,0,16,0.0,0.0,1.0,702.127,1.0,656.0,20.0,1.00637,0.962945
Asian,5,Right,18,Female,Yes,English,B,658,0,16,0,180.0,1.0,1.0,523.019,1.0,657.0,20.0,1.0935,0.880395
Asian,5,Right,18,Female,Yes,English,B,659,0,0,16,0.0,0.0,1.0,694.805,1.0,658.0,20.0,1.09945,0.807563
Asian,5,Right,18,Female,Yes,English,B,660,0,8,16,0.0,0.0,1.0,688.02,1.0,659.0,20.0,1.00411,0.883064
Asian,5,Right,18,Female,Yes,English,B,661,1,4,8,180.0,1.0,1.0,1300.07,1.0,660.0,20.0,1.16653,0.952707
Asian,5,Right,18,Female,Yes,English,B,662,0,8,8,180.0,1.0,1.0,606.128,1.0,661.0,20.0,1.08468,0.880398
Asian,5,Right,18,Female,Yes,English,B,663,0,16,16,180.0,1.0,1.0,553.519,1.0,662.0,20.0,1.11222,0.80262
Asian,5,Right,18,Female,Yes,English,B,664,1,0,0,180.0,1.0,1.0,425.749,1.0,663.0,20.0,1.10844,0.837878
Asian,5,Right,18,Female,Yes,English,B,665,0,0,0,180.0,1.0,1.0,518.704,1.0,664.0,20.0,1.10466,0.951585
Asian,5,Right,18,Female,Yes,English,B,666,1,16,8,180.0,1.0,1.0,473.348,1.0,665.0,20.0,1.05444,0.875958
Asian,5,Right,18,Female,Yes,English,B,667,1,8,8,180.0,1.0,1.0,730.026,1.0,666.0,20.0,1.05954,0.839446
Asian,5,Right,18,Female,Yes,English,B,668,0,0,8,180.0,1.0,1.0,595.965,1.0,667.0,20.0,1.02661,0.888751
Asian,5,Right,18,Female,Yes,English,B,669,0,4,4,0.0,0.0,1.0,806.501,1.0,668.0,20.0,1.10146,0.993787
Asian,5,Right,18,Female,Yes,English,B,670,1,16,4,0.0,0.0,1.0,957.06,1.0,669.0,20.0,1.13147,0.849258
Asian,5,Right,18,Female,Yes,English,B,671,0,8,0,0.0,0.0,1.0,444.088,1.0,670.0,20.0,1.15894,0.998893
Asian,5,Right,18,Female,Yes,English,B,672,1,0,4,0.0,0.0,1.0,584.042,1.0,671.0,20.0,1.0571,0.838251
Asian,5,Right,18,Female,Yes,English,B,673,0,8,4,180.0,1.0,1.0,1615.72,1.0,672.0,21.0,1.05763,0.977601
Asian,5,Right,18,Female,Yes,English,B,674,0,4,0,180.0,1.0,1.0,545.067,1.0,673.0,21.0,1.04276,0.806553
Asian,5,Right,18,Female,Yes,English,B,675,0,16,0,0.0,0.0,1.0,1197.65,1.0,674.0,21.0,1.07566,0.919974
Asian,5,Right,18,Female,Yes,English,B,676,0,4,4,180.0,1.0,1.0,611.52,1.0,675.0,21.0,1.0419,0.962519
Asian,5,Right,18,Female,Yes,English,B,677,0,0,16,180.0,1.0,1.0,501.076,1.0,676.0,21.0,1.11751,0.960349
Asian,5,Right,18,Female,Yes,English,B,678,1,4,16,180.0,1.0,1.0,628.992,1.0,677.0,21.0,1.1411,0.850849
Asian,5,Right,18,Female,Yes,English,B,679,0,16,4,0.0,0.0,1.0,666.807,1.0,678.0,21.0,1.00707,0.840803
Asian,5,Right,18,Female,Yes,English,B,680,0,0,4,0.0,0.0,1.0,591.024,1.0,679.0,21.0,1.18656,0.841172
Asian,5,Right,18,Female,Yes,English,B,681,1,16,4,0.0,0.0,1.0,468.027,1.0,680.0,21.0,1.02628,0.850888
Asian,5,Right,18,Female,Yes,English,B,682,1,0,4,0.0,0.0,1.0,747.824,1.0,681.0,21.0,1.15985,0.930143
Asian,5,Right,18,Female,Yes,English,B,683,0,4,8,180.0,1.0,1.0,643.118,1.0,682.0,21.0,1.07751,0.90688
Asian,5,Right,18,Female,Yes,English,B,684,0,8,0,0.0,0.0,1.0,648.263,1.0,683.0,21.0,1.143,0.887206
Asian,5,Right,18,Female,Yes,English,B,685,1,4,8,0.0,0.0,1.0,880.153,1.0,684.0,21.0,1.19763,0.897885
Asian,5,Right,18,Female,Yes,English,B,686,0,0,8,0.0,0.0,1.0,675.229,1.0,685.0,21.0,1.19176,0.960974
Asian,5,Right,18,Female,Yes,English,B,687,1,16,0,0.0,0.0,1.0,1085.12,1.0,686.0,21.0,1.00895,0.825586
Asian,5,Right,18,Female,Yes,English,B,688,1,4,4,180.0,1.0,1.0,924.092,1.0,687.0,21.0,1.10688,0.957662
Asian,5,Right,18,Female,Yes,English,B,689,0,8,16,0.0,0.0,1.0,640.62,1.0,688.0,21.0,1.10312,0.972564
Asian,5,Right,18,Female,Yes,English,B,690,1,8,8,0.0,0.0,1.0,857.988,1.0,689.0,21.0,1.08827,0.871957
Asian,5,Right,18,Female,Yes,English,B,691,1,8,0,180.0,1.0,1.0,813.319,1.0,690.0,21.0,1.15813,0.963038
Asian,5,Right,18,Female,Yes,English,B,692,0,0,0,0.0,0.0,1.0,508.727,1.0,691.0,21.0,1.06859,0.988404
Asian,5,Right,18,Female,Yes,English,B,693,1,8,4,180.0,1.0,1.0,956.356,1.0,692.0,21.0,1.03279,0.800809
Asian,5,Right,18,Female,Yes,English,B,694,1,0,0,0.0,0.0,1.0,605.773,1.0,693.0,21.0,1.09051,0.889048
Asian,5,Right,18,Female,Yes,English,B,695,0,8,8,0.0,0.0,1.0,474.995,1.0,694.0,21.0,1.13136,0.805177
Asian,5,Right,18,Female,Yes,English,B,696,1,0,8,180.0,1.0,1.0,1055.33,1.0,695.0,21.0,1.07239,0.900946
Asian,5,Right,18,Female,Yes,English,B,697,1,16,16,180.0,1.0,1.0,931.925,1.0,696.0,21.0,1.00995,0.866698
Asian,5,Right,18,Female,Yes,English,B,698,0,16,8,180.0,1.0,1.0,1045.38,1.0,697.0,21.0,1.04404,0.96184
Asian,5,Right,18,Female,Yes,English,B,699,0,4,16,180.0,1.0,1.0,726.735,1.0,698.0,21.0,1.08888,0.85571
Asian,5,Right,18,Female,Yes,English,B,700,0,16,16,0.0,0.0,1.0,773.485,1.0,699.0,21.0,1.05163,0.938933
Asian,5,Right,18,Female,Yes,English,B,701,1,8,16,0.0,0.0,1.0,1000.6,1.0,700.0,21.0,1.13359,0.951253
Asian,5,Right,18,Female,Yes,English,B,702,1,16,8,180.0,1.0,1.0,552.669,1.0,701.0,21.0,1.00262,0.833355
Asian,5,Right,18,Female,Yes,English,B,703,1,0,16,180.0,1.0,1.0,470.32,1.0,702.0,21.0,1.01458,0.859671
Asian,5,Right,18,Female,Yes,English,B,704,1,4,0,180.0,1.0,1.0,952.151,1.0,703.0,21.0,1.17228,0.843376
Asian,5,Right,18,Female,Yes,English,B,705,1,4,4,180.0,1.0,1.0,766.979,1.0,704.0,22.0,1.11186,0.907991
Asian,5,Right,18,Female,Yes,English,B,706,1,4,0,180.0,1.0,1.0,601.33,1.0,705.0,22.0,1.02776,0.835359
Asian,5,Right,18,Female,Yes,English,B,707,1,16,8,180.0,1.0,1.0,814.239,1.0,706.0,22.0,1.08208,0.886047
Asian,5,Right,18,Female,Yes,English,B,708,1,16,0,180.0,1.0,1.0,548.752,1.0,707.0,22.0,1.09944,0.867816
Asian,5,Right,18,Female,Yes,English,B,709,0,8,16,180.0,1.0,1.0,677.018,1.0,708.0,22.0,1.03822,0.843946
Asian,5,Right,18,Female,Yes,English,B,710,1,8,8,0.0,0.0,1.0,741.846,1.0,709.0,22.0,1.1236,0.862517
Asian,5,Right,18,Female,Yes,English,B,711,0,16,8,180.0,1.0,1.0,627.742,1.0,710.0,22.0,1.16229,0.855373
Asian,5,Right,18,Female,Yes,English,B,712,1,4,16,0.0,0.0,1.0,712.759,1.0,711.0,22.0,1.02048,0.841593
Asian,5,Right,18,Female,Yes,English,B,713,1,8,0,180.0,1.0,1.0,715.03,1.0,712.0,22.0,1.02956,0.929854
Asian,5,Right,18,Female,Yes,English,B,714,0,16,0,180.0,1.0,1.0,628.414,1.0,713.0,22.0,1.07279,0.918277
Asian,5,Right,18,Female,Yes,English,B,715,0,0,8,180.0,1.0,1.0,629.058,1.0,714.0,22.0,1.07127,0.917493
Asian,5,Right,18,Female,Yes,English,B,716,1,0,16,180.0,1.0,1.0,563.859,1.0,715.0,22.0,1.02463,0.925896
Asian,5,Right,18,Female,Yes,English,B,717,0,8,4,0.0,0.0,1.0,961.017,1.0,716.0,22.0,1.15451,0.900693
Asian,5,Right,18,Female,Yes,English,B,718,1,4,8,0.0,0.0,1.0,690.859,1.0,717.0,22.0,1.03915,0.869
Asian,5,Right,18,Female,Yes,English,B,719,0,0,4,0.0,0.0,1.0,985.705,1.0,718.0,22.0,1.02548,0.85726
Asian,5,Right,18,Female,Yes,English,B,720,1,0,0,0.0,0.0,1.0,547.772,1.0,719.0,22.0,1.00321,0.978102
Asian,5,Right,18,Female,Yes,English,B,721,1,0,4,180.0,1.0,1.0,828.908,1.0,720.0,22.0,1.01197,0.803333
Asian,5,Right,18,Female,Yes,English,B,722,0,4,4,0.0,0.0,1.0,1526.53,1.0,721.0,22.0,1.01843,0.980586
Asian,5,Right,18,Female,Yes,English,B,723,1,16,4,0.0,0.0,1.0,879.904,1.0,722.0,22.0,1.08898,0.89671
Asian,5,Right,18,Female,Yes,English,B,724,0,4,8,180.0,1.0,1.0,1010.76,1.0,723.0,22.0,1.10288,0.806858
Asian,5,Right,18,Female,Yes,English,B,725,1,16,16,0.0,0.0,1.0,615.659,1.0,724.0,22.0,1.10999,0.864053
Asian,5,Right,18,Female,Yes,English,B,726,0,16,16,180.0,1.0,1.0,718.162,1.0,725.0,22.0,1.04919,0.918007
Asian,5,Right,18,Female,Yes,English,B,727,0,0,16,0.0,0.0,1.0,691.977,1.0,726.0,22.0,1.04454,0.9
Asian,5,Right,18,Female,Yes,English,B,728,0,16,4,180.0,1.0,1.0,719.114,1.0,727.0,22.0,1.16086,0.942099
Asian,5,Right,18,Female,Yes,English,B,729,0,8,0,0.0,0.0,1.0,721.22,1.0,728.0,22.0,1.12888,0.965798
Asian,5,Right,18,Female,Yes,English,B,730,0,4,16,0.0,0.0,1.0,639.564,1.0,729.0,22.0,1.09297,0.89285
Asian,5,Right,18,Female,Yes,English,B,731,1,8,4,0.0,0.0,1.0,931.806,1.0,730.0,22.0,1.14867,0.973023
Asian,5,Right,18,Female,Yes,English,B,732,0,4,0,0.0,0.0,1.0,537.471,1.0,731.0,22.0,1.02348,0.803936
Asian,5,Right,18,Female,Yes,English,B,733,0,0,0,0.0,0.0,1.0,596.752,1.0,732.0,22.0,1.19597,0.855739
Asian,5,Right,18,Female,Yes,English,B,734,0,8,8,180.0,1.0,1.0,837.26,1.0,733.0,22.0,1.18018,0.879149
Asian,5,Right,18,Female,Yes,English,B,735,1,8,16,180.0,1.0,1.0,1137.02,1.0,734.0,22.0,1.13816,0.945578
Asian,5,Right,18,Female,Yes,English,B,736,1,0,8,0.0,0.0,1.0,736.047,1.0,735.0,22.0,1.01075,0.971344
Asian,5,Right,18,Female,Yes,English,B,737,0,0,4,180.0,1.0,1.0,956.428,1.0,736.0,23.0,1.05512,0.827146
Asian,5,Right,18,Female,Yes,English,B,738,1,4,0,0.0,0.0,1.0,622.628,1.0,737.0,23.0,1.01011,0.899979
Asian,5,Right,18,Female,Yes,English,B,739,0,4,0,180.0,1.0,1.0,949.662,1.0,738.0,23.0,1.02423,0.801968
Asian,5,Right,18,Female,Yes,English,B,740,1,4,16,180.0,1.0,1.0,819.454,1.0,739.0,23.0,1.17111,0.992141
Asian,5,Right,18,Female,Yes,English,B,741,1,0,16,180.0,1.0,1.0,609.915,1.0,740.0,23.0,1.0786,0.872695
Asian,5,Right,18,Female,Yes,English,B,742,1,8,4,0.0,0.0,1.0,930.545,1.0,741.0,23.0,1.19263,0.881486
Asian,5,Right,18,Female,Yes,English,B,743,0,16,4,0.0,0.0,1.0,766.136,1.0,742.0,23.0,1.01887,0.822321
Asian,5,Right,18,Female,Yes,English,B,744,0,0,16,180.0,1.0,1.0,663.862,1.0,743.0,23.0,1.11294,0.896349
Asian,5,Right,18,Female,Yes,English,B,745,1,8,16,0.0,0.0,1.0,666.054,1.0,744.0,23.0,1.09148,0.904307
Asian,5,Right,18,Female,Yes,English,B,746,1,16,8,0.0,0.0,1.0,631.32,1.0,745.0,23.0,1.13918,0.888354
Asian,5,Right,18,Female,Yes,English,B,747,0,16,0,180.0,1.0,1.0,1229.3,1.0,746.0,23.0,1.10012,0.874805
Asian,5,Right,18,Female,Yes,English,B,748,1,8,8,180.0,1.0,1.0,601.339,1.0,747.0,23.0,1.16662,0.916722
Asian,5,Right,18,Female,Yes,English,B,749,0,8,8,0.0,0.0,1.0,857.033,1.0,748.0,23.0,1.18539,0.901826
Asian,5,Right,18,Female,Yes,English,B,750,1,16,4,180.0,1.0,1.0,525.227,1.0,749.0,23.0,1.05886,0.83554
Asian,5,Right,18,Female,Yes,English,B,751,0,0,0,180.0,1.0,1.0,479.644,1.0,750.0,23.0,1.15106,0.929073
Asian,5,Right,18,Female,Yes,English,B,752,1,0,0,180.0,1.0,1.0,504.389,1.0,751.0,23.0,1.0893,0.852285
Asian,5,Right,18,Female,Yes,English,B,753,0,16,8,180.0,1.0,1.0,932.318,1.0,752.0,23.0,1.19284,0.877357
Asian,5,Right,18,Female,Yes,English,B,754,0,4,4,0.0,0.0,1.0,947.667,1.0,753.0,23.0,1.19914,0.886876
Asian,5,Right,18,Female,Yes,English,B,755,1,16,16,180.0,1.0,1.0,543.286,1.0,754.0,23.0,1.13381,0.810045
Asian,5,Right,18,Female,Yes,English,B,756,0,8,0,0.0,0.0,1.0,616.361,1.0,755.0,23.0,1.01503,0.900371
Asian,5,Right,18,Female,Yes,English,B,757,1,4,8,0.0,0.0,1.0,620.128,1.0,756.0,23.0,1.07674,0.946916
Asian,5,Right,18,Female,Yes,English,B,758,0,4,8,180.0,1.0,1.0,763.962,1.0,757.0,23.0,1.1352,0.939923
Asian,5,Right,18,Female,Yes,English,B,759,0,8,16,0.0,0.0,1.0,638.225,1.0,758.0,23.0,1.12858,0.996661
Asian,5,Right,18,Female,Yes,English,B,760,1,4,4,0.0,0.0,1.0,583.999,1.0,759.0,23.0,1.00449,0.958183
Asian,5,Right,18,Female,Yes,English,B,761,1,0,8,180.0,1.0,1.0,599.467,1.0,760.0,23.0,1.0386,0.923186
Asian,5,Right,18,Female,Yes,English,B,762,1,8,0,0.0,0.0,1.0,701.193,1.0,761.0,23.0,1.07021,0.986695
Asian,5,Right,18,Female,Yes,English,B,763,1,0,4,0.0,0.0,1.0,655.142,1.0,762.0,23.0,1.1911,0.866542
Asian,5,Right,18,Female,Yes,English,B,764,1,16,0,180.0,1.0,1.0,637.21,1.0,763.0,23.0,1.06151,0.99341
Asian,5,Right,18,Female,Yes,English,B,765,0,4,16,0.0,0.0,1.0,1785.46,1.0,764.0,23.0,1.15007,0.939961
Asian,5,Right,18,Female,Yes,English,B,766,0,16,16,0.0,0.0,1.0,694.987,1.0,765.0,23.0,1.055,0.964461
Asian,5,Right,18,Female,Yes,English,B,767,0,0,8,0.0,0.0,1.0,522.897,1.0,766.0,23.0,1.03826,0.876573
Asian,5,Right,18,Female,Yes,English,B,768,0,8,4,180.0,1.0,1.0,646.001,1.0,767.0,23.0,1.1659,0.836107
