Ethnicity,Subject Number,Preferred Hand,Age,Gender,Color blind,First Language,Room,TrialNumber,background,turtles,tortoises,target_id,resp,hit,rt,ran,order,block,iti,fix_duration
African American,14,Right,20,Female,Yes,English,A,1,0,16,0,180.0,1.0,1.0,1144.19,1.0,0.0,0.0,1.13798,0.833807
African American,14,Right,20,Female,Yes,English,A,2,1,16,8,180.0,1.0,1.0,1100.62,1.0,1.0,0.0,1.05571,0.86364
African American,14,Right,20,Female,Yes,English,A,3,1,0,16,180.0,1.0,1.0,1433.62,1.0,2.0,0.0,1.01156,0.871196
African American,14,Right,20,Female,Yes,English,A,4,1,4,16,180.0,1.0,1.0,1307.67,1.0,3.0,0.0,1.1085,0.97073
African American,14,Right,20,Female,Yes,English,A,5,0,0,0,0.0,0.0,1.0,918.984,1.0,4.0,0.0,1.19251,0.986547
African American,14,Right,20,Female,Yes,English,A,6,1,16,16,180.0,1.0,1.0,1186.8,1.0,5.0,0.0,1.05554,0.896944
African American,14,Right,20,Female,Yes,English,A,7,1,4,0,180.0,1.0,1.0,596.71,1.0,6.0,0.0,1.19493,0.943162
African American,14,Right,20,Female,Yes,English,A,8,0,4,16,180.0,1.0,1.0,699.65,1.0,7.0,0.0,1.00285,0.936934
African American,14,Right,20,Female,Yes,English,A,9,1,4,8,0.0,0.0,1.0,1054.32,1.0,8.0,0.0,1.12546,0.815683
African American,14,Right,20,Female,Yes,English,A,10,0,4,4,0.0,0.0,1.0,741.646,1.0,9.0,0.0,1.1667,0.930259
African American,14,Right,20,Female,Yes,English,A,11,1,8,16,0.0,0.0,1.0,548.053,1.0,10.0,0.0,1.03584,0.930393
African American,14,Right,20,Female,Yes,English,A,12,1,0,0,0.0,0.0,1.0,710.666,1.0,11.0,0.0,1.00875,0.840054
African American,14,Right,20,Female,Yes,English,A,13,1,8,0,180.0,1.0,1.0,1011.7,1.0,12.0,0.0,1.1374,0.827647
African American,14,Right,20,Female,Yes,English,A,14,1,8,8,0.0,0.0,1.0,1925.74,1.0,13.0,0.0,1.11645,0.833978
African American,14,Right,20,Female,Yes,English,A,15,0,16,16,0.0,0.0,1.0,1195.25,1.0,14.0,0.0,1.10642,0.95402
African American,14,Right,20,Female,Yes,English,A,16,0,4,0,0.0,0.0,1.0,748.824,1.0,15.0,0.0,1.14951,0.968312
African American,14,Right,20,Female,Yes,English,A,17,1,16,0,180.0,1.0,1.0,782.073,1.0,16.0,0.0,1.03932,0.812181
African American,14,Right,20,Female,Yes,English,A,18,1,16,4,0.0,0.0,1.0,1053.02,1.0,17.0,0.0,1.02677,0.893584
African American,14,Right,20,Female,Yes,English,A,19,1,4,4,0.0,0.0,1.0,1170.0,1.0,18.0,0.0,1.01655,0.80637
African American,14,Right,20,Female,Yes,English,A,20,0,8,0,0.0,0.0,1.0,748.863,1.0,19.0,0.0,1.0136,0.996492
African American,14,Right,20,Female,Yes,English,A,21,0,8,4,180.0,0.0,0.0,742.122,1.0,20.0,0.0,1.00641,0.888664
African American,14,Right,20,Female,Yes,English,A,22,0,0,16,0.0,0.0,1.0,783.038,1.0,21.0,0.0,1.06249,0.881222
African American,14,Right,20,Female,Yes,English,A,23,0,8,8,180.0,1.0,1.0,765.912,1.0,22.0,0.0,1.02966,0.939081
African American,14,Right,20,Female,Yes,English,A,24,0,4,8,0.0,0.0,1.0,803.974,1.0,23.0,0.0,1.17058,0.846845
African American,14,Right,20,Female,Yes,English,A,25,1,0,4,180.0,1.0,1.0,1251.34,1.0,24.0,0.0,1.07477,0.834872
African American,14,Right,20,Female,Yes,English,A,26,1,0,8,180.0,1.0,1.0,1180.62,1.0,25.0,0.0,1.13412,0.922081
African American,14,Right,20,Female,Yes,English,A,27,0,16,8,0.0,0.0,1.0,1010.35,1.0,26.0,0.0,1.13313,0.943123
African American,14,Right,20,Female,Yes,English,A,28,1,8,4,180.0,1.0,1.0,1358.09,1.0,27.0,0.0,1.16058,0.874611
African American,14,Right,20,Female,Yes,English,A,29,0,0,8,0.0,0.0,1.0,778.136,1.0,28.0,0.0,1.10436,0.923198
African American,14,Right,20,Female,Yes,English,A,30,0,0,4,0.0,0.0,1.0,955.773,1.0,29.0,0.0,1.00417,0.924506
African American,14,Right,20,Female,Yes,English,A,31,0,16,4,180.0,1.0,1.0,895.328,1.0,30.0,0.0,1.03904,0.883098
African American,14,Right,20,Female,Yes,English,A,32,0,8,16,180.0,1.0,1.0,1221.33,1.0,31.0,0.0,1.08869,0.937478
African American,14,Right,20,Female,Yes,English,A,33,1,4,4,180.0,1.0,1.0,855.422,1.0,32.0,1.0,1.03938,0.884874
African American,14,Right,20,Female,Yes,English,A,34,1,4,0,180.0,1.0,1.0,897.073,1.0,33.0,1.0,1.11429,0.887386
African American,14,Right,20,Female,Yes,English,A,35,0,8,0,180.0,1.0,1.0,681.979,1.0,34.0,1.0,1.07369,0.978662
African American,14,Right,20,Female,Yes,English,A,36,1,16,8,0.0,0.0,1.0,878.662,1.0,35.0,1.0,1.12029,0.939603
African American,14,Right,20,Female,Yes,English,A,37,0,16,4,180.0,1.0,1.0,1047.51,1.0,36.0,1.0,1.05802,0.963045
African American,14,Right,20,Female,Yes,English,A,38,0,0,16,0.0,0.0,1.0,1429.39,1.0,37.0,1.0,1.02722,0.84876
African American,14,Right,20,Female,Yes,English,A,39,0,8,4,180.0,1.0,1.0,800.984,1.0,38.0,1.0,1.09039,0.95873
African American,14,Right,20,Female,Yes,English,A,40,0,4,16,0.0,0.0,1.0,1225.73,1.0,39.0,1.0,1.18235,0.973243
African American,14,Right,20,Female,Yes,English,A,41,0,8,16,0.0,0.0,1.0,887.013,1.0,40.0,1.0,1.12599,0.826957
African American,14,Right,20,Female,Yes,English,A,42,1,8,4,180.0,1.0,1.0,782.777,1.0,41.0,1.0,1.1367,0.862984
African American,14,Right,20,Female,Yes,English,A,43,1,4,8,0.0,0.0,1.0,1559.44,1.0,42.0,1.0,1.10697,0.851234
African American,14,Right,20,Female,Yes,English,A,44,0,16,8,0.0,0.0,1.0,689.838,1.0,43.0,1.0,1.03813,0.87469
African American,14,Right,20,Female,Yes,English,A,45,1,16,4,0.0,0.0,1.0,1541.71,1.0,44.0,1.0,1.14406,0.834484
African American,14,Right,20,Female,Yes,English,A,46,1,0,4,180.0,1.0,1.0,868.293,1.0,45.0,1.0,1.15089,0.924381
African American,14,Right,20,Female,Yes,English,A,47,1,16,16,0.0,0.0,1.0,1753.15,1.0,46.0,1.0,1.19784,0.889231
African American,14,Right,20,Female,Yes,English,A,48,0,8,8,180.0,1.0,1.0,736.157,1.0,47.0,1.0,1.00935,0.926758
African American,14,Right,20,Female,Yes,English,A,49,1,8,16,180.0,1.0,1.0,781.714,1.0,48.0,1.0,1.13343,0.902504
African American,14,Right,20,Female,Yes,English,A,50,0,0,0,0.0,0.0,1.0,786.73,1.0,49.0,1.0,1.07837,0.975365
African American,14,Right,20,Female,Yes,English,A,51,0,4,0,0.0,0.0,1.0,923.789,1.0,50.0,1.0,1.02553,0.973088
African American,14,Right,20,Female,Yes,English,A,52,0,4,8,0.0,0.0,1.0,756.388,1.0,51.0,1.0,1.08814,0.867541
African American,14,Right,20,Female,Yes,English,A,53,0,0,4,0.0,0.0,1.0,1343.7,1.0,52.0,1.0,1.0944,0.959946
African American,14,Right,20,Female,Yes,English,A,54,1,16,0,0.0,0.0,1.0,1050.57,1.0,53.0,1.0,1.05837,0.924279
African American,14,Right,20,Female,Yes,English,A,55,1,0,0,180.0,1.0,1.0,743.87,1.0,54.0,1.0,1.16731,0.939318
African American,14,Right,20,Female,Yes,English,A,56,1,4,16,180.0,1.0,1.0,1637.35,1.0,55.0,1.0,1.15166,0.975065
African American,14,Right,20,Female,Yes,English,A,57,0,4,4,180.0,1.0,1.0,1160.73,1.0,56.0,1.0,1.02667,0.970281
African American,14,Right,20,Female,Yes,English,A,58,0,0,8,0.0,0.0,1.0,1019.58,1.0,57.0,1.0,1.14548,0.997481
African American,14,Right,20,Female,Yes,English,A,59,0,16,0,0.0,0.0,1.0,1010.37,1.0,58.0,1.0,1.14772,0.91513
African American,14,Right,20,Female,Yes,English,A,60,1,0,16,0.0,0.0,1.0,962.217,1.0,59.0,1.0,1.09208,0.818961
African American,14,Right,20,Female,Yes,English,A,61,1,0,8,180.0,1.0,1.0,931.125,1.0,60.0,1.0,1.08514,0.980885
African American,14,Right,20,Female,Yes,English,A,62,1,8,8,180.0,1.0,1.0,860.001,1.0,61.0,1.0,1.10426,0.847447
African American,14,Right,20,Female,Yes,English,A,63,1,8,0,180.0,1.0,1.0,897.41,1.0,62.0,1.0,1.11262,0.898238
African American,14,Right,20,Female,Yes,English,A,64,0,16,16,180.0,1.0,1.0,1951.51,1.0,63.0,1.0,1.10837,0.869838
African American,14,Right,20,Female,Yes,English,A,65,1,16,4,0.0,0.0,1.0,520.443,1.0,64.0,2.0,1.1669,0.898787
African American,14,Right,20,Female,Yes,English,A,66,1,16,0,180.0,1.0,1.0,1348.02,1.0,65.0,2.0,1.17115,0.913323
African American,14,Right,20,Female,Yes,English,A,67,0,8,0,180.0,1.0,1.0,1218.98,1.0,66.0,2.0,1.17743,0.975067
African American,14,Right,20,Female,Yes,English,A,68,1,8,8,180.0,1.0,1.0,899.126,1.0,67.0,2.0,1.09205,0.981866
African American,14,Right,20,Female,Yes,English,A,69,1,4,4,0.0,0.0,1.0,1089.02,1.0,68.0,2.0,1.19894,0.8043
African American,14,Right,20,Female,Yes,English,A,70,1,0,8,0.0,0.0,1.0,833.11,1.0,69.0,2.0,1.11772,0.961626
African American,14,Right,20,Female,Yes,English,A,71,0,8,4,180.0,1.0,1.0,755.889,1.0,70.0,2.0,1.18941,0.866986
African American,14,Right,20,Female,Yes,English,A,72,1,0,0,180.0,1.0,1.0,725.869,1.0,71.0,2.0,1.15073,0.941715
African American,14,Right,20,Female,Yes,English,A,73,1,8,0,0.0,0.0,1.0,1317.1,1.0,72.0,2.0,1.1061,0.829199
African American,14,Right,20,Female,Yes,English,A,74,1,16,8,0.0,0.0,1.0,1165.14,1.0,73.0,2.0,1.09587,0.993185
African American,14,Right,20,Female,Yes,English,A,75,1,16,16,180.0,1.0,1.0,1322.95,1.0,74.0,2.0,1.02866,0.88822
African American,14,Right,20,Female,Yes,English,A,76,0,0,8,180.0,1.0,1.0,544.901,1.0,75.0,2.0,1.19248,0.833342
African American,14,Right,20,Female,Yes,English,A,77,1,4,8,0.0,0.0,1.0,793.846,1.0,76.0,2.0,1.17119,0.995176
African American,14,Right,20,Female,Yes,English,A,78,0,4,8,0.0,0.0,1.0,1024.24,1.0,77.0,2.0,1.10373,0.848565
African American,14,Right,20,Female,Yes,English,A,79,0,4,4,0.0,0.0,1.0,643.124,1.0,78.0,2.0,1.12623,0.86101
African American,14,Right,20,Female,Yes,English,A,80,0,4,16,180.0,1.0,1.0,600.25,1.0,79.0,2.0,1.14662,0.966829
African American,14,Right,20,Female,Yes,English,A,81,1,4,16,0.0,0.0,1.0,875.816,1.0,80.0,2.0,1.02911,0.850699
African American,14,Right,20,Female,Yes,English,A,82,1,8,16,180.0,1.0,1.0,900.458,1.0,81.0,2.0,1.18447,0.848396
African American,14,Right,20,Female,Yes,English,A,83,0,0,4,180.0,1.0,1.0,722.977,1.0,82.0,2.0,1.15031,0.990914
African American,14,Right,20,Female,Yes,English,A,84,0,0,16,0.0,0.0,1.0,1401.81,1.0,83.0,2.0,1.1324,0.999674
African American,14,Right,20,Female,Yes,English,A,85,0,8,8,0.0,0.0,1.0,1148.37,1.0,84.0,2.0,1.18544,0.869656
African American,14,Right,20,Female,Yes,English,A,86,0,16,8,180.0,1.0,1.0,935.454,1.0,85.0,2.0,1.06841,0.84848
African American,14,Right,20,Female,Yes,English,A,87,1,8,4,180.0,1.0,1.0,941.642,1.0,86.0,2.0,1.02223,0.945444
African American,14,Right,20,Female,Yes,English,A,88,0,16,16,0.0,0.0,1.0,1058.95,1.0,87.0,2.0,1.16138,0.963002
African American,14,Right,20,Female,Yes,English,A,89,0,4,0,180.0,1.0,1.0,708.575,1.0,88.0,2.0,1.12469,0.853256
African American,14,Right,20,Female,Yes,English,A,90,1,0,4,0.0,0.0,1.0,1140.52,1.0,89.0,2.0,1.1647,0.909186
African American,14,Right,20,Female,Yes,English,A,91,0,16,4,180.0,1.0,1.0,1245.76,1.0,90.0,2.0,1.08005,0.920494
African American,14,Right,20,Female,Yes,English,A,92,1,4,0,0.0,0.0,1.0,992.359,1.0,91.0,2.0,1.09532,0.898771
African American,14,Right,20,Female,Yes,English,A,93,0,8,16,0.0,0.0,1.0,1175.66,1.0,92.0,2.0,1.02715,0.943976
African American,14,Right,20,Female,Yes,English,A,94,0,16,0,180.0,1.0,1.0,789.918,1.0,93.0,2.0,1.01737,0.83291
African American,14,Right,20,Female,Yes,English,A,95,1,0,16,0.0,0.0,1.0,903.242,1.0,94.0,2.0,1.03072,0.986143
African American,14,Right,20,Female,Yes,English,A,96,0,0,0,180.0,1.0,1.0,639.699,1.0,95.0,2.0,1.19675,0.829086
African American,14,Right,20,Female,Yes,English,A,97,0,16,8,180.0,1.0,1.0,720.099,1.0,96.0,3.0,1.03368,0.977888
African American,14,Right,20,Female,Yes,English,A,98,1,0,0,0.0,0.0,1.0,685.231,1.0,97.0,3.0,1.01135,0.849345
African American,14,Right,20,Female,Yes,English,A,99,1,16,8,0.0,0.0,1.0,1592.66,1.0,98.0,3.0,1.02504,0.842275
African American,14,Right,20,Female,Yes,English,A,100,0,8,8,180.0,1.0,1.0,1491.1,1.0,99.0,3.0,1.06408,0.871812
African American,14,Right,20,Female,Yes,English,A,101,0,16,4,180.0,1.0,1.0,623.18,1.0,100.0,3.0,1.11739,0.871769
African American,14,Right,20,Female,Yes,English,A,102,0,0,16,0.0,0.0,1.0,966.11,1.0,101.0,3.0,1.00115,0.969991
African American,14,Right,20,Female,Yes,English,A,103,1,4,16,180.0,1.0,1.0,886.403,1.0,102.0,3.0,1.04394,0.816831
African American,14,Right,20,Female,Yes,English,A,104,1,4,4,180.0,1.0,1.0,619.948,1.0,103.0,3.0,1.05581,0.989951
African American,14,Right,20,Female,Yes,English,A,105,0,16,16,0.0,0.0,1.0,1071.82,1.0,104.0,3.0,1.06378,0.844949
African American,14,Right,20,Female,Yes,English,A,106,1,4,8,180.0,1.0,1.0,1277.76,1.0,105.0,3.0,1.08509,0.84896
African American,14,Right,20,Female,Yes,English,A,107,0,8,4,180.0,1.0,1.0,1258.55,1.0,106.0,3.0,1.12154,0.86341
African American,14,Right,20,Female,Yes,English,A,108,0,4,8,0.0,0.0,1.0,1469.1,1.0,107.0,3.0,1.1709,0.873093
African American,14,Right,20,Female,Yes,English,A,109,1,16,4,0.0,0.0,1.0,642.682,1.0,108.0,3.0,1.02901,0.91039
African American,14,Right,20,Female,Yes,English,A,110,1,8,4,0.0,0.0,1.0,1161.59,1.0,109.0,3.0,1.1838,0.915453
African American,14,Right,20,Female,Yes,English,A,111,0,4,16,0.0,1.0,0.0,1049.93,1.0,110.0,3.0,1.15102,0.852341
African American,14,Right,20,Female,Yes,English,A,112,1,0,16,180.0,1.0,1.0,1218.86,1.0,111.0,3.0,1.08312,0.926193
African American,14,Right,20,Female,Yes,English,A,113,1,4,0,180.0,1.0,1.0,934.001,1.0,112.0,3.0,1.11542,0.894545
African American,14,Right,20,Female,Yes,English,A,114,1,0,4,180.0,1.0,1.0,725.787,1.0,113.0,3.0,1.09801,0.98579
African American,14,Right,20,Female,Yes,English,A,115,1,8,16,180.0,1.0,1.0,663.045,1.0,114.0,3.0,1.09595,0.817149
African American,14,Right,20,Female,Yes,English,A,116,1,8,8,180.0,1.0,1.0,1135.76,1.0,115.0,3.0,1.18329,0.990303
African American,14,Right,20,Female,Yes,English,A,117,0,0,8,0.0,0.0,1.0,1613.72,1.0,116.0,3.0,1.12401,0.827661
African American,14,Right,20,Female,Yes,English,A,118,0,4,0,180.0,1.0,1.0,918.484,1.0,117.0,3.0,1.00974,0.897217
African American,14,Right,20,Female,Yes,English,A,119,0,0,0,0.0,0.0,1.0,694.253,1.0,118.0,3.0,1.18054,0.957511
African American,14,Right,20,Female,Yes,English,A,120,1,8,0,0.0,0.0,1.0,1240.68,1.0,119.0,3.0,1.1283,0.835309
African American,14,Right,20,Female,Yes,English,A,121,0,8,16,180.0,1.0,1.0,996.553,1.0,120.0,3.0,1.0912,0.99582
African American,14,Right,20,Female,Yes,English,A,122,1,16,0,0.0,0.0,1.0,1127.32,1.0,121.0,3.0,1.19624,0.862654
African American,14,Right,20,Female,Yes,English,A,123,1,16,16,0.0,0.0,1.0,539.498,1.0,122.0,3.0,1.10048,0.855042
African American,14,Right,20,Female,Yes,English,A,124,0,16,0,180.0,1.0,1.0,928.312,1.0,123.0,3.0,1.0016,0.834147
African American,14,Right,20,Female,Yes,English,A,125,0,8,0,180.0,1.0,1.0,904.713,1.0,124.0,3.0,1.08441,0.824285
African American,14,Right,20,Female,Yes,English,A,126,0,0,4,0.0,0.0,1.0,591.034,1.0,125.0,3.0,1.13292,0.861375
African American,14,Right,20,Female,Yes,English,A,127,0,4,4,0.0,0.0,1.0,727.735,1.0,126.0,3.0,1.14417,0.996888
African American,14,Right,20,Female,Yes,English,A,128,1,0,8,0.0,0.0,1.0,832.949,1.0,127.0,3.0,1.08005,0.870073
African American,14,Right,20,Female,Yes,English,A,129,0,0,0,0.0,0.0,1.0,546.735,1.0,128.0,4.0,1.07366,0.91676
African American,14,Right,20,Female,Yes,English,A,130,1,8,16,180.0,1.0,1.0,1292.99,1.0,129.0,4.0,1.0227,0.865922
African American,14,Right,20,Female,Yes,English,A,131,0,0,8,0.0,0.0,1.0,1077.63,1.0,130.0,4.0,1.15326,0.842637
African American,14,Right,20,Female,Yes,English,A,132,1,0,0,0.0,0.0,1.0,689.226,1.0,131.0,4.0,1.08855,0.993925
African American,14,Right,20,Female,Yes,English,A,133,1,16,16,0.0,0.0,1.0,1012.57,1.0,132.0,4.0,1.14579,0.969348
African American,14,Right,20,Female,Yes,English,A,134,1,0,8,0.0,0.0,1.0,474.997,1.0,133.0,4.0,1.01491,0.850264
African American,14,Right,20,Female,Yes,English,A,135,0,0,16,180.0,1.0,1.0,586.068,1.0,134.0,4.0,1.03726,0.850886
African American,14,Right,20,Female,Yes,English,A,136,0,16,0,180.0,1.0,1.0,1281.8,1.0,135.0,4.0,1.0193,0.921274
African American,14,Right,20,Female,Yes,English,A,137,0,4,16,180.0,1.0,1.0,677.592,1.0,136.0,4.0,1.16801,0.90446
African American,14,Right,20,Female,Yes,English,A,138,1,8,4,180.0,1.0,1.0,1224.36,1.0,137.0,4.0,1.14507,0.826395
African American,14,Right,20,Female,Yes,English,A,139,0,0,4,0.0,0.0,1.0,675.864,1.0,138.0,4.0,1.0352,0.900511
African American,14,Right,20,Female,Yes,English,A,140,0,8,8,0.0,0.0,1.0,1366.95,1.0,139.0,4.0,1.15851,0.909919
African American,14,Right,20,Female,Yes,English,A,141,0,16,8,180.0,1.0,1.0,1026.43,1.0,140.0,4.0,1.09197,0.964389
African American,14,Right,20,Female,Yes,English,A,142,0,16,16,0.0,0.0,1.0,1417.38,1.0,141.0,4.0,1.09381,0.906853
African American,14,Right,20,Female,Yes,English,A,143,0,8,4,0.0,0.0,1.0,1365.54,1.0,142.0,4.0,1.0338,0.877043
African American,14,Right,20,Female,Yes,English,A,144,1,0,16,0.0,0.0,1.0,1315.62,1.0,143.0,4.0,1.03788,0.829857
African American,14,Right,20,Female,Yes,English,A,145,1,16,4,180.0,1.0,1.0,1034.47,1.0,144.0,4.0,1.00239,0.802605
African American,14,Right,20,Female,Yes,English,A,146,1,8,0,180.0,1.0,1.0,951.56,1.0,145.0,4.0,1.09755,0.850982
African American,14,Right,20,Female,Yes,English,A,147,1,16,8,180.0,1.0,1.0,620.627,1.0,146.0,4.0,1.08324,0.878891
African American,14,Right,20,Female,Yes,English,A,148,0,4,0,0.0,0.0,1.0,506.735,1.0,147.0,4.0,1.06426,0.944238
African American,14,Right,20,Female,Yes,English,A,149,1,4,8,0.0,0.0,1.0,1120.73,1.0,148.0,4.0,1.12295,0.915357
African American,14,Right,20,Female,Yes,English,A,150,0,16,4,0.0,0.0,1.0,1019.65,1.0,149.0,4.0,1.05403,0.877809
African American,14,Right,20,Female,Yes,English,A,151,1,4,0,0.0,0.0,1.0,1056.95,1.0,150.0,4.0,1.05735,0.993276
African American,14,Right,20,Female,Yes,English,A,152,0,8,0,180.0,1.0,1.0,760.468,1.0,151.0,4.0,1.1424,0.948085
African American,14,Right,20,Female,Yes,English,A,153,0,4,4,180.0,1.0,1.0,727.996,1.0,152.0,4.0,1.10313,0.8148
African American,14,Right,20,Female,Yes,English,A,154,0,8,16,180.0,1.0,1.0,479.967,1.0,153.0,4.0,1.08484,0.985633
African American,14,Right,20,Female,Yes,English,A,155,1,4,16,0.0,0.0,1.0,780.179,1.0,154.0,4.0,1.09739,0.95361
African American,14,Right,20,Female,Yes,English,A,156,0,4,8,180.0,1.0,1.0,520.406,1.0,155.0,4.0,1.06921,0.823699
African American,14,Right,20,Female,Yes,English,A,157,1,4,4,180.0,1.0,1.0,1275.14,1.0,156.0,4.0,1.08086,0.925289
African American,14,Right,20,Female,Yes,English,A,158,1,0,4,180.0,0.0,0.0,1194.52,1.0,157.0,4.0,1.061,0.806236
African American,14,Right,20,Female,Yes,English,A,159,1,8,8,180.0,1.0,1.0,1443.03,1.0,158.0,4.0,1.13583,0.999272
African American,14,Right,20,Female,Yes,English,A,160,1,16,0,0.0,0.0,1.0,654.221,1.0,159.0,4.0,1.17948,0.911712
African American,14,Right,20,Female,Yes,English,A,161,1,16,8,180.0,1.0,1.0,658.243,1.0,160.0,5.0,1.00466,0.833871
African American,14,Right,20,Female,Yes,English,A,162,0,0,16,0.0,0.0,1.0,1297.27,1.0,161.0,5.0,1.17532,0.818414
African American,14,Right,20,Female,Yes,English,A,163,0,8,4,180.0,1.0,1.0,743.299,1.0,162.0,5.0,1.18732,0.816555
African American,14,Right,20,Female,Yes,English,A,164,1,8,4,180.0,1.0,1.0,1157.69,1.0,163.0,5.0,1.14329,0.819797
African American,14,Right,20,Female,Yes,English,A,165,0,8,16,180.0,1.0,1.0,2408.53,1.0,164.0,5.0,1.09264,0.865189
African American,14,Right,20,Female,Yes,English,A,166,1,0,16,0.0,0.0,1.0,1242.53,1.0,165.0,5.0,1.15107,0.984346
African American,14,Right,20,Female,Yes,English,A,167,1,4,4,180.0,1.0,1.0,1361.25,1.0,166.0,5.0,1.19038,0.9459
African American,14,Right,20,Female,Yes,English,A,168,0,0,0,0.0,0.0,1.0,718.778,1.0,167.0,5.0,1.13504,0.870331
African American,14,Right,20,Female,Yes,English,A,169,0,4,8,180.0,1.0,1.0,948.659,1.0,168.0,5.0,1.17945,0.927743
African American,14,Right,20,Female,Yes,English,A,170,1,4,8,0.0,0.0,1.0,1024.08,1.0,169.0,5.0,1.08509,0.828571
African American,14,Right,20,Female,Yes,English,A,171,0,0,4,0.0,0.0,1.0,1018.77,1.0,170.0,5.0,1.03936,0.812333
African American,14,Right,20,Female,Yes,English,A,172,1,16,16,0.0,0.0,1.0,1267.2,1.0,171.0,5.0,1.18258,0.988143
African American,14,Right,20,Female,Yes,English,A,173,0,16,16,180.0,1.0,1.0,500.982,1.0,172.0,5.0,1.00841,0.960655
African American,14,Right,20,Female,Yes,English,A,174,1,0,8,0.0,0.0,1.0,1308.23,1.0,173.0,5.0,1.04467,0.888622
African American,14,Right,20,Female,Yes,English,A,175,1,8,0,0.0,0.0,1.0,1104.4,1.0,174.0,5.0,1.10664,0.994979
African American,14,Right,20,Female,Yes,English,A,176,1,4,16,180.0,1.0,1.0,1922.94,1.0,175.0,5.0,1.12334,0.976226
African American,14,Right,20,Female,Yes,English,A,177,0,4,4,180.0,1.0,1.0,1470.55,1.0,176.0,5.0,1.11216,0.972948
African American,14,Right,20,Female,Yes,English,A,178,0,16,0,0.0,0.0,1.0,1134.88,1.0,177.0,5.0,1.17915,0.80653
African American,14,Right,20,Female,Yes,English,A,179,0,0,8,0.0,0.0,1.0,502.652,1.0,178.0,5.0,1.12906,0.961758
African American,14,Right,20,Female,Yes,English,A,180,1,16,0,180.0,1.0,1.0,1537.95,1.0,179.0,5.0,1.06362,0.96854
African American,14,Right,20,Female,Yes,English,A,181,0,8,0,0.0,0.0,1.0,718.21,1.0,180.0,5.0,1.13303,0.947576
African American,14,Right,20,Female,Yes,English,A,182,0,4,0,0.0,0.0,1.0,1085.73,1.0,181.0,5.0,1.00271,0.968674
African American,14,Right,20,Female,Yes,English,A,183,1,0,0,180.0,1.0,1.0,621.696,1.0,182.0,5.0,1.12285,0.953437
African American,14,Right,20,Female,Yes,English,A,184,1,0,4,180.0,1.0,1.0,723.25,1.0,183.0,5.0,1.03442,0.968304
African American,14,Right,20,Female,Yes,English,A,185,1,8,8,180.0,1.0,1.0,928.111,1.0,184.0,5.0,1.0299,0.817238
African American,14,Right,20,Female,Yes,English,A,186,0,4,16,180.0,1.0,1.0,1938.99,1.0,185.0,5.0,1.11424,0.806508
African American,14,Right,20,Female,Yes,English,A,187,1,16,4,0.0,0.0,1.0,740.177,1.0,186.0,5.0,1.04925,0.869401
African American,14,Right,20,Female,Yes,English,A,188,0,16,8,180.0,1.0,1.0,1988.1,1.0,187.0,5.0,1.11246,0.920231
African American,14,Right,20,Female,Yes,English,A,189,1,8,16,0.0,0.0,1.0,1123.79,1.0,188.0,5.0,1.18272,0.805566
African American,14,Right,20,Female,Yes,English,A,190,0,16,4,0.0,0.0,1.0,944.826,1.0,189.0,5.0,1.06536,0.91662
African American,14,Right,20,Female,Yes,English,A,191,0,8,8,180.0,1.0,1.0,997.719,1.0,190.0,5.0,1.11058,0.957993
African American,14,Right,20,Female,Yes,English,A,192,1,4,0,0.0,0.0,1.0,829.7,1.0,191.0,5.0,1.19704,0.981597
African American,14,Right,20,Female,Yes,English,A,193,1,16,16,0.0,0.0,1.0,1302.3,1.0,192.0,6.0,1.1675,0.800138
African American,14,Right,20,Female,Yes,English,A,194,1,0,4,0.0,0.0,1.0,1014.19,1.0,193.0,6.0,1.05346,0.968188
African American,14,Right,20,Female,Yes,English,A,195,0,16,8,180.0,1.0,1.0,903.888,1.0,194.0,6.0,1.07704,0.840485
African American,14,Right,20,Female,Yes,English,A,196,1,0,8,0.0,0.0,1.0,860.029,1.0,195.0,6.0,1.03983,0.861063
African American,14,Right,20,Female,Yes,English,A,197,0,0,8,0.0,0.0,1.0,1093.09,1.0,196.0,6.0,1.00209,0.896433
African American,14,Right,20,Female,Yes,English,A,198,0,0,4,180.0,1.0,1.0,1044.94,1.0,197.0,6.0,1.06115,0.884367
African American,14,Right,20,Female,Yes,English,A,199,0,16,16,180.0,1.0,1.0,1126.46,1.0,198.0,6.0,1.11581,0.877715
African American,14,Right,20,Female,Yes,English,A,200,0,4,16,0.0,0.0,1.0,1861.58,1.0,199.0,6.0,1.02128,0.80215
African American,14,Right,20,Female,Yes,English,A,201,1,4,16,0.0,0.0,1.0,1467.07,1.0,200.0,6.0,1.03382,0.923504
African American,14,Right,20,Female,Yes,English,A,202,1,8,8,180.0,1.0,1.0,1821.86,1.0,201.0,6.0,1.15655,0.969752
African American,14,Right,20,Female,Yes,English,A,203,0,0,0,180.0,1.0,1.0,506.039,1.0,202.0,6.0,1.08087,0.968142
African American,14,Right,20,Female,Yes,English,A,204,0,4,8,180.0,1.0,1.0,1223.17,1.0,203.0,6.0,1.10554,0.808483
African American,14,Right,20,Female,Yes,English,A,205,0,4,4,180.0,1.0,1.0,596.341,1.0,204.0,6.0,1.02426,0.80859
African American,14,Right,20,Female,Yes,English,A,206,1,4,0,180.0,1.0,1.0,951.085,1.0,205.0,6.0,1.01556,0.862104
African American,14,Right,20,Female,Yes,English,A,207,1,16,4,0.0,0.0,1.0,477.426,1.0,206.0,6.0,1.04111,0.859774
African American,14,Right,20,Female,Yes,English,A,208,0,8,0,180.0,1.0,1.0,744.935,1.0,207.0,6.0,1.1507,0.802783
African American,14,Right,20,Female,Yes,English,A,209,1,8,4,180.0,1.0,1.0,943.275,1.0,208.0,6.0,1.14056,0.862911
African American,14,Right,20,Female,Yes,English,A,210,1,8,0,0.0,0.0,1.0,557.528,1.0,209.0,6.0,1.05959,0.807288
African American,14,Right,20,Female,Yes,English,A,211,1,0,0,180.0,1.0,1.0,698.823,1.0,210.0,6.0,1.19918,0.842382
African American,14,Right,20,Female,Yes,English,A,212,0,8,8,0.0,0.0,1.0,985.846,1.0,211.0,6.0,1.03374,0.970049
African American,14,Right,20,Female,Yes,English,A,213,1,4,4,0.0,0.0,1.0,1225.88,1.0,212.0,6.0,1.01615,0.871616
African American,14,Right,20,Female,Yes,English,A,214,1,8,16,180.0,1.0,1.0,653.996,1.0,213.0,6.0,1.11458,0.932563
African American,14,Right,20,Female,Yes,English,A,215,0,8,16,180.0,1.0,1.0,1671.99,1.0,214.0,6.0,1.17736,0.858058
African American,14,Right,20,Female,Yes,English,A,216,0,16,0,0.0,0.0,1.0,656.97,1.0,215.0,6.0,1.02032,0.8702
African American,14,Right,20,Female,Yes,English,A,217,1,0,16,180.0,1.0,1.0,1122.06,1.0,216.0,6.0,1.03152,0.848719
African American,14,Right,20,Female,Yes,English,A,218,0,8,4,180.0,1.0,1.0,883.209,1.0,217.0,6.0,1.13303,0.896356
African American,14,Right,20,Female,Yes,English,A,219,0,4,0,0.0,0.0,1.0,895.266,1.0,218.0,6.0,1.19621,0.978281
African American,14,Right,20,Female,Yes,English,A,220,1,4,8,0.0,0.0,1.0,871.371,1.0,219.0,6.0,1.0974,0.904037
African American,14,Right,20,Female,Yes,English,A,221,0,16,4,0.0,0.0,1.0,1633.66,1.0,220.0,6.0,1.02773,0.857764
African American,14,Right,20,Female,Yes,English,A,222,0,0,16,180.0,1.0,1.0,642.77,1.0,221.0,6.0,1.15527,0.964306
African American,14,Right,20,Female,Yes,English,A,223,1,16,0,0.0,0.0,1.0,1135.65,1.0,222.0,6.0,1.14041,0.93705
African American,14,Right,20,Female,Yes,English,A,224,1,16,8,0.0,0.0,1.0,391.094,1.0,223.0,6.0,1.15425,0.814565
African American,14,Right,20,Female,Yes,English,A,225,1,0,8,180.0,1.0,1.0,1391.01,1.0,224.0,7.0,1.1197,0.832099
African American,14,Right,20,Female,Yes,English,A,226,0,0,0,0.0,0.0,1.0,741.932,1.0,225.0,7.0,1.13663,0.826705
African American,14,Right,20,Female,Yes,English,A,227,1,0,4,0.0,0.0,1.0,949.959,1.0,226.0,7.0,1.04106,0.963657
African American,14,Right,20,Female,Yes,English,A,228,0,4,16,0.0,0.0,1.0,1812.86,1.0,227.0,7.0,1.10218,0.98576
African American,14,Right,20,Female,Yes,English,A,229,1,16,0,180.0,1.0,1.0,1202.25,1.0,228.0,7.0,1.06414,0.836929
African American,14,Right,20,Female,Yes,English,A,230,1,4,4,180.0,1.0,1.0,686.952,1.0,229.0,7.0,1.03762,0.853714
African American,14,Right,20,Female,Yes,English,A,231,0,8,0,180.0,1.0,1.0,964.724,1.0,230.0,7.0,1.1305,0.803004
African American,14,Right,20,Female,Yes,English,A,232,1,4,8,180.0,1.0,1.0,1029.69,1.0,231.0,7.0,1.1688,0.837798
African American,14,Right,20,Female,Yes,English,A,233,1,16,16,0.0,0.0,1.0,1014.08,1.0,232.0,7.0,1.02915,0.842006
African American,14,Right,20,Female,Yes,English,A,234,1,4,16,0.0,0.0,1.0,1266.57,1.0,233.0,7.0,1.13227,0.849471
African American,14,Right,20,Female,Yes,English,A,235,1,4,0,180.0,1.0,1.0,626.172,1.0,234.0,7.0,1.15442,0.922805
African American,14,Right,20,Female,Yes,English,A,236,0,16,16,0.0,0.0,1.0,1009.46,1.0,235.0,7.0,1.03901,0.906074
African American,14,Right,20,Female,Yes,English,A,237,0,8,8,180.0,1.0,1.0,994.08,1.0,236.0,7.0,1.0552,0.813911
African American,14,Right,20,Female,Yes,English,A,238,0,0,16,0.0,0.0,1.0,590.395,1.0,237.0,7.0,1.01718,0.838775
African American,14,Right,20,Female,Yes,English,A,239,0,0,8,180.0,1.0,1.0,809.779,1.0,238.0,7.0,1.02411,0.956312
African American,14,Right,20,Female,Yes,English,A,240,1,0,0,0.0,0.0,1.0,649.929,1.0,239.0,7.0,1.15127,0.857017
African American,14,Right,20,Female,Yes,English,A,241,0,4,0,180.0,1.0,1.0,789.004,1.0,240.0,7.0,1.02723,0.846472
African American,14,Right,20,Female,Yes,English,A,242,0,16,8,180.0,1.0,1.0,608.104,1.0,241.0,7.0,1.13822,0.905441
African American,14,Right,20,Female,Yes,English,A,243,0,4,8,180.0,1.0,1.0,666.058,1.0,242.0,7.0,1.05859,0.894462
African American,14,Right,20,Female,Yes,English,A,244,1,8,16,180.0,1.0,1.0,1129.12,1.0,243.0,7.0,1.12855,0.853417
African American,14,Right,20,Female,Yes,English,A,245,0,4,4,0.0,1.0,0.0,894.67,1.0,244.0,7.0,1.11348,0.962377
African American,14,Right,20,Female,Yes,English,A,246,0,16,0,0.0,0.0,1.0,763.615,1.0,245.0,7.0,1.09054,0.915914
African American,14,Right,20,Female,Yes,English,A,247,1,8,4,0.0,0.0,1.0,1204.43,1.0,246.0,7.0,1.16429,0.967753
African American,14,Right,20,Female,Yes,English,A,248,1,8,8,0.0,0.0,1.0,1034.05,1.0,247.0,7.0,1.10454,0.978941
African American,14,Right,20,Female,Yes,English,A,249,1,16,8,180.0,1.0,1.0,750.181,1.0,248.0,7.0,1.15509,0.826656
African American,14,Right,20,Female,Yes,English,A,250,1,16,4,0.0,0.0,1.0,530.837,1.0,249.0,7.0,1.16426,0.853904
African American,14,Right,20,Female,Yes,English,A,251,0,8,4,0.0,0.0,1.0,650.983,1.0,250.0,7.0,1.11933,0.891873
African American,14,Right,20,Female,Yes,English,A,252,0,16,4,180.0,1.0,1.0,1703.19,1.0,251.0,7.0,1.08042,0.905055
African American,14,Right,20,Female,Yes,English,A,253,1,0,16,0.0,0.0,1.0,1347.99,1.0,252.0,7.0,1.19387,0.847368
African American,14,Right,20,Female,Yes,English,A,254,0,8,16,180.0,1.0,1.0,871.458,1.0,253.0,7.0,1.04137,0.960365
African American,14,Right,20,Female,Yes,English,A,255,0,0,4,180.0,1.0,1.0,710.901,1.0,254.0,7.0,1.06114,0.845131
African American,14,Right,20,Female,Yes,English,A,256,1,8,0,0.0,0.0,1.0,595.358,1.0,255.0,7.0,1.0946,0.938827
African American,14,Right,20,Female,Yes,English,A,257,0,0,0,180.0,1.0,1.0,581.338,1.0,256.0,8.0,1.16523,0.801991
African American,14,Right,20,Female,Yes,English,A,258,1,16,16,0.0,0.0,1.0,698.602,1.0,257.0,8.0,1.00109,0.875102
African American,14,Right,20,Female,Yes,English,A,259,0,8,0,180.0,1.0,1.0,998.978,1.0,258.0,8.0,1.19989,0.801112
African American,14,Right,20,Female,Yes,English,A,260,0,4,4,180.0,1.0,1.0,1524.25,1.0,259.0,8.0,1.04264,0.850057
African American,14,Right,20,Female,Yes,English,A,261,0,8,8,180.0,1.0,1.0,1451.83,1.0,260.0,8.0,1.19305,0.810019
African American,14,Right,20,Female,Yes,English,A,262,0,8,4,0.0,0.0,1.0,583.153,1.0,261.0,8.0,1.18974,0.956027
African American,14,Right,20,Female,Yes,English,A,263,1,16,4,180.0,1.0,1.0,901.687,1.0,262.0,8.0,1.0402,0.873575
African American,14,Right,20,Female,Yes,English,A,264,0,0,16,180.0,1.0,1.0,848.071,1.0,263.0,8.0,1.009,0.806985
African American,14,Right,20,Female,Yes,English,A,265,1,0,16,180.0,1.0,1.0,753.523,1.0,264.0,8.0,1.04533,0.886559
African American,14,Right,20,Female,Yes,English,A,266,1,0,0,180.0,1.0,1.0,655.351,1.0,265.0,8.0,1.00315,0.834434
African American,14,Right,20,Female,Yes,English,A,267,1,4,16,0.0,0.0,1.0,724.027,1.0,266.0,8.0,1.12308,0.850842
African American,14,Right,20,Female,Yes,English,A,268,1,8,8,180.0,1.0,1.0,584.982,1.0,267.0,8.0,1.01061,0.872518
African American,14,Right,20,Female,Yes,English,A,269,1,4,4,180.0,1.0,1.0,678.93,1.0,268.0,8.0,1.1273,0.939253
African American,14,Right,20,Female,Yes,English,A,270,1,8,4,0.0,0.0,1.0,922.964,1.0,269.0,8.0,1.04489,0.894129
African American,14,Right,20,Female,Yes,English,A,271,0,16,16,0.0,0.0,1.0,841.136,1.0,270.0,8.0,1.03372,0.871849
African American,14,Right,20,Female,Yes,English,A,272,1,4,8,180.0,1.0,1.0,642.805,1.0,271.0,8.0,1.12193,0.950783
African American,14,Right,20,Female,Yes,English,A,273,0,8,16,180.0,1.0,1.0,775.868,1.0,272.0,8.0,1.11785,0.865788
African American,14,Right,20,Female,Yes,English,A,274,0,0,4,0.0,0.0,1.0,759.46,1.0,273.0,8.0,1.14622,0.922221
African American,14,Right,20,Female,Yes,English,A,275,1,4,0,0.0,0.0,1.0,629.287,1.0,274.0,8.0,1.04884,0.932721
African American,14,Right,20,Female,Yes,English,A,276,1,0,8,0.0,0.0,1.0,740.001,1.0,275.0,8.0,1.05698,0.895817
African American,14,Right,20,Female,Yes,English,A,277,0,16,0,180.0,1.0,1.0,708.985,1.0,276.0,8.0,1.0716,0.983865
African American,14,Right,20,Female,Yes,English,A,278,0,0,8,0.0,0.0,1.0,1826.0,1.0,277.0,8.0,1.12555,0.945192
African American,14,Right,20,Female,Yes,English,A,279,0,4,16,0.0,0.0,1.0,771.256,1.0,278.0,8.0,1.01706,0.883622
African American,14,Right,20,Female,Yes,English,A,280,1,16,0,0.0,0.0,1.0,729.011,1.0,279.0,8.0,1.0327,0.921386
African American,14,Right,20,Female,Yes,English,A,281,1,16,8,0.0,0.0,1.0,777.773,1.0,280.0,8.0,1.01556,0.847831
African American,14,Right,20,Female,Yes,English,A,282,0,16,4,180.0,1.0,1.0,960.765,1.0,281.0,8.0,1.19375,0.923262
African American,14,Right,20,Female,Yes,English,A,283,1,8,0,0.0,0.0,1.0,690.327,1.0,282.0,8.0,1.04278,0.820779
African American,14,Right,20,Female,Yes,English,A,284,0,16,8,180.0,1.0,1.0,1038.87,1.0,283.0,8.0,1.02536,0.964473
African American,14,Right,20,Female,Yes,English,A,285,1,0,4,0.0,0.0,1.0,810.786,1.0,284.0,8.0,1.16499,0.86872
African American,14,Right,20,Female,Yes,English,A,286,0,4,0,0.0,0.0,1.0,871.903,1.0,285.0,8.0,1.18694,0.815861
African American,14,Right,20,Female,Yes,English,A,287,1,8,16,180.0,1.0,1.0,945.104,1.0,286.0,8.0,1.13994,0.823484
African American,14,Right,20,Female,Yes,English,A,288,0,4,8,0.0,0.0,1.0,777.41,1.0,287.0,8.0,1.08546,0.814436
African American,14,Right,20,Female,Yes,English,A,289,1,16,8,180.0,1.0,1.0,1068.61,1.0,288.0,9.0,1.00283,0.950668
African American,14,Right,20,Female,Yes,English,A,290,1,4,0,180.0,1.0,1.0,997.085,1.0,289.0,9.0,1.09882,0.838503
African American,14,Right,20,Female,Yes,English,A,291,1,16,0,180.0,1.0,1.0,646.688,1.0,290.0,9.0,1.00469,0.927634
African American,14,Right,20,Female,Yes,English,A,292,1,4,8,0.0,0.0,1.0,712.862,1.0,291.0,9.0,1.03047,0.886867
African American,14,Right,20,Female,Yes,English,A,293,0,8,8,0.0,0.0,1.0,720.704,1.0,292.0,9.0,1.11793,0.929816
African American,14,Right,20,Female,Yes,English,A,294,1,0,0,0.0,0.0,1.0,660.111,1.0,293.0,9.0,1.00765,0.871888
African American,14,Right,20,Female,Yes,English,A,295,0,8,4,180.0,1.0,1.0,1167.41,1.0,294.0,9.0,1.06999,0.985277
African American,14,Right,20,Female,Yes,English,A,296,0,0,16,180.0,0.0,0.0,791.358,1.0,295.0,9.0,1.03634,0.889318
African American,14,Right,20,Female,Yes,English,A,297,0,16,16,0.0,0.0,1.0,949.946,1.0,296.0,9.0,1.10779,0.871531
African American,14,Right,20,Female,Yes,English,A,298,1,0,8,180.0,1.0,1.0,671.64,1.0,297.0,9.0,1.05106,0.963591
African American,14,Right,20,Female,Yes,English,A,299,0,4,8,180.0,1.0,1.0,1326.19,1.0,298.0,9.0,1.16637,0.94004
African American,14,Right,20,Female,Yes,English,A,300,1,8,4,180.0,1.0,1.0,686.894,1.0,299.0,9.0,1.06543,0.981491
African American,14,Right,20,Female,Yes,English,A,301,1,16,16,180.0,1.0,1.0,812.022,1.0,300.0,9.0,1.03447,0.97219
African American,14,Right,20,Female,Yes,English,A,302,0,4,0,180.0,1.0,1.0,835.213,1.0,301.0,9.0,1.12633,0.942139
African American,14,Right,20,Female,Yes,English,A,303,1,0,16,0.0,0.0,1.0,716.211,1.0,302.0,9.0,1.0317,0.91917
African American,14,Right,20,Female,Yes,English,A,304,1,4,16,0.0,0.0,1.0,780.973,1.0,303.0,9.0,1.1959,0.90459
African American,14,Right,20,Female,Yes,English,A,305,0,16,4,0.0,0.0,1.0,1447.46,1.0,304.0,9.0,1.05297,0.879088
African American,14,Right,20,Female,Yes,English,A,306,0,16,0,180.0,1.0,1.0,901.72,1.0,305.0,9.0,1.19371,0.98132
African American,14,Right,20,Female,Yes,English,A,307,0,8,0,0.0,0.0,1.0,918.425,1.0,306.0,9.0,1.16737,0.887276
African American,14,Right,20,Female,Yes,English,A,308,0,8,16,0.0,0.0,1.0,847.525,1.0,307.0,9.0,1.13592,0.839421
African American,14,Right,20,Female,Yes,English,A,309,1,0,4,0.0,0.0,1.0,765.965,1.0,308.0,9.0,1.16992,0.979502
African American,14,Right,20,Female,Yes,English,A,310,1,16,4,0.0,0.0,1.0,793.124,1.0,309.0,9.0,1.1897,0.988217
African American,14,Right,20,Female,Yes,English,A,311,1,8,8,180.0,1.0,1.0,1102.82,1.0,310.0,9.0,1.06752,0.933708
African American,14,Right,20,Female,Yes,English,A,312,0,16,8,0.0,0.0,1.0,853.6,1.0,311.0,9.0,1.01919,0.854055
African American,14,Right,20,Female,Yes,English,A,313,0,0,4,0.0,0.0,1.0,488.076,1.0,312.0,9.0,1.10604,0.842044
African American,14,Right,20,Female,Yes,English,A,314,0,0,0,180.0,1.0,1.0,631.666,1.0,313.0,9.0,1.18984,0.831826
African American,14,Right,20,Female,Yes,English,A,315,0,4,16,180.0,1.0,1.0,1252.31,1.0,314.0,9.0,1.16083,0.935352
African American,14,Right,20,Female,Yes,English,A,316,0,4,4,180.0,1.0,1.0,606.725,1.0,315.0,9.0,1.1148,0.949723
African American,14,Right,20,Female,Yes,English,A,317,0,0,8,0.0,0.0,1.0,764.415,1.0,316.0,9.0,1.10933,0.857211
African American,14,Right,20,Female,Yes,English,A,318,1,8,16,0.0,0.0,1.0,1472.81,1.0,317.0,9.0,1.16778,0.863471
African American,14,Right,20,Female,Yes,English,A,319,1,8,0,180.0,1.0,1.0,956.691,1.0,318.0,9.0,1.02033,0.98956
African American,14,Right,20,Female,Yes,English,A,320,1,4,4,0.0,0.0,1.0,1292.27,1.0,319.0,9.0,1.15442,0.999683
African American,14,Right,20,Female,Yes,English,A,321,0,4,4,180.0,1.0,1.0,1078.39,1.0,320.0,10.0,1.18129,0.88999
African American,14,Right,20,Female,Yes,English,A,322,0,4,16,0.0,0.0,1.0,477.177,1.0,321.0,10.0,1.04915,0.802787
African American,14,Right,20,Female,Yes,English,A,323,1,4,4,180.0,1.0,1.0,982.499,1.0,322.0,10.0,1.00811,0.926561
African American,14,Right,20,Female,Yes,English,A,324,1,16,16,180.0,1.0,1.0,777.249,1.0,323.0,10.0,1.14448,0.976708
African American,14,Right,20,Female,Yes,English,A,325,1,16,4,180.0,1.0,1.0,1056.86,1.0,324.0,10.0,1.13481,0.920017
African American,14,Right,20,Female,Yes,English,A,326,1,8,8,0.0,0.0,1.0,796.691,1.0,325.0,10.0,1.16118,0.98349
African American,14,Right,20,Female,Yes,English,A,327,0,8,4,0.0,0.0,1.0,1225.72,1.0,326.0,10.0,1.07106,0.940801
African American,14,Right,20,Female,Yes,English,A,328,0,16,0,0.0,0.0,1.0,1395.0,1.0,327.0,10.0,1.1047,0.99204
African American,14,Right,20,Female,Yes,English,A,329,1,0,8,180.0,1.0,1.0,794.254,1.0,328.0,10.0,1.05556,0.814067
African American,14,Right,20,Female,Yes,English,A,330,1,16,8,180.0,1.0,1.0,1286.94,1.0,329.0,10.0,1.10997,0.815318
African American,14,Right,20,Female,Yes,English,A,331,1,0,16,0.0,0.0,1.0,724.259,1.0,330.0,10.0,1.0554,0.837322
African American,14,Right,20,Female,Yes,English,A,332,0,16,4,0.0,0.0,1.0,1337.43,1.0,331.0,10.0,1.05787,0.958448
African American,14,Right,20,Female,Yes,English,A,333,0,8,8,0.0,0.0,1.0,871.237,1.0,332.0,10.0,1.08101,0.847581
African American,14,Right,20,Female,Yes,English,A,334,0,8,16,180.0,1.0,1.0,1419.89,1.0,333.0,10.0,1.12059,0.98742
African American,14,Right,20,Female,Yes,English,A,335,1,8,0,0.0,0.0,1.0,1044.27,1.0,334.0,10.0,1.18786,0.817416
African American,14,Right,20,Female,Yes,English,A,336,0,8,0,0.0,0.0,1.0,804.694,1.0,335.0,10.0,1.11709,0.977974
African American,14,Right,20,Female,Yes,English,A,337,1,8,16,0.0,0.0,1.0,1620.74,1.0,336.0,10.0,1.01176,0.84733
African American,14,Right,20,Female,Yes,English,A,338,0,0,8,0.0,0.0,1.0,707.53,1.0,337.0,10.0,1.11587,0.848503
African American,14,Right,20,Female,Yes,English,A,339,1,4,16,0.0,0.0,1.0,551.433,1.0,338.0,10.0,1.11131,0.903184
African American,14,Right,20,Female,Yes,English,A,340,1,8,4,0.0,0.0,1.0,458.486,1.0,339.0,10.0,1.19207,0.969338
African American,14,Right,20,Female,Yes,English,A,341,1,0,0,180.0,1.0,1.0,728.923,1.0,340.0,10.0,1.04431,0.914939
African American,14,Right,20,Female,Yes,English,A,342,1,4,8,180.0,1.0,1.0,918.346,1.0,341.0,10.0,1.09939,0.835871
African American,14,Right,20,Female,Yes,English,A,343,0,0,16,180.0,1.0,1.0,860.54,1.0,342.0,10.0,1.14104,0.827028
African American,14,Right,20,Female,Yes,English,A,344,0,4,8,180.0,1.0,1.0,973.563,1.0,343.0,10.0,1.03354,0.881287
African American,14,Right,20,Female,Yes,English,A,345,0,16,8,180.0,1.0,1.0,1728.38,1.0,344.0,10.0,1.09909,0.815559
African American,14,Right,20,Female,Yes,English,A,346,1,0,4,180.0,1.0,1.0,1003.84,1.0,345.0,10.0,1.08506,0.886464
African American,14,Right,20,Female,Yes,English,A,347,0,4,0,180.0,1.0,1.0,638.308,1.0,346.0,10.0,1.07577,0.821647
African American,14,Right,20,Female,Yes,English,A,348,0,16,16,180.0,1.0,1.0,694.834,1.0,347.0,10.0,1.02819,0.886884
African American,14,Right,20,Female,Yes,English,A,349,1,16,0,0.0,0.0,1.0,892.739,1.0,348.0,10.0,1.08972,0.842567
African American,14,Right,20,Female,Yes,English,A,350,1,4,0,0.0,0.0,1.0,573.391,1.0,349.0,10.0,1.17357,0.830318
African American,14,Right,20,Female,Yes,English,A,351,0,0,0,0.0,0.0,1.0,763.507,1.0,350.0,10.0,1.15539,0.86683
African American,14,Right,20,Female,Yes,English,A,352,0,0,4,180.0,1.0,1.0,693.888,1.0,351.0,10.0,1.12295,0.832263
African American,14,Right,20,Female,Yes,English,A,353,1,8,4,0.0,0.0,1.0,1266.03,1.0,352.0,11.0,1.01004,0.969457
African American,14,Right,20,Female,Yes,English,A,354,1,16,16,180.0,1.0,1.0,922.327,1.0,353.0,11.0,1.14813,0.871621
African American,14,Right,20,Female,Yes,English,A,355,0,16,16,180.0,1.0,1.0,633.665,1.0,354.0,11.0,1.13319,0.965169
African American,14,Right,20,Female,Yes,English,A,356,0,8,0,180.0,1.0,1.0,799.982,1.0,355.0,11.0,1.04068,0.934636
African American,14,Right,20,Female,Yes,English,A,357,1,0,8,180.0,1.0,1.0,615.325,1.0,356.0,11.0,1.01406,0.959845
African American,14,Right,20,Female,Yes,English,A,358,1,16,0,180.0,1.0,1.0,685.878,1.0,357.0,11.0,1.06741,0.97444
African American,14,Right,20,Female,Yes,English,A,359,0,16,4,180.0,1.0,1.0,1531.69,1.0,358.0,11.0,1.17306,0.862487
African American,14,Right,20,Female,Yes,English,A,360,1,4,0,0.0,0.0,1.0,870.426,1.0,359.0,11.0,1.00991,0.973405
African American,14,Right,20,Female,Yes,English,A,361,1,16,4,0.0,0.0,1.0,963.379,1.0,360.0,11.0,1.08722,0.838965
African American,14,Right,20,Female,Yes,English,A,362,1,0,4,0.0,0.0,1.0,598.515,1.0,361.0,11.0,1.09323,0.939968
African American,14,Right,20,Female,Yes,English,A,363,0,4,8,180.0,1.0,1.0,713.848,1.0,362.0,11.0,1.13969,0.902487
African American,14,Right,20,Female,Yes,English,A,364,0,4,0,180.0,1.0,1.0,780.738,1.0,363.0,11.0,1.1009,0.943392
African American,14,Right,20,Female,Yes,English,A,365,0,0,16,0.0,0.0,1.0,542.24,1.0,364.0,11.0,1.14949,0.968291
African American,14,Right,20,Female,Yes,English,A,366,0,8,16,180.0,1.0,1.0,763.334,1.0,365.0,11.0,1.03864,0.936231
African American,14,Right,20,Female,Yes,English,A,367,0,4,16,0.0,0.0,1.0,814.078,1.0,366.0,11.0,1.1431,0.851086
African American,14,Right,20,Female,Yes,English,A,368,1,8,0,180.0,1.0,1.0,610.94,1.0,367.0,11.0,1.0364,0.921661
African American,14,Right,20,Female,Yes,English,A,369,0,8,8,0.0,0.0,1.0,1118.09,1.0,368.0,11.0,1.11477,0.933362
African American,14,Right,20,Female,Yes,English,A,370,0,16,8,0.0,0.0,1.0,706.203,1.0,369.0,11.0,1.16488,0.837225
African American,14,Right,20,Female,Yes,English,A,371,0,0,8,0.0,0.0,1.0,1187.82,1.0,370.0,11.0,1.00265,0.990049
African American,14,Right,20,Female,Yes,English,A,372,1,8,8,180.0,1.0,1.0,1394.54,1.0,371.0,11.0,1.06294,0.822969
African American,14,Right,20,Female,Yes,English,A,373,0,8,4,180.0,1.0,1.0,959.374,1.0,372.0,11.0,1.02646,0.974446
African American,14,Right,20,Female,Yes,English,A,374,0,0,4,0.0,0.0,1.0,921.693,1.0,373.0,11.0,1.17232,0.829671
African American,14,Right,20,Female,Yes,English,A,375,1,4,4,0.0,0.0,1.0,1199.06,1.0,374.0,11.0,1.02498,0.910738
African American,14,Right,20,Female,Yes,English,A,376,0,4,4,0.0,0.0,1.0,1061.72,1.0,375.0,11.0,1.17273,0.94091
African American,14,Right,20,Female,Yes,English,A,377,1,8,16,180.0,1.0,1.0,900.476,1.0,376.0,11.0,1.1401,0.83094
African American,14,Right,20,Female,Yes,English,A,378,1,4,16,180.0,1.0,1.0,1404.57,1.0,377.0,11.0,1.14807,0.930414
African American,14,Right,20,Female,Yes,English,A,379,1,16,8,0.0,0.0,1.0,1171.92,1.0,378.0,11.0,1.06589,0.841959
African American,14,Right,20,Female,Yes,English,A,380,0,16,0,180.0,1.0,1.0,812.4,1.0,379.0,11.0,1.15778,0.865138
African American,14,Right,20,Female,Yes,English,A,381,1,0,16,0.0,0.0,1.0,1165.03,1.0,380.0,11.0,1.11039,0.979271
African American,14,Right,20,Female,Yes,English,A,382,0,0,0,0.0,0.0,1.0,825.865,1.0,381.0,11.0,1.19906,0.9089
African American,14,Right,20,Female,Yes,English,A,383,1,0,0,0.0,0.0,1.0,704.629,1.0,382.0,11.0,1.13372,0.855874
African American,14,Right,20,Female,Yes,English,A,384,1,4,8,180.0,1.0,1.0,745.069,1.0,383.0,11.0,1.08629,0.913443
African American,14,Right,20,Female,Yes,English,A,385,1,4,4,0.0,0.0,1.0,1108.3,1.0,384.0,12.0,1.19291,0.913577
African American,14,Right,20,Female,Yes,English,A,386,0,8,0,180.0,0.0,0.0,907.496,1.0,385.0,12.0,1.11747,0.841096
African American,14,Right,20,Female,Yes,English,A,387,0,0,0,0.0,0.0,1.0,612.72,1.0,386.0,12.0,1.03171,0.875155
African American,14,Right,20,Female,Yes,English,A,388,0,16,4,180.0,1.0,1.0,762.608,1.0,387.0,12.0,1.17257,0.921893
African American,14,Right,20,Female,Yes,English,A,389,1,0,8,0.0,0.0,1.0,626.009,1.0,388.0,12.0,1.04142,0.819321
African American,14,Right,20,Female,Yes,English,A,390,1,0,0,180.0,1.0,1.0,685.21,1.0,389.0,12.0,1.13179,0.891243
African American,14,Right,20,Female,Yes,English,A,391,0,0,8,0.0,0.0,1.0,1278.7,1.0,390.0,12.0,1.14542,0.841798
African American,14,Right,20,Female,Yes,English,A,392,0,16,8,0.0,0.0,1.0,1039.39,1.0,391.0,12.0,1.01434,0.888607
African American,14,Right,20,Female,Yes,English,A,393,1,0,16,180.0,1.0,1.0,751.283,1.0,392.0,12.0,1.12017,0.908564
African American,14,Right,20,Female,Yes,English,A,394,1,16,4,0.0,0.0,1.0,652.636,1.0,393.0,12.0,1.10341,0.914324
African American,14,Right,20,Female,Yes,English,A,395,1,4,16,0.0,0.0,1.0,1570.81,1.0,394.0,12.0,1.04782,0.985689
African American,14,Right,20,Female,Yes,English,A,396,0,4,4,180.0,1.0,1.0,1579.21,1.0,395.0,12.0,1.17677,0.991538
African American,14,Right,20,Female,Yes,English,A,397,1,16,0,0.0,0.0,1.0,1144.16,1.0,396.0,12.0,1.1069,0.864966
African American,14,Right,20,Female,Yes,English,A,398,0,8,16,180.0,1.0,1.0,539.958,1.0,397.0,12.0,1.18502,0.802483
African American,14,Right,20,Female,Yes,English,A,399,1,8,16,0.0,0.0,1.0,1007.37,1.0,398.0,12.0,1.10141,0.809979
African American,14,Right,20,Female,Yes,English,A,400,0,8,8,0.0,0.0,1.0,918.249,1.0,399.0,12.0,1.18654,0.926676
African American,14,Right,20,Female,Yes,English,A,401,1,16,8,0.0,0.0,1.0,762.489,1.0,400.0,12.0,1.02475,0.932442
African American,14,Right,20,Female,Yes,English,A,402,0,16,16,0.0,0.0,1.0,501.635,1.0,401.0,12.0,1.18749,0.931998
African American,14,Right,20,Female,Yes,English,A,403,0,0,16,180.0,1.0,1.0,573.319,1.0,402.0,12.0,1.11878,0.88293
African American,14,Right,20,Female,Yes,English,A,404,1,4,8,180.0,1.0,1.0,708.82,1.0,403.0,12.0,1.09495,0.976802
African American,14,Right,20,Female,Yes,English,A,405,1,8,0,180.0,1.0,1.0,641.517,1.0,404.0,12.0,1.03134,0.81311
African American,14,Right,20,Female,Yes,English,A,406,0,4,8,0.0,0.0,1.0,965.846,1.0,405.0,12.0,1.06943,0.889398
African American,14,Right,20,Female,Yes,English,A,407,1,8,4,180.0,1.0,1.0,1813.09,1.0,406.0,12.0,1.05148,0.819647
African American,14,Right,20,Female,Yes,English,A,408,0,0,4,180.0,1.0,1.0,924.155,1.0,407.0,12.0,1.18052,0.974181
African American,14,Right,20,Female,Yes,English,A,409,0,16,0,180.0,1.0,1.0,877.827,1.0,408.0,12.0,1.18681,0.852141
African American,14,Right,20,Female,Yes,English,A,410,1,8,8,180.0,1.0,1.0,908.464,1.0,409.0,12.0,1.05889,0.903978
African American,14,Right,20,Female,Yes,English,A,411,0,4,16,0.0,1.0,0.0,534.758,1.0,410.0,12.0,1.13879,0.866288
African American,14,Right,20,Female,Yes,English,A,412,1,16,16,180.0,1.0,1.0,1080.17,1.0,411.0,12.0,1.03212,0.8194
African American,14,Right,20,Female,Yes,English,A,413,1,0,4,0.0,0.0,1.0,784.627,1.0,412.0,12.0,1.13155,0.847141
African American,14,Right,20,Female,Yes,English,A,414,0,4,0,0.0,0.0,1.0,1004.3,1.0,413.0,12.0,1.08582,0.863278
African American,14,Right,20,Female,Yes,English,A,415,1,4,0,180.0,1.0,1.0,1209.51,1.0,414.0,12.0,1.10325,0.814262
African American,14,Right,20,Female,Yes,English,A,416,0,8,4,180.0,1.0,1.0,1049.93,1.0,415.0,12.0,1.03276,0.845178
African American,14,Right,20,Female,Yes,English,A,417,1,4,16,180.0,1.0,1.0,1223.64,1.0,416.0,13.0,1.08163,0.824437
African American,14,Right,20,Female,Yes,English,A,418,0,0,16,180.0,1.0,1.0,499.045,1.0,417.0,13.0,1.1061,0.981205
African American,14,Right,20,Female,Yes,English,A,419,1,8,16,180.0,1.0,1.0,1672.42,1.0,418.0,13.0,1.08176,0.977886
African American,14,Right,20,Female,Yes,English,A,420,1,0,16,180.0,1.0,1.0,806.005,1.0,419.0,13.0,1.00409,0.837139
African American,14,Right,20,Female,Yes,English,A,421,0,4,8,180.0,1.0,1.0,901.92,1.0,420.0,13.0,1.16187,0.921535
African American,14,Right,20,Female,Yes,English,A,422,1,0,8,0.0,0.0,1.0,612.019,1.0,421.0,13.0,1.01667,0.838369
African American,14,Right,20,Female,Yes,English,A,423,0,8,16,180.0,1.0,1.0,1155.76,1.0,422.0,13.0,1.08586,0.976885
African American,14,Right,20,Female,Yes,English,A,424,0,16,8,180.0,1.0,1.0,1530.2,1.0,423.0,13.0,1.10976,0.897639
African American,14,Right,20,Female,Yes,English,A,425,1,16,8,180.0,1.0,1.0,1183.75,1.0,424.0,13.0,1.01784,0.958523
African American,14,Right,20,Female,Yes,English,A,426,0,4,16,180.0,1.0,1.0,854.994,1.0,425.0,13.0,1.16054,0.834624
African American,14,Right,20,Female,Yes,English,A,427,0,8,8,0.0,0.0,1.0,987.135,1.0,426.0,13.0,1.12709,0.966173
African American,14,Right,20,Female,Yes,English,A,428,1,4,0,180.0,1.0,1.0,873.908,1.0,427.0,13.0,1.06382,0.961963
African American,14,Right,20,Female,Yes,English,A,429,0,0,4,0.0,0.0,1.0,908.057,1.0,428.0,13.0,1.13575,0.811912
African American,14,Right,20,Female,Yes,English,A,430,1,8,4,180.0,1.0,1.0,924.255,1.0,429.0,13.0,1.15091,0.900406
African American,14,Right,20,Female,Yes,English,A,431,0,16,16,0.0,0.0,1.0,1076.92,1.0,430.0,13.0,1.1999,0.835012
African American,14,Right,20,Female,Yes,English,A,432,1,16,0,0.0,0.0,1.0,769.362,1.0,431.0,13.0,1.09,0.866097
African American,14,Right,20,Female,Yes,English,A,433,1,16,4,0.0,0.0,1.0,844.482,1.0,432.0,13.0,1.00263,0.921709
African American,14,Right,20,Female,Yes,English,A,434,0,0,0,0.0,0.0,1.0,624.248,1.0,433.0,13.0,1.08597,0.826499
African American,14,Right,20,Female,Yes,English,A,435,0,16,0,180.0,1.0,1.0,781.813,1.0,434.0,13.0,1.02583,0.937038
African American,14,Right,20,Female,Yes,English,A,436,1,8,0,0.0,0.0,1.0,886.927,1.0,435.0,13.0,1.10919,0.940268
African American,14,Right,20,Female,Yes,English,A,437,0,8,4,180.0,1.0,1.0,594.57,1.0,436.0,13.0,1.04966,0.969796
African American,14,Right,20,Female,Yes,English,A,438,1,16,16,0.0,0.0,1.0,1825.35,1.0,437.0,13.0,1.05321,0.964312
African American,14,Right,20,Female,Yes,English,A,439,1,0,0,180.0,1.0,1.0,822.762,1.0,438.0,13.0,1.06536,0.929288
African American,14,Right,20,Female,Yes,English,A,440,1,8,8,0.0,0.0,1.0,676.105,1.0,439.0,13.0,1.02605,0.964396
African American,14,Right,20,Female,Yes,English,A,441,0,16,4,0.0,0.0,1.0,575.631,1.0,440.0,13.0,1.00336,0.947839
African American,14,Right,20,Female,Yes,English,A,442,1,4,4,0.0,0.0,1.0,611.41,1.0,441.0,13.0,1.07297,0.895326
African American,14,Right,20,Female,Yes,English,A,443,1,0,4,180.0,1.0,1.0,809.325,1.0,442.0,13.0,1.04847,0.800479
African American,14,Right,20,Female,Yes,English,A,444,0,0,8,0.0,0.0,1.0,849.804,1.0,443.0,13.0,1.00979,0.896335
African American,14,Right,20,Female,Yes,English,A,445,1,4,8,0.0,0.0,1.0,740.206,1.0,444.0,13.0,1.17108,0.853595
African American,14,Right,20,Female,Yes,English,A,446,0,4,4,0.0,0.0,1.0,598.21,1.0,445.0,13.0,1.07956,0.97618
African American,14,Right,20,Female,Yes,English,A,447,0,4,0,180.0,1.0,1.0,889.544,1.0,446.0,13.0,1.16459,0.978101
African American,14,Right,20,Female,Yes,English,A,448,0,8,0,0.0,0.0,1.0,595.911,1.0,447.0,13.0,1.05462,0.902389
African American,14,Right,20,Female,Yes,English,A,449,0,8,0,180.0,1.0,1.0,933.399,1.0,448.0,14.0,1.02419,0.863886
African American,14,Right,20,Female,Yes,English,A,450,0,8,4,180.0,1.0,1.0,938.572,1.0,449.0,14.0,1.04725,0.982803
African American,14,Right,20,Female,Yes,English,A,451,1,0,8,0.0,0.0,1.0,980.298,1.0,450.0,14.0,1.03093,0.940318
African American,14,Right,20,Female,Yes,English,A,452,0,0,8,180.0,1.0,1.0,654.003,1.0,451.0,14.0,1.03922,0.868815
African American,14,Right,20,Female,Yes,English,A,453,0,16,4,180.0,1.0,1.0,901.005,1.0,452.0,14.0,1.0248,0.977741
African American,14,Right,20,Female,Yes,English,A,454,1,4,4,0.0,0.0,1.0,1281.56,1.0,453.0,14.0,1.1762,0.941351
African American,14,Right,20,Female,Yes,English,A,455,0,16,16,180.0,1.0,1.0,828.747,1.0,454.0,14.0,1.16975,0.807806
African American,14,Right,20,Female,Yes,English,A,456,0,4,8,180.0,1.0,1.0,990.438,1.0,455.0,14.0,1.13774,0.971336
African American,14,Right,20,Female,Yes,English,A,457,0,4,4,0.0,0.0,1.0,1792.79,1.0,456.0,14.0,1.07762,0.931133
African American,14,Right,20,Female,Yes,English,A,458,0,4,16,0.0,0.0,1.0,1099.9,1.0,457.0,14.0,1.03632,0.819898
African American,14,Right,20,Female,Yes,English,A,459,1,4,16,180.0,1.0,1.0,1659.98,1.0,458.0,14.0,1.07079,0.886081
African American,14,Right,20,Female,Yes,English,A,460,0,0,16,0.0,0.0,1.0,860.942,1.0,459.0,14.0,1.02686,0.935895
African American,14,Right,20,Female,Yes,English,A,461,0,0,0,180.0,1.0,1.0,736.932,1.0,460.0,14.0,1.15358,0.84528
African American,14,Right,20,Female,Yes,English,A,462,0,4,0,180.0,1.0,1.0,1661.61,1.0,461.0,14.0,1.00655,0.834068
African American,14,Right,20,Female,Yes,English,A,463,1,16,16,0.0,0.0,1.0,1719.4,1.0,462.0,14.0,1.11474,0.93744
African American,14,Right,20,Female,Yes,English,A,464,0,16,8,0.0,0.0,1.0,1134.98,1.0,463.0,14.0,1.1741,0.965316
African American,14,Right,20,Female,Yes,English,A,465,1,8,4,0.0,0.0,1.0,1034.27,1.0,464.0,14.0,1.14635,0.801164
African American,14,Right,20,Female,Yes,English,A,466,1,16,8,180.0,1.0,1.0,623.803,1.0,465.0,14.0,1.13537,0.808521
African American,14,Right,20,Female,Yes,English,A,467,1,16,4,0.0,0.0,1.0,1290.93,1.0,466.0,14.0,1.18344,0.819688
African American,14,Right,20,Female,Yes,English,A,468,1,16,0,0.0,0.0,1.0,543.234,1.0,467.0,14.0,1.03929,0.91896
African American,14,Right,20,Female,Yes,English,A,469,0,8,16,180.0,1.0,1.0,2041.43,1.0,468.0,14.0,1.16588,0.945487
African American,14,Right,20,Female,Yes,English,A,470,1,8,0,0.0,0.0,1.0,935.484,1.0,469.0,14.0,1.00519,0.828572
African American,14,Right,20,Female,Yes,English,A,471,1,0,4,180.0,1.0,1.0,524.422,1.0,470.0,14.0,1.05494,0.801019
African American,14,Right,20,Female,Yes,English,A,472,1,4,0,0.0,0.0,1.0,646.641,1.0,471.0,14.0,1.16215,0.924253
African American,14,Right,20,Female,Yes,English,A,473,1,4,8,180.0,1.0,1.0,941.368,1.0,472.0,14.0,1.16758,0.909418
African American,14,Right,20,Female,Yes,English,A,474,0,0,4,0.0,0.0,1.0,762.322,1.0,473.0,14.0,1.09487,0.819345
African American,14,Right,20,Female,Yes,English,A,475,0,8,8,180.0,1.0,1.0,992.663,1.0,474.0,14.0,1.19181,0.924419
African American,14,Right,20,Female,Yes,English,A,476,1,0,0,0.0,0.0,1.0,808.331,1.0,475.0,14.0,1.0541,0.944566
African American,14,Right,20,Female,Yes,English,A,477,1,8,16,180.0,1.0,1.0,1161.88,1.0,476.0,14.0,1.06037,0.985542
African American,14,Right,20,Female,Yes,English,A,478,1,8,8,180.0,1.0,1.0,764.5,1.0,477.0,14.0,1.03241,0.930254
African American,14,Right,20,Female,Yes,English,A,479,0,16,0,0.0,0.0,1.0,884.889,1.0,478.0,14.0,1.09533,0.84646
African American,14,Right,20,Female,Yes,English,A,480,1,0,16,0.0,0.0,1.0,739.589,1.0,479.0,14.0,1.14984,0.892602
African American,14,Right,20,Female,Yes,English,A,481,1,4,16,0.0,0.0,1.0,776.775,1.0,480.0,15.0,1.1328,0.955162
African American,14,Right,20,Female,Yes,English,A,482,0,0,16,180.0,1.0,1.0,662.042,1.0,481.0,15.0,1.01341,0.937552
African American,14,Right,20,Female,Yes,English,A,483,1,4,0,0.0,0.0,1.0,663.493,1.0,482.0,15.0,1.0307,0.887375
African American,14,Right,20,Female,Yes,English,A,484,0,16,8,0.0,0.0,1.0,1020.01,1.0,483.0,15.0,1.14354,0.956671
African American,14,Right,20,Female,Yes,English,A,485,0,4,16,0.0,0.0,1.0,533.019,1.0,484.0,15.0,1.19591,0.858015
African American,14,Right,20,Female,Yes,English,A,486,1,0,4,0.0,0.0,1.0,953.333,1.0,485.0,15.0,1.01958,0.928953
African American,14,Right,20,Female,Yes,English,A,487,1,8,8,180.0,1.0,1.0,520.004,1.0,486.0,15.0,1.12994,0.978827
African American,14,Right,20,Female,Yes,English,A,488,0,0,0,180.0,1.0,1.0,653.575,1.0,487.0,15.0,1.00653,0.965241
African American,14,Right,20,Female,Yes,English,A,489,1,16,8,180.0,1.0,1.0,1171.77,1.0,488.0,15.0,1.01719,0.877135
African American,14,Right,20,Female,Yes,English,A,490,0,4,0,180.0,1.0,1.0,682.098,1.0,489.0,15.0,1.15059,0.915254
African American,14,Right,20,Female,Yes,English,A,491,1,4,8,0.0,1.0,0.0,439.067,1.0,490.0,15.0,1.17139,0.803097
African American,14,Right,20,Female,Yes,English,A,492,1,16,0,0.0,0.0,1.0,886.919,1.0,491.0,15.0,1.17974,0.961652
African American,14,Right,20,Female,Yes,English,A,493,0,8,8,180.0,1.0,1.0,1062.64,1.0,492.0,15.0,1.18172,0.894654
African American,14,Right,20,Female,Yes,English,A,494,0,4,8,0.0,0.0,1.0,807.823,1.0,493.0,15.0,1.07819,0.85262
African American,14,Right,20,Female,Yes,English,A,495,0,16,16,0.0,0.0,1.0,1239.67,1.0,494.0,15.0,1.14404,0.882918
African American,14,Right,20,Female,Yes,English,A,496,0,8,4,180.0,1.0,1.0,942.286,1.0,495.0,15.0,1.05256,0.883089
African American,14,Right,20,Female,Yes,English,A,497,1,8,4,180.0,1.0,1.0,714.227,1.0,496.0,15.0,1.09824,0.888605
African American,14,Right,20,Female,Yes,English,A,498,0,8,0,0.0,0.0,1.0,1409.5,1.0,497.0,15.0,1.16205,0.897777
African American,14,Right,20,Female,Yes,English,A,499,0,0,4,180.0,1.0,1.0,1280.32,1.0,498.0,15.0,1.09011,0.812289
African American,14,Right,20,Female,Yes,English,A,500,1,16,4,0.0,0.0,1.0,1187.15,1.0,499.0,15.0,1.02329,0.990414
African American,14,Right,20,Female,Yes,English,A,501,0,4,4,180.0,1.0,1.0,964.628,1.0,500.0,15.0,1.06679,0.991587
African American,14,Right,20,Female,Yes,English,A,502,1,8,16,0.0,0.0,1.0,1285.92,1.0,501.0,15.0,1.07376,0.910451
African American,14,Right,20,Female,Yes,English,A,503,1,4,4,0.0,0.0,1.0,1505.64,1.0,502.0,15.0,1.18954,0.812912
African American,14,Right,20,Female,Yes,English,A,504,1,16,16,0.0,0.0,1.0,958.457,1.0,503.0,15.0,1.07896,0.814746
African American,14,Right,20,Female,Yes,English,A,505,1,0,0,180.0,1.0,1.0,821.565,1.0,504.0,15.0,1.15326,0.817884
African American,14,Right,20,Female,Yes,English,A,506,0,16,4,0.0,0.0,1.0,1019.53,1.0,505.0,15.0,1.1016,0.887762
African American,14,Right,20,Female,Yes,English,A,507,0,8,16,0.0,0.0,1.0,589.437,1.0,506.0,15.0,1.12221,0.846312
African American,14,Right,20,Female,Yes,English,A,508,1,8,0,180.0,1.0,1.0,1024.94,1.0,507.0,15.0,1.05391,0.953552
African American,14,Right,20,Female,Yes,English,A,509,0,0,8,180.0,1.0,1.0,799.871,1.0,508.0,15.0,1.15779,0.90099
African American,14,Right,20,Female,Yes,English,A,510,1,0,16,180.0,1.0,1.0,963.455,1.0,509.0,15.0,1.06315,0.843942
African American,14,Right,20,Female,Yes,English,A,511,1,0,8,180.0,1.0,1.0,794.187,1.0,510.0,15.0,1.02152,0.846307
African American,14,Right,20,Female,Yes,English,A,512,0,16,0,180.0,1.0,1.0,1802.02,1.0,511.0,15.0,1.05141,0.858354
African American,14,Right,20,Female,Yes,English,A,513,0,8,0,0.0,0.0,1.0,1029.74,1.0,512.0,16.0,1.0665,0.825796
African American,14,Right,20,Female,Yes,English,A,514,1,16,16,180.0,1.0,1.0,1303.74,1.0,513.0,16.0,1.08902,0.884828
African American,14,Right,20,Female,Yes,English,A,515,0,0,4,0.0,0.0,1.0,978.287,1.0,514.0,16.0,1.04222,0.917203
African American,14,Right,20,Female,Yes,English,A,516,0,16,8,180.0,1.0,1.0,1298.5,1.0,515.0,16.0,1.17589,0.861931
African American,14,Right,20,Female,Yes,English,A,517,1,16,0,0.0,0.0,1.0,944.815,1.0,516.0,16.0,1.01398,0.906736
African American,14,Right,20,Female,Yes,English,A,518,1,4,0,180.0,1.0,1.0,792.304,1.0,517.0,16.0,1.02317,0.953591
African American,14,Right,20,Female,Yes,English,A,519,0,16,4,180.0,1.0,1.0,1445.82,1.0,518.0,16.0,1.18074,0.822451
African American,14,Right,20,Female,Yes,English,A,520,0,0,0,180.0,1.0,1.0,687.765,1.0,519.0,16.0,1.19714,0.910816
African American,14,Right,20,Female,Yes,English,A,521,1,4,8,0.0,0.0,1.0,862.368,1.0,520.0,16.0,1.00234,0.94092
African American,14,Right,20,Female,Yes,English,A,522,0,16,0,180.0,1.0,1.0,744.96,1.0,521.0,16.0,1.071,0.933454
African American,14,Right,20,Female,Yes,English,A,523,1,8,0,0.0,0.0,1.0,928.735,1.0,522.0,16.0,1.12956,0.907849
African American,14,Right,20,Female,Yes,English,A,524,0,8,16,180.0,1.0,1.0,786.521,1.0,523.0,16.0,1.08307,0.896248
African American,14,Right,20,Female,Yes,English,A,525,1,8,16,0.0,0.0,1.0,1038.02,1.0,524.0,16.0,1.03662,0.812766
African American,14,Right,20,Female,Yes,English,A,526,0,8,8,0.0,0.0,1.0,593.944,1.0,525.0,16.0,1.06503,0.842009
African American,14,Right,20,Female,Yes,English,A,527,1,4,4,0.0,0.0,1.0,1321.97,1.0,526.0,16.0,1.16919,0.830873
African American,14,Right,20,Female,Yes,English,A,528,0,4,0,180.0,1.0,1.0,746.029,1.0,527.0,16.0,1.05499,0.9109
African American,14,Right,20,Female,Yes,English,A,529,1,0,0,0.0,0.0,1.0,623.937,1.0,528.0,16.0,1.1289,0.994585
African American,14,Right,20,Female,Yes,English,A,530,0,0,8,180.0,1.0,1.0,658.416,1.0,529.0,16.0,1.03355,0.952138
African American,14,Right,20,Female,Yes,English,A,531,0,4,16,180.0,1.0,1.0,893.292,1.0,530.0,16.0,1.08666,0.878905
African American,14,Right,20,Female,Yes,English,A,532,0,8,4,0.0,0.0,1.0,832.711,1.0,531.0,16.0,1.0528,0.825816
African American,14,Right,20,Female,Yes,English,A,533,1,8,4,0.0,0.0,1.0,1297.14,1.0,532.0,16.0,1.09234,0.972175
African American,14,Right,20,Female,Yes,English,A,534,0,4,4,180.0,1.0,1.0,839.96,1.0,533.0,16.0,1.08874,0.84354
African American,14,Right,20,Female,Yes,English,A,535,0,0,16,0.0,0.0,1.0,786.502,1.0,534.0,16.0,1.03859,0.923463
African American,14,Right,20,Female,Yes,English,A,536,1,16,8,180.0,1.0,1.0,1667.95,1.0,535.0,16.0,1.11252,0.86605
African American,14,Right,20,Female,Yes,English,A,537,1,8,8,0.0,0.0,1.0,1100.35,1.0,536.0,16.0,1.13538,0.959442
African American,14,Right,20,Female,Yes,English,A,538,1,16,4,0.0,0.0,1.0,1164.2,1.0,537.0,16.0,1.04968,0.975618
African American,14,Right,20,Female,Yes,English,A,539,0,4,8,180.0,1.0,1.0,1840.99,1.0,538.0,16.0,1.03198,0.804612
African American,14,Right,20,Female,Yes,English,A,540,1,0,8,180.0,1.0,1.0,954.781,1.0,539.0,16.0,1.1813,0.958099
African American,14,Right,20,Female,Yes,English,A,541,1,0,16,180.0,1.0,1.0,1256.89,1.0,540.0,16.0,1.09918,0.8443
African American,14,Right,20,Female,Yes,English,A,542,0,16,16,180.0,1.0,1.0,1200.98,1.0,541.0,16.0,1.07216,0.808773
African American,14,Right,20,Female,Yes,English,A,543,1,4,16,0.0,0.0,1.0,1011.78,1.0,542.0,16.0,1.13971,0.982528
African American,14,Right,20,Female,Yes,English,A,544,1,0,4,0.0,0.0,1.0,599.685,1.0,543.0,16.0,1.00358,0.985833
African American,14,Right,20,Female,Yes,English,A,545,1,0,8,0.0,0.0,1.0,1198.24,1.0,544.0,17.0,1.1612,0.854409
African American,14,Right,20,Female,Yes,English,A,546,1,4,16,180.0,1.0,1.0,1365.01,1.0,545.0,17.0,1.18022,0.899281
African American,14,Right,20,Female,Yes,English,A,547,1,8,16,180.0,1.0,1.0,796.853,1.0,546.0,17.0,1.02767,0.924653
African American,14,Right,20,Female,Yes,English,A,548,1,16,16,0.0,0.0,1.0,1021.86,1.0,547.0,17.0,1.19969,0.887761
African American,14,Right,20,Female,Yes,English,A,549,1,0,0,0.0,0.0,1.0,753.659,1.0,548.0,17.0,1.10377,0.89652
African American,14,Right,20,Female,Yes,English,A,550,1,16,0,0.0,0.0,1.0,851.015,1.0,549.0,17.0,1.12231,0.89295
African American,14,Right,20,Female,Yes,English,A,551,0,8,16,0.0,0.0,1.0,605.203,1.0,550.0,17.0,1.13876,0.957401
African American,14,Right,20,Female,Yes,English,A,552,1,8,0,0.0,0.0,1.0,835.58,1.0,551.0,17.0,1.09132,0.868915
African American,14,Right,20,Female,Yes,English,A,553,1,0,4,180.0,1.0,1.0,968.08,1.0,552.0,17.0,1.12752,0.936825
African American,14,Right,20,Female,Yes,English,A,554,1,0,16,180.0,1.0,1.0,779.194,1.0,553.0,17.0,1.03052,0.886763
African American,14,Right,20,Female,Yes,English,A,555,0,16,16,0.0,0.0,1.0,880.727,1.0,554.0,17.0,1.09676,0.986665
African American,14,Right,20,Female,Yes,English,A,556,0,0,0,180.0,1.0,1.0,602.442,1.0,555.0,17.0,1.11689,0.993137
African American,14,Right,20,Female,Yes,English,A,557,0,16,8,180.0,1.0,1.0,1568.37,1.0,556.0,17.0,1.14544,0.910895
African American,14,Right,20,Female,Yes,English,A,558,0,4,8,0.0,0.0,1.0,643.24,1.0,557.0,17.0,1.13954,0.956914
African American,14,Right,20,Female,Yes,English,A,559,1,8,8,0.0,0.0,1.0,1018.01,1.0,558.0,17.0,1.14238,0.883622
African American,14,Right,20,Female,Yes,English,A,560,1,16,4,0.0,0.0,1.0,1338.34,1.0,559.0,17.0,1.02849,0.82256
African American,14,Right,20,Female,Yes,English,A,561,1,16,8,0.0,0.0,1.0,947.578,1.0,560.0,17.0,1.05933,0.917541
African American,14,Right,20,Female,Yes,English,A,562,0,0,8,180.0,1.0,1.0,752.735,1.0,561.0,17.0,1.10366,0.989185
African American,14,Right,20,Female,Yes,English,A,563,1,8,4,180.0,1.0,1.0,722.246,1.0,562.0,17.0,1.18007,0.861576
African American,14,Right,20,Female,Yes,English,A,564,1,4,4,0.0,0.0,1.0,859.779,1.0,563.0,17.0,1.03262,0.916943
African American,14,Right,20,Female,Yes,English,A,565,0,16,4,180.0,1.0,1.0,720.924,1.0,564.0,17.0,1.19045,0.835611
African American,14,Right,20,Female,Yes,English,A,566,0,8,4,0.0,0.0,1.0,2234.46,1.0,565.0,17.0,1.10481,0.944983
African American,14,Right,20,Female,Yes,English,A,567,1,4,0,0.0,0.0,1.0,884.944,1.0,566.0,17.0,1.04089,0.919274
African American,14,Right,20,Female,Yes,English,A,568,1,4,8,0.0,0.0,1.0,1666.03,1.0,567.0,17.0,1.09427,0.914902
African American,14,Right,20,Female,Yes,English,A,569,0,4,0,0.0,0.0,1.0,645.022,1.0,568.0,17.0,1.11645,0.887326
African American,14,Right,20,Female,Yes,English,A,570,0,4,16,180.0,0.0,0.0,514.338,1.0,569.0,17.0,1.1382,0.869123
African American,14,Right,20,Female,Yes,English,A,571,0,0,4,180.0,1.0,1.0,641.879,1.0,570.0,17.0,1.00841,0.808728
African American,14,Right,20,Female,Yes,English,A,572,0,4,4,180.0,1.0,1.0,793.498,1.0,571.0,17.0,1.08852,0.827992
African American,14,Right,20,Female,Yes,English,A,573,0,0,16,180.0,1.0,1.0,1359.69,1.0,572.0,17.0,1.11098,0.812172
African American,14,Right,20,Female,Yes,English,A,574,0,8,0,180.0,1.0,1.0,627.88,1.0,573.0,17.0,1.08064,0.83089
African American,14,Right,20,Female,Yes,English,A,575,0,16,0,180.0,1.0,1.0,1050.71,1.0,574.0,17.0,1.18301,0.927118
African American,14,Right,20,Female,Yes,English,A,576,0,8,8,180.0,1.0,1.0,1546.01,1.0,575.0,17.0,1.03013,0.81165
African American,14,Right,20,Female,Yes,English,A,577,0,4,4,180.0,1.0,1.0,911.508,1.0,576.0,18.0,1.0591,0.923304
African American,14,Right,20,Female,Yes,English,A,578,1,8,16,0.0,0.0,1.0,1121.31,1.0,577.0,18.0,1.15057,0.837447
African American,14,Right,20,Female,Yes,English,A,579,0,4,16,0.0,0.0,1.0,914.394,1.0,578.0,18.0,1.18667,0.96097
African American,14,Right,20,Female,Yes,English,A,580,0,4,8,0.0,0.0,1.0,622.109,1.0,579.0,18.0,1.11554,0.987752
African American,14,Right,20,Female,Yes,English,A,581,0,8,0,180.0,1.0,1.0,947.933,1.0,580.0,18.0,1.09578,0.934975
African American,14,Right,20,Female,Yes,English,A,582,1,4,8,180.0,0.0,0.0,1612.1,1.0,581.0,18.0,1.06914,0.856847
African American,14,Right,20,Female,Yes,English,A,583,0,0,8,0.0,0.0,1.0,963.365,1.0,582.0,18.0,1.06364,0.870144
African American,14,Right,20,Female,Yes,English,A,584,0,8,16,0.0,0.0,1.0,810.638,1.0,583.0,18.0,1.07226,0.95931
African American,14,Right,20,Female,Yes,English,A,585,0,16,4,180.0,1.0,1.0,893.644,1.0,584.0,18.0,1.16845,0.982571
African American,14,Right,20,Female,Yes,English,A,586,0,16,0,180.0,1.0,1.0,733.977,1.0,585.0,18.0,1.00908,0.970553
African American,14,Right,20,Female,Yes,English,A,587,1,16,0,0.0,0.0,1.0,931.009,1.0,586.0,18.0,1.08499,0.855041
African American,14,Right,20,Female,Yes,English,A,588,1,16,8,180.0,1.0,1.0,1298.12,1.0,587.0,18.0,1.13021,0.953044
African American,14,Right,20,Female,Yes,English,A,589,0,0,0,180.0,1.0,1.0,674.689,1.0,588.0,18.0,1.13832,0.837003
African American,14,Right,20,Female,Yes,English,A,590,0,16,8,180.0,1.0,1.0,1416.83,1.0,589.0,18.0,1.10015,0.962417
African American,14,Right,20,Female,Yes,English,A,591,1,4,4,180.0,1.0,1.0,1166.21,1.0,590.0,18.0,1.05284,0.897463
African American,14,Right,20,Female,Yes,English,A,592,1,8,8,180.0,1.0,1.0,792.256,1.0,591.0,18.0,1.07362,0.959093
African American,14,Right,20,Female,Yes,English,A,593,0,0,16,180.0,1.0,1.0,1395.27,1.0,592.0,18.0,1.02495,0.820772
African American,14,Right,20,Female,Yes,English,A,594,1,4,0,0.0,0.0,1.0,1136.1,1.0,593.0,18.0,1.10473,0.959128
African American,14,Right,20,Female,Yes,English,A,595,1,0,16,0.0,0.0,1.0,1078.03,1.0,594.0,18.0,1.14779,0.884737
African American,14,Right,20,Female,Yes,English,A,596,1,0,4,180.0,1.0,1.0,931.732,1.0,595.0,18.0,1.02522,0.908433
African American,14,Right,20,Female,Yes,English,A,597,1,8,4,0.0,0.0,1.0,1150.46,1.0,596.0,18.0,1.10557,0.957111
African American,14,Right,20,Female,Yes,English,A,598,0,8,4,0.0,0.0,1.0,1259.43,1.0,597.0,18.0,1.19194,0.820489
African American,14,Right,20,Female,Yes,English,A,599,1,4,16,0.0,0.0,1.0,1157.42,1.0,598.0,18.0,1.0713,0.817487
African American,14,Right,20,Female,Yes,English,A,600,1,0,0,0.0,0.0,1.0,865.781,1.0,599.0,18.0,1.08533,0.979674
African American,14,Right,20,Female,Yes,English,A,601,1,0,8,0.0,0.0,1.0,910.787,1.0,600.0,18.0,1.07644,0.937359
African American,14,Right,20,Female,Yes,English,A,602,0,0,4,0.0,0.0,1.0,1563.95,1.0,601.0,18.0,1.04577,0.815547
African American,14,Right,20,Female,Yes,English,A,603,1,16,16,0.0,0.0,1.0,2211.57,1.0,602.0,18.0,1.13555,0.844065
African American,14,Right,20,Female,Yes,English,A,604,0,8,8,0.0,0.0,1.0,1130.15,1.0,603.0,18.0,1.13848,0.902185
African American,14,Right,20,Female,Yes,English,A,605,1,8,0,180.0,1.0,1.0,1110.53,1.0,604.0,18.0,1.01808,0.936628
African American,14,Right,20,Female,Yes,English,A,606,0,4,0,180.0,1.0,1.0,888.802,1.0,605.0,18.0,1.05433,0.882221
African American,14,Right,20,Female,Yes,English,A,607,1,16,4,180.0,1.0,1.0,1222.0,1.0,606.0,18.0,1.06109,0.98845
African American,14,Right,20,Female,Yes,English,A,608,0,16,16,180.0,1.0,1.0,1590.21,1.0,607.0,18.0,1.15954,0.945559
African American,14,Right,20,Female,Yes,English,A,609,0,4,0,0.0,0.0,1.0,1036.03,1.0,608.0,19.0,1.02679,0.974222
African American,14,Right,20,Female,Yes,English,A,610,0,4,8,180.0,1.0,1.0,718.562,1.0,609.0,19.0,1.16068,0.948428
African American,14,Right,20,Female,Yes,English,A,611,0,8,0,180.0,1.0,1.0,875.268,1.0,610.0,19.0,1.14292,0.845622
African American,14,Right,20,Female,Yes,English,A,612,1,16,8,180.0,1.0,1.0,1238.74,1.0,611.0,19.0,1.1033,0.867934
African American,14,Right,20,Female,Yes,English,A,613,0,16,4,0.0,0.0,1.0,1283.97,1.0,612.0,19.0,1.0618,0.947696
African American,14,Right,20,Female,Yes,English,A,614,1,0,0,0.0,0.0,1.0,981.017,1.0,613.0,19.0,1.0334,0.897439
African American,14,Right,20,Female,Yes,English,A,615,1,4,0,0.0,0.0,1.0,951.099,1.0,614.0,19.0,1.04707,0.987605
African American,14,Right,20,Female,Yes,English,A,616,1,16,0,180.0,1.0,1.0,1212.47,1.0,615.0,19.0,1.15755,0.994878
African American,14,Right,20,Female,Yes,English,A,617,1,8,16,0.0,0.0,1.0,1160.96,1.0,616.0,19.0,1.19556,0.871324
African American,14,Right,20,Female,Yes,English,A,618,1,16,4,180.0,1.0,1.0,852.556,1.0,617.0,19.0,1.14774,0.851741
African American,14,Right,20,Female,Yes,English,A,619,1,0,16,180.0,1.0,1.0,978.063,1.0,618.0,19.0,1.15357,0.866799
African American,14,Right,20,Female,Yes,English,A,620,1,16,16,0.0,0.0,1.0,1833.45,1.0,619.0,19.0,1.10825,0.996829
African American,14,Right,20,Female,Yes,English,A,621,1,8,8,0.0,0.0,1.0,1322.39,1.0,620.0,19.0,1.13812,0.862796
African American,14,Right,20,Female,Yes,English,A,622,1,8,0,0.0,0.0,1.0,1429.69,1.0,621.0,19.0,1.04622,0.905218
African American,14,Right,20,Female,Yes,English,A,623,0,16,0,0.0,0.0,1.0,719.575,1.0,622.0,19.0,1.04656,0.891827
African American,14,Right,20,Female,Yes,English,A,624,0,16,8,180.0,1.0,1.0,1005.57,1.0,623.0,19.0,1.07904,0.901062
African American,14,Right,20,Female,Yes,English,A,625,0,8,4,180.0,1.0,1.0,1073.54,1.0,624.0,19.0,1.01841,0.805973
African American,14,Right,20,Female,Yes,English,A,626,1,4,16,180.0,1.0,1.0,859.014,1.0,625.0,19.0,1.12038,0.800716
African American,14,Right,20,Female,Yes,English,A,627,0,0,16,180.0,1.0,1.0,843.07,1.0,626.0,19.0,1.17197,0.893461
African American,14,Right,20,Female,Yes,English,A,628,0,8,16,180.0,1.0,1.0,1548.28,1.0,627.0,19.0,1.18832,0.867409
African American,14,Right,20,Female,Yes,English,A,629,1,8,4,180.0,1.0,1.0,879.013,1.0,628.0,19.0,1.12594,0.988104
African American,14,Right,20,Female,Yes,English,A,630,1,0,8,180.0,1.0,1.0,862.412,1.0,629.0,19.0,1.00891,0.914168
African American,14,Right,20,Female,Yes,English,A,631,0,0,8,180.0,1.0,1.0,693.777,1.0,630.0,19.0,1.09009,0.940713
African American,14,Right,20,Female,Yes,English,A,632,0,0,4,0.0,0.0,1.0,1201.75,1.0,631.0,19.0,1.12024,0.905728
African American,14,Right,20,Female,Yes,English,A,633,0,4,4,0.0,0.0,1.0,974.722,1.0,632.0,19.0,1.17007,0.805624
African American,14,Right,20,Female,Yes,English,A,634,0,8,8,0.0,0.0,1.0,1860.51,1.0,633.0,19.0,1.08639,0.879372
African American,14,Right,20,Female,Yes,English,A,635,1,4,4,0.0,0.0,1.0,1341.86,1.0,634.0,19.0,1.05218,0.856595
African American,14,Right,20,Female,Yes,English,A,636,1,4,8,180.0,1.0,1.0,1022.61,1.0,635.0,19.0,1.15539,0.877826
African American,14,Right,20,Female,Yes,English,A,637,1,0,4,0.0,0.0,1.0,1318.48,1.0,636.0,19.0,1.11368,0.803312
African American,14,Right,20,Female,Yes,English,A,638,0,16,16,0.0,0.0,1.0,1352.84,1.0,637.0,19.0,1.12884,0.901548
African American,14,Right,20,Female,Yes,English,A,639,0,4,16,180.0,1.0,1.0,1494.95,1.0,638.0,19.0,1.09416,0.897313
African American,14,Right,20,Female,Yes,English,A,640,0,0,0,0.0,0.0,1.0,817.54,1.0,639.0,19.0,1.13971,0.83156
African American,14,Right,20,Female,Yes,English,A,641,0,16,4,180.0,1.0,1.0,1239.84,1.0,640.0,20.0,1.15274,0.891441
African American,14,Right,20,Female,Yes,English,A,642,0,4,4,180.0,1.0,1.0,1037.51,1.0,641.0,20.0,1.15927,0.977616
African American,14,Right,20,Female,Yes,English,A,643,1,16,16,0.0,0.0,1.0,1338.76,1.0,642.0,20.0,1.05688,0.98428
African American,14,Right,20,Female,Yes,English,A,644,1,0,0,0.0,0.0,1.0,626.876,1.0,643.0,20.0,1.05372,0.852702
African American,14,Right,20,Female,Yes,English,A,645,0,16,16,0.0,0.0,1.0,1512.07,1.0,644.0,20.0,1.08017,0.95557
African American,14,Right,20,Female,Yes,English,A,646,0,0,8,180.0,1.0,1.0,1378.21,1.0,645.0,20.0,1.01183,0.858634
African American,14,Right,20,Female,Yes,English,A,647,1,0,16,0.0,0.0,1.0,1064.11,1.0,646.0,20.0,1.03427,0.970259
African American,14,Right,20,Female,Yes,English,A,648,1,8,16,180.0,1.0,1.0,802.204,1.0,647.0,20.0,1.00661,0.885228
African American,14,Right,20,Female,Yes,English,A,649,0,0,16,0.0,0.0,1.0,905.714,1.0,648.0,20.0,1.07574,0.839235
African American,14,Right,20,Female,Yes,English,A,650,0,4,8,180.0,1.0,1.0,1157.73,1.0,649.0,20.0,1.04294,0.898416
African American,14,Right,20,Female,Yes,English,A,651,0,8,0,0.0,0.0,1.0,1210.64,1.0,650.0,20.0,1.13874,0.83785
African American,14,Right,20,Female,Yes,English,A,652,1,4,16,180.0,1.0,1.0,1562.74,1.0,651.0,20.0,1.15705,0.934551
African American,14,Right,20,Female,Yes,English,A,653,1,4,4,0.0,0.0,1.0,984.475,1.0,652.0,20.0,1.08603,0.997731
African American,14,Right,20,Female,Yes,English,A,654,0,8,4,180.0,1.0,1.0,931.931,1.0,653.0,20.0,1.00771,0.841146
African American,14,Right,20,Female,Yes,English,A,655,0,8,8,180.0,1.0,1.0,2084.01,1.0,654.0,20.0,1.08459,0.846818
African American,14,Right,20,Female,Yes,English,A,656,1,0,4,0.0,0.0,1.0,892.843,1.0,655.0,20.0,1.10033,0.857544
African American,14,Right,20,Female,Yes,English,A,657,1,4,8,0.0,0.0,1.0,1201.23,1.0,656.0,20.0,1.15995,0.962568
African American,14,Right,20,Female,Yes,English,A,658,1,16,0,0.0,0.0,1.0,881.459,1.0,657.0,20.0,1.10261,0.920925
African American,14,Right,20,Female,Yes,English,A,659,1,0,8,0.0,0.0,1.0,746.389,1.0,658.0,20.0,1.02772,0.953112
African American,14,Right,20,Female,Yes,English,A,660,0,4,0,0.0,0.0,1.0,645.146,1.0,659.0,20.0,1.02269,0.912074
African American,14,Right,20,Female,Yes,English,A,661,1,16,8,0.0,0.0,1.0,1470.32,1.0,660.0,20.0,1.15609,0.905507
African American,14,Right,20,Female,Yes,English,A,662,0,8,16,0.0,0.0,1.0,1060.97,1.0,661.0,20.0,1.1013,0.870349
African American,14,Right,20,Female,Yes,English,A,663,0,0,0,180.0,1.0,1.0,612.05,1.0,662.0,20.0,1.08786,0.885747
African American,14,Right,20,Female,Yes,English,A,664,1,8,0,180.0,1.0,1.0,647.407,1.0,663.0,20.0,1.18296,0.906305
African American,14,Right,20,Female,Yes,English,A,665,0,16,8,0.0,0.0,1.0,1715.55,1.0,664.0,20.0,1.16216,0.891076
African American,14,Right,20,Female,Yes,English,A,666,1,16,4,180.0,1.0,1.0,1074.42,1.0,665.0,20.0,1.16721,0.89189
African American,14,Right,20,Female,Yes,English,A,667,0,0,4,180.0,1.0,1.0,557.309,1.0,666.0,20.0,1.02336,0.941165
African American,14,Right,20,Female,Yes,English,A,668,0,4,16,0.0,0.0,1.0,849.615,1.0,667.0,20.0,1.01833,0.850926
African American,14,Right,20,Female,Yes,English,A,669,1,8,4,180.0,1.0,1.0,1756.08,1.0,668.0,20.0,1.01882,0.991367
African American,14,Right,20,Female,Yes,English,A,670,1,8,8,180.0,1.0,1.0,1208.16,1.0,669.0,20.0,1.15455,0.851606
African American,14,Right,20,Female,Yes,English,A,671,1,4,0,180.0,1.0,1.0,651.626,1.0,670.0,20.0,1.17403,0.955915
African American,14,Right,20,Female,Yes,English,A,672,0,16,0,180.0,1.0,1.0,773.127,1.0,671.0,20.0,1.06199,0.887846
African American,14,Right,20,Female,Yes,English,A,673,0,0,8,0.0,0.0,1.0,748.717,1.0,672.0,21.0,1.18858,0.904733
African American,14,Right,20,Female,Yes,English,A,674,1,0,0,0.0,0.0,1.0,676.533,1.0,673.0,21.0,1.15413,0.845499
African American,14,Right,20,Female,Yes,English,A,675,1,4,4,0.0,0.0,1.0,1163.73,1.0,674.0,21.0,1.17421,0.965537
African American,14,Right,20,Female,Yes,English,A,676,0,16,8,180.0,1.0,1.0,890.884,1.0,675.0,21.0,1.19412,0.944559
African American,14,Right,20,Female,Yes,English,A,677,1,4,0,180.0,1.0,1.0,983.743,1.0,676.0,21.0,1.03456,0.950776
African American,14,Right,20,Female,Yes,English,A,678,1,16,0,180.0,1.0,1.0,861.39,1.0,677.0,21.0,1.10383,0.937077
African American,14,Right,20,Female,Yes,English,A,679,0,16,16,180.0,1.0,1.0,753.835,1.0,678.0,21.0,1.17977,0.883195
African American,14,Right,20,Female,Yes,English,A,680,0,4,4,180.0,1.0,1.0,1012.43,1.0,679.0,21.0,1.00607,0.980358
African American,14,Right,20,Female,Yes,English,A,681,1,16,8,180.0,1.0,1.0,683.014,1.0,680.0,21.0,1.16571,0.932375
African American,14,Right,20,Female,Yes,English,A,682,1,0,8,0.0,0.0,1.0,680.979,1.0,681.0,21.0,1.03655,0.832273
African American,14,Right,20,Female,Yes,English,A,683,0,16,4,0.0,0.0,1.0,757.894,1.0,682.0,21.0,1.01345,0.845824
African American,14,Right,20,Female,Yes,English,A,684,1,8,0,180.0,1.0,1.0,755.331,1.0,683.0,21.0,1.14789,0.93444
African American,14,Right,20,Female,Yes,English,A,685,0,0,0,0.0,0.0,1.0,617.532,1.0,684.0,21.0,1.16194,0.852064
African American,14,Right,20,Female,Yes,English,A,686,1,8,16,180.0,1.0,1.0,1516.38,1.0,685.0,21.0,1.13518,0.838845
African American,14,Right,20,Female,Yes,English,A,687,0,4,16,180.0,1.0,1.0,782.842,1.0,686.0,21.0,1.00874,0.842366
African American,14,Right,20,Female,Yes,English,A,688,0,0,4,180.0,1.0,1.0,620.878,1.0,687.0,21.0,1.06416,0.859885
African American,14,Right,20,Female,Yes,English,A,689,0,0,16,0.0,0.0,1.0,786.378,1.0,688.0,21.0,1.09738,0.81453
African American,14,Right,20,Female,Yes,English,A,690,1,4,16,0.0,0.0,1.0,884.573,1.0,689.0,21.0,1.01251,0.991454
African American,14,Right,20,Female,Yes,English,A,691,1,0,4,0.0,0.0,1.0,544.386,1.0,690.0,21.0,1.17975,0.925689
African American,14,Right,20,Female,Yes,English,A,692,0,8,4,0.0,0.0,1.0,1180.35,1.0,691.0,21.0,1.16895,0.804872
African American,14,Right,20,Female,Yes,English,A,693,0,4,8,0.0,0.0,1.0,960.903,1.0,692.0,21.0,1.09672,0.865075
African American,14,Right,20,Female,Yes,English,A,694,0,8,16,180.0,1.0,1.0,674.805,1.0,693.0,21.0,1.08526,0.903469
African American,14,Right,20,Female,Yes,English,A,695,1,0,16,180.0,1.0,1.0,795.827,1.0,694.0,21.0,1.19597,0.907567
African American,14,Right,20,Female,Yes,English,A,696,0,4,0,180.0,1.0,1.0,657.293,1.0,695.0,21.0,1.05143,0.930527
African American,14,Right,20,Female,Yes,English,A,697,1,16,4,0.0,0.0,1.0,1007.56,1.0,696.0,21.0,1.13764,0.921542
African American,14,Right,20,Female,Yes,English,A,698,1,8,8,0.0,0.0,1.0,1014.97,1.0,697.0,21.0,1.05087,0.804805
African American,14,Right,20,Female,Yes,English,A,699,0,16,0,180.0,1.0,1.0,949.881,1.0,698.0,21.0,1.01519,0.894007
African American,14,Right,20,Female,Yes,English,A,700,0,8,8,0.0,0.0,1.0,1084.7,1.0,699.0,21.0,1.08162,0.869995
African American,14,Right,20,Female,Yes,English,A,701,1,16,16,180.0,1.0,1.0,878.856,1.0,700.0,21.0,1.04825,0.90879
African American,14,Right,20,Female,Yes,English,A,702,0,8,0,0.0,0.0,1.0,981.815,1.0,701.0,21.0,1.17287,0.852786
African American,14,Right,20,Female,Yes,English,A,703,1,4,8,180.0,1.0,1.0,899.491,1.0,702.0,21.0,1.18285,0.967472
African American,14,Right,20,Female,Yes,English,A,704,1,8,4,0.0,0.0,1.0,997.455,1.0,703.0,21.0,1.17435,0.861429
African American,14,Right,20,Female,Yes,English,A,705,1,0,0,0.0,0.0,1.0,689.163,1.0,704.0,22.0,1.13649,0.908834
African American,14,Right,20,Female,Yes,English,A,706,1,16,16,0.0,0.0,1.0,1150.76,1.0,705.0,22.0,1.0472,0.926058
African American,14,Right,20,Female,Yes,English,A,707,0,4,8,180.0,1.0,1.0,699.244,1.0,706.0,22.0,1.04797,0.945569
African American,14,Right,20,Female,Yes,English,A,708,0,4,16,0.0,0.0,1.0,952.623,1.0,707.0,22.0,1.00332,0.994626
African American,14,Right,20,Female,Yes,English,A,709,1,4,16,0.0,0.0,1.0,897.761,1.0,708.0,22.0,1.13773,0.811379
African American,14,Right,20,Female,Yes,English,A,710,1,16,4,180.0,1.0,1.0,905.553,1.0,709.0,22.0,1.11111,0.983634
African American,14,Right,20,Female,Yes,English,A,711,1,4,0,180.0,1.0,1.0,611.936,1.0,710.0,22.0,1.13241,0.986053
African American,14,Right,20,Female,Yes,English,A,712,0,0,8,180.0,1.0,1.0,934.118,1.0,711.0,22.0,1.12188,0.848447
African American,14,Right,20,Female,Yes,English,A,713,1,4,4,0.0,0.0,1.0,753.726,1.0,712.0,22.0,1.04115,0.912717
African American,14,Right,20,Female,Yes,English,A,714,1,0,8,180.0,1.0,1.0,738.789,1.0,713.0,22.0,1.19252,0.850061
African American,14,Right,20,Female,Yes,English,A,715,0,8,16,0.0,0.0,1.0,1017.55,1.0,714.0,22.0,1.03436,0.874644
African American,14,Right,20,Female,Yes,English,A,716,0,8,0,180.0,1.0,1.0,588.904,1.0,715.0,22.0,1.18065,0.801193
African American,14,Right,20,Female,Yes,English,A,717,0,8,4,0.0,0.0,1.0,618.043,1.0,716.0,22.0,1.07717,0.825366
African American,14,Right,20,Female,Yes,English,A,718,0,16,0,180.0,1.0,1.0,1283.36,1.0,717.0,22.0,1.14091,0.896987
African American,14,Right,20,Female,Yes,English,A,719,1,4,8,180.0,0.0,0.0,1266.2,1.0,718.0,22.0,1.00395,0.946387
African American,14,Right,20,Female,Yes,English,A,720,0,0,0,0.0,0.0,1.0,739.21,1.0,719.0,22.0,1.17906,0.822963
African American,14,Right,20,Female,Yes,English,A,721,0,16,4,180.0,1.0,1.0,709.387,1.0,720.0,22.0,1.01664,0.80645
African American,14,Right,20,Female,Yes,English,A,722,1,8,4,180.0,1.0,1.0,846.664,1.0,721.0,22.0,1.13036,0.926801
African American,14,Right,20,Female,Yes,English,A,723,0,0,4,0.0,0.0,1.0,1004.09,1.0,722.0,22.0,1.03006,0.925173
African American,14,Right,20,Female,Yes,English,A,724,0,16,16,0.0,0.0,1.0,857.988,1.0,723.0,22.0,1.11656,0.923612
African American,14,Right,20,Female,Yes,English,A,725,1,0,16,180.0,1.0,1.0,894.097,1.0,724.0,22.0,1.05069,0.853456
African American,14,Right,20,Female,Yes,English,A,726,0,0,16,180.0,1.0,1.0,1020.38,1.0,725.0,22.0,1.01251,0.884565
African American,14,Right,20,Female,Yes,English,A,727,1,16,0,180.0,1.0,1.0,951.37,1.0,726.0,22.0,1.1402,0.850431
African American,14,Right,20,Female,Yes,English,A,728,0,4,4,0.0,0.0,1.0,885.32,1.0,727.0,22.0,1.1469,0.885727
African American,14,Right,20,Female,Yes,English,A,729,0,4,0,0.0,0.0,1.0,819.43,1.0,728.0,22.0,1.12487,0.913903
African American,14,Right,20,Female,Yes,English,A,730,1,8,8,180.0,1.0,1.0,1743.2,1.0,729.0,22.0,1.13528,0.925017
African American,14,Right,20,Female,Yes,English,A,731,1,16,8,180.0,1.0,1.0,708.941,1.0,730.0,22.0,1.07295,0.928539
African American,14,Right,20,Female,Yes,English,A,732,0,8,8,0.0,0.0,1.0,825.261,1.0,731.0,22.0,1.01513,0.855564
African American,14,Right,20,Female,Yes,English,A,733,1,8,0,0.0,0.0,1.0,818.825,1.0,732.0,22.0,1.04348,0.817076
African American,14,Right,20,Female,Yes,English,A,734,1,8,16,0.0,0.0,1.0,1191.04,1.0,733.0,22.0,1.1605,0.829268
African American,14,Right,20,Female,Yes,English,A,735,0,16,8,0.0,0.0,1.0,744.497,1.0,734.0,22.0,1.08526,0.943797
African American,14,Right,20,Female,Yes,English,A,736,1,0,4,180.0,1.0,1.0,643.869,1.0,735.0,22.0,1.04821,0.982383
African American,14,Right,20,Female,Yes,English,A,737,1,8,16,180.0,1.0,1.0,725.336,1.0,736.0,23.0,1.05558,0.806472
African American,14,Right,20,Female,Yes,English,A,738,1,4,8,0.0,0.0,1.0,1200.75,1.0,737.0,23.0,1.11536,0.835393
African American,14,Right,20,Female,Yes,English,A,739,0,4,8,180.0,1.0,1.0,879.585,1.0,738.0,23.0,1.18481,0.917242
African American,14,Right,20,Female,Yes,English,A,740,1,8,8,180.0,1.0,1.0,1049.73,1.0,739.0,23.0,1.07994,0.839174
African American,14,Right,20,Female,Yes,English,A,741,1,4,4,180.0,1.0,1.0,1026.18,1.0,740.0,23.0,1.08652,0.986476
African American,14,Right,20,Female,Yes,English,A,742,0,16,16,180.0,1.0,1.0,1130.78,1.0,741.0,23.0,1.02001,0.877717
African American,14,Right,20,Female,Yes,English,A,743,0,4,4,180.0,1.0,1.0,725.011,1.0,742.0,23.0,1.18096,0.801361
African American,14,Right,20,Female,Yes,English,A,744,0,8,4,180.0,1.0,1.0,766.249,1.0,743.0,23.0,1.09753,0.944489
African American,14,Right,20,Female,Yes,English,A,745,1,16,8,180.0,1.0,1.0,732.41,1.0,744.0,23.0,1.03333,0.866514
African American,14,Right,20,Female,Yes,English,A,746,0,4,0,0.0,0.0,1.0,802.17,1.0,745.0,23.0,1.10642,0.921286
African American,14,Right,20,Female,Yes,English,A,747,0,16,8,180.0,1.0,1.0,1332.01,1.0,746.0,23.0,1.05825,0.851937
African American,14,Right,20,Female,Yes,English,A,748,0,16,0,0.0,0.0,1.0,950.834,1.0,747.0,23.0,1.10505,0.917602
African American,14,Right,20,Female,Yes,English,A,749,1,0,0,0.0,0.0,1.0,669.564,1.0,748.0,23.0,1.12006,0.961071
African American,14,Right,20,Female,Yes,English,A,750,1,16,0,0.0,0.0,1.0,1023.24,1.0,749.0,23.0,1.1574,0.954877
African American,14,Right,20,Female,Yes,English,A,751,1,16,16,0.0,0.0,1.0,1223.4,1.0,750.0,23.0,1.18952,0.89023
African American,14,Right,20,Female,Yes,English,A,752,0,16,4,0.0,0.0,1.0,1192.26,1.0,751.0,23.0,1.06421,0.99319
African American,14,Right,20,Female,Yes,English,A,753,0,0,4,180.0,1.0,1.0,627.788,1.0,752.0,23.0,1.12612,0.817604
African American,14,Right,20,Female,Yes,English,A,754,1,4,16,0.0,0.0,1.0,739.904,1.0,753.0,23.0,1.06658,0.830216
African American,14,Right,20,Female,Yes,English,A,755,1,8,4,0.0,0.0,1.0,882.48,1.0,754.0,23.0,1.03602,0.80323
African American,14,Right,20,Female,Yes,English,A,756,1,0,16,0.0,0.0,1.0,1125.78,1.0,755.0,23.0,1.06563,0.913101
African American,14,Right,20,Female,Yes,English,A,757,0,8,8,0.0,0.0,1.0,1171.99,1.0,756.0,23.0,1.06454,0.999994
African American,14,Right,20,Female,Yes,English,A,758,0,0,16,180.0,1.0,1.0,967.308,1.0,757.0,23.0,1.08395,0.909898
African American,14,Right,20,Female,Yes,English,A,759,0,8,16,0.0,0.0,1.0,913.283,1.0,758.0,23.0,1.0673,0.856167
African American,14,Right,20,Female,Yes,English,A,760,1,0,8,0.0,0.0,1.0,509.983,1.0,759.0,23.0,1.07502,0.802415
African American,14,Right,20,Female,Yes,English,A,761,1,8,0,0.0,0.0,1.0,655.787,1.0,760.0,23.0,1.17119,0.851811
African American,14,Right,20,Female,Yes,English,A,762,0,8,0,0.0,0.0,1.0,870.075,1.0,761.0,23.0,1.13409,0.986522
African American,14,Right,20,Female,Yes,English,A,763,1,16,4,180.0,0.0,0.0,703.696,1.0,762.0,23.0,1.18054,0.949085
African American,14,Right,20,Female,Yes,English,A,764,1,4,0,180.0,1.0,1.0,1156.58,1.0,763.0,23.0,1.11369,0.890501
African American,14,Right,20,Female,Yes,English,A,765,0,0,0,180.0,1.0,1.0,847.374,1.0,764.0,23.0,1.00523,0.814955
African American,14,Right,20,Female,Yes,English,A,766,0,4,16,0.0,0.0,1.0,1050.29,1.0,765.0,23.0,1.0306,0.866518
African American,14,Right,20,Female,Yes,English,A,767,0,0,8,180.0,1.0,1.0,718.721,1.0,766.0,23.0,1.0337,0.876187
African American,14,Right,20,Female,Yes,English,A,768,1,0,4,180.0,1.0,1.0,1284.23,1.0,767.0,23.0,1.1584,0.920607
