Ethnicity,Subject Number,Preferred Hand,Age,Gender,Color blind,First Language,Room,TrialNumber,background,turtles,tortoises,target_id,resp,hit,rt,ran,order,block,iti,fix_duration
White,11,Right,18,Female,Yes,English,D,1,1,0,4,0.0,0.0,1.0,1108.37,1.0,0.0,0.0,1.03531,0.80603
White,11,Right,18,Female,Yes,English,D,2,1,8,16,0.0,0.0,1.0,1059.04,1.0,1.0,0.0,1.13325,0.962462
White,11,Right,18,Female,Yes,English,D,3,0,4,0,180.0,1.0,1.0,963.394,1.0,2.0,0.0,1.13818,0.816971
White,11,Right,18,Female,Yes,English,D,4,1,4,4,0.0,0.0,1.0,646.681,1.0,3.0,0.0,1.19478,0.946058
White,11,Right,18,Female,Yes,English,D,5,1,4,8,0.0,0.0,1.0,723.751,1.0,4.0,0.0,1.18187,0.85047
White,11,Right,18,Female,Yes,English,D,6,1,8,4,180.0,1.0,1.0,1051.33,1.0,5.0,0.0,1.0823,0.815269
White,11,Right,18,Female,Yes,English,D,7,1,4,16,0.0,0.0,1.0,722.367,1.0,6.0,0.0,1.00607,0.997488
White,11,Right,18,Female,Yes,English,D,8,0,16,0,0.0,0.0,1.0,762.16,1.0,7.0,0.0,1.08766,0.947071
White,11,Right,18,Female,Yes,English,D,9,0,0,0,180.0,1.0,1.0,699.272,1.0,8.0,0.0,1.02364,0.884548
White,11,Right,18,Female,Yes,English,D,10,1,16,8,180.0,0.0,0.0,779.844,1.0,9.0,0.0,1.02332,0.831646
White,11,Right,18,Female,Yes,English,D,11,0,4,4,0.0,0.0,1.0,1478.01,1.0,10.0,0.0,1.14051,0.987549
White,11,Right,18,Female,Yes,English,D,12,0,16,8,180.0,1.0,1.0,1933.57,1.0,11.0,0.0,1.10004,0.931458
White,11,Right,18,Female,Yes,English,D,13,0,4,16,180.0,1.0,1.0,761.456,1.0,12.0,0.0,1.03455,0.845533
White,11,Right,18,Female,Yes,English,D,14,0,16,4,180.0,1.0,1.0,1314.43,1.0,13.0,0.0,1.01353,0.967147
White,11,Right,18,Female,Yes,English,D,15,0,4,8,0.0,0.0,1.0,856.079,1.0,14.0,0.0,1.16263,0.943571
White,11,Right,18,Female,Yes,English,D,16,0,8,0,0.0,0.0,1.0,1036.9,1.0,15.0,0.0,1.07184,0.900214
White,11,Right,18,Female,Yes,English,D,17,1,16,16,0.0,0.0,1.0,1204.72,1.0,16.0,0.0,1.03712,0.988576
White,11,Right,18,Female,Yes,English,D,18,1,16,4,180.0,1.0,1.0,680.288,1.0,17.0,0.0,1.05864,0.917144
White,11,Right,18,Female,Yes,English,D,19,1,16,0,180.0,1.0,1.0,1242.59,1.0,18.0,0.0,1.1122,0.800417
White,11,Right,18,Female,Yes,English,D,20,0,0,8,180.0,1.0,1.0,790.083,1.0,19.0,0.0,1.10179,0.80963
White,11,Right,18,Female,Yes,English,D,21,0,0,16,180.0,1.0,1.0,757.771,1.0,20.0,0.0,1.02444,0.924302
White,11,Right,18,Female,Yes,English,D,22,0,0,4,180.0,1.0,1.0,621.709,1.0,21.0,0.0,1.0564,0.957804
White,11,Right,18,Female,Yes,English,D,23,1,0,8,0.0,0.0,1.0,683.951,1.0,22.0,0.0,1.09826,0.863983
White,11,Right,18,Female,Yes,English,D,24,1,0,16,0.0,0.0,1.0,911.19,1.0,23.0,0.0,1.08572,0.916332
White,11,Right,18,Female,Yes,English,D,25,0,8,4,0.0,0.0,1.0,1053.1,1.0,24.0,0.0,1.18035,0.883186
White,11,Right,18,Female,Yes,English,D,26,1,4,0,0.0,0.0,1.0,578.318,1.0,25.0,0.0,1.18629,0.962813
White,11,Right,18,Female,Yes,English,D,27,1,8,8,180.0,1.0,1.0,1225.27,1.0,26.0,0.0,1.05342,0.821805
White,11,Right,18,Female,Yes,English,D,28,0,16,16,0.0,0.0,1.0,921.074,1.0,27.0,0.0,1.11486,0.929992
White,11,Right,18,Female,Yes,English,D,29,1,8,0,180.0,1.0,1.0,956.213,1.0,28.0,0.0,1.07729,0.953711
White,11,Right,18,Female,Yes,English,D,30,0,8,16,180.0,1.0,1.0,646.672,1.0,29.0,0.0,1.03046,0.808974
White,11,Right,18,Female,Yes,English,D,31,0,8,8,180.0,1.0,1.0,963.267,1.0,30.0,0.0,1.04134,0.981016
White,11,Right,18,Female,Yes,English,D,32,1,0,0,0.0,0.0,1.0,639.038,1.0,31.0,0.0,1.12203,0.972952
White,11,Right,18,Female,Yes,English,D,33,0,0,8,180.0,1.0,1.0,790.047,1.0,32.0,1.0,1.02864,0.873164
White,11,Right,18,Female,Yes,English,D,34,0,4,0,0.0,0.0,1.0,1091.95,1.0,33.0,1.0,1.157,0.960782
White,11,Right,18,Female,Yes,English,D,35,1,16,4,0.0,0.0,1.0,1473.29,1.0,34.0,1.0,1.1629,0.843982
White,11,Right,18,Female,Yes,English,D,36,0,8,16,0.0,0.0,1.0,1492.32,1.0,35.0,1.0,1.15732,0.934458
White,11,Right,18,Female,Yes,English,D,37,1,0,8,180.0,1.0,1.0,797.36,1.0,36.0,1.0,1.11299,0.880039
White,11,Right,18,Female,Yes,English,D,38,0,8,4,180.0,1.0,1.0,889.487,1.0,37.0,1.0,1.012,0.974585
White,11,Right,18,Female,Yes,English,D,39,1,0,0,0.0,0.0,1.0,499.095,1.0,38.0,1.0,1.13453,0.819373
White,11,Right,18,Female,Yes,English,D,40,0,16,16,0.0,0.0,1.0,2176.41,1.0,39.0,1.0,1.1008,0.910862
White,11,Right,18,Female,Yes,English,D,41,0,4,8,180.0,1.0,1.0,764.258,1.0,40.0,1.0,1.07341,0.836272
White,11,Right,18,Female,Yes,English,D,42,0,0,4,180.0,1.0,1.0,448.771,1.0,41.0,1.0,1.06958,0.922755
White,11,Right,18,Female,Yes,English,D,43,0,4,4,180.0,1.0,1.0,653.481,1.0,42.0,1.0,1.04857,0.842087
White,11,Right,18,Female,Yes,English,D,44,1,4,16,0.0,0.0,1.0,616.81,1.0,43.0,1.0,1.17836,0.993222
White,11,Right,18,Female,Yes,English,D,45,1,8,4,180.0,1.0,1.0,962.356,1.0,44.0,1.0,1.10451,0.959272
White,11,Right,18,Female,Yes,English,D,46,1,16,16,0.0,0.0,1.0,637.111,1.0,45.0,1.0,1.15102,0.839615
White,11,Right,18,Female,Yes,English,D,47,0,0,0,180.0,1.0,1.0,660.755,1.0,46.0,1.0,1.16376,0.869693
White,11,Right,18,Female,Yes,English,D,48,1,8,0,180.0,1.0,1.0,949.902,1.0,47.0,1.0,1.03648,0.854312
White,11,Right,18,Female,Yes,English,D,49,1,8,16,0.0,0.0,1.0,855.39,1.0,48.0,1.0,1.04555,0.804977
White,11,Right,18,Female,Yes,English,D,50,1,16,0,180.0,1.0,1.0,896.122,1.0,49.0,1.0,1.14401,0.929778
White,11,Right,18,Female,Yes,English,D,51,0,8,0,180.0,1.0,1.0,751.075,1.0,50.0,1.0,1.09047,0.940008
White,11,Right,18,Female,Yes,English,D,52,1,4,8,0.0,0.0,1.0,600.982,1.0,51.0,1.0,1.09217,0.836589
White,11,Right,18,Female,Yes,English,D,53,0,16,0,0.0,0.0,1.0,972.829,1.0,52.0,1.0,1.19633,0.931797
White,11,Right,18,Female,Yes,English,D,54,1,8,8,0.0,0.0,1.0,954.262,1.0,53.0,1.0,1.15817,0.941534
White,11,Right,18,Female,Yes,English,D,55,1,0,16,0.0,0.0,1.0,485.448,1.0,54.0,1.0,1.08842,0.880805
White,11,Right,18,Female,Yes,English,D,56,1,0,4,0.0,0.0,1.0,675.43,1.0,55.0,1.0,1.11873,0.80933
White,11,Right,18,Female,Yes,English,D,57,0,16,8,180.0,1.0,1.0,1158.13,1.0,56.0,1.0,1.12428,0.953454
White,11,Right,18,Female,Yes,English,D,58,1,4,0,180.0,1.0,1.0,843.953,1.0,57.0,1.0,1.07287,0.900401
White,11,Right,18,Female,Yes,English,D,59,0,0,16,180.0,1.0,1.0,728.384,1.0,58.0,1.0,1.05774,0.942427
White,11,Right,18,Female,Yes,English,D,60,0,8,8,0.0,0.0,1.0,653.048,1.0,59.0,1.0,1.17616,0.815749
White,11,Right,18,Female,Yes,English,D,61,1,16,8,0.0,0.0,1.0,1630.73,1.0,60.0,1.0,1.15886,0.969981
White,11,Right,18,Female,Yes,English,D,62,0,16,4,180.0,1.0,1.0,1127.58,1.0,61.0,1.0,1.10391,0.97643
White,11,Right,18,Female,Yes,English,D,63,0,4,16,180.0,1.0,1.0,625.321,1.0,62.0,1.0,1.07112,0.883956
White,11,Right,18,Female,Yes,English,D,64,1,4,4,0.0,0.0,1.0,903.732,1.0,63.0,1.0,1.07081,0.996252
White,11,Right,18,Female,Yes,English,D,65,1,16,0,0.0,0.0,1.0,649.656,1.0,64.0,2.0,1.11813,0.996689
White,11,Right,18,Female,Yes,English,D,66,1,8,4,0.0,0.0,1.0,1543.89,1.0,65.0,2.0,1.08274,0.871289
White,11,Right,18,Female,Yes,English,D,67,1,4,4,180.0,1.0,1.0,590.07,1.0,66.0,2.0,1.03654,0.812402
White,11,Right,18,Female,Yes,English,D,68,0,16,0,180.0,1.0,1.0,1250.09,1.0,67.0,2.0,1.05465,0.85545
White,11,Right,18,Female,Yes,English,D,69,1,0,8,0.0,0.0,1.0,497.303,1.0,68.0,2.0,1.01977,0.83651
White,11,Right,18,Female,Yes,English,D,70,0,0,0,180.0,1.0,1.0,704.939,1.0,69.0,2.0,1.19977,0.866141
White,11,Right,18,Female,Yes,English,D,71,0,4,16,180.0,1.0,1.0,506.453,1.0,70.0,2.0,1.06382,0.884409
White,11,Right,18,Female,Yes,English,D,72,1,16,16,180.0,1.0,1.0,819.899,1.0,71.0,2.0,1.00819,0.918459
White,11,Right,18,Female,Yes,English,D,73,1,8,16,180.0,1.0,1.0,914.671,1.0,72.0,2.0,1.0167,0.982256
White,11,Right,18,Female,Yes,English,D,74,0,4,8,180.0,1.0,1.0,551.857,1.0,73.0,2.0,1.05381,0.965928
White,11,Right,18,Female,Yes,English,D,75,0,8,16,0.0,0.0,1.0,864.567,1.0,74.0,2.0,1.15497,0.946428
White,11,Right,18,Female,Yes,English,D,76,0,0,8,0.0,0.0,1.0,614.083,1.0,75.0,2.0,1.01654,0.992536
White,11,Right,18,Female,Yes,English,D,77,0,0,16,180.0,1.0,1.0,642.767,1.0,76.0,2.0,1.19534,0.988276
White,11,Right,18,Female,Yes,English,D,78,0,16,16,180.0,1.0,1.0,932.682,1.0,77.0,2.0,1.17521,0.932767
White,11,Right,18,Female,Yes,English,D,79,1,4,8,180.0,1.0,1.0,1140.99,1.0,78.0,2.0,1.0971,0.828468
White,11,Right,18,Female,Yes,English,D,80,0,4,4,0.0,0.0,1.0,727.918,1.0,79.0,2.0,1.05456,0.991114
White,11,Right,18,Female,Yes,English,D,81,0,8,8,0.0,0.0,1.0,644.149,1.0,80.0,2.0,1.14066,0.810124
White,11,Right,18,Female,Yes,English,D,82,0,16,8,0.0,1.0,0.0,1396.9,1.0,81.0,2.0,1.142,0.956277
White,11,Right,18,Female,Yes,English,D,83,1,4,16,180.0,1.0,1.0,1358.46,1.0,82.0,2.0,1.1429,0.917774
White,11,Right,18,Female,Yes,English,D,84,1,8,0,0.0,0.0,1.0,737.047,1.0,83.0,2.0,1.17436,0.955814
White,11,Right,18,Female,Yes,English,D,85,0,8,4,0.0,0.0,1.0,936.516,1.0,84.0,2.0,1.17643,0.852961
White,11,Right,18,Female,Yes,English,D,86,1,4,0,180.0,1.0,1.0,768.024,1.0,85.0,2.0,1.19992,0.847149
White,11,Right,18,Female,Yes,English,D,87,0,4,0,0.0,0.0,1.0,804.66,1.0,86.0,2.0,1.19543,0.895097
White,11,Right,18,Female,Yes,English,D,88,0,0,4,0.0,0.0,1.0,707.909,1.0,87.0,2.0,1.00472,0.800942
White,11,Right,18,Female,Yes,English,D,89,1,0,0,180.0,1.0,1.0,665.091,1.0,88.0,2.0,1.18209,0.886562
White,11,Right,18,Female,Yes,English,D,90,1,0,16,180.0,1.0,1.0,796.503,1.0,89.0,2.0,1.08661,0.802049
White,11,Right,18,Female,Yes,English,D,91,1,0,4,180.0,1.0,1.0,546.066,1.0,90.0,2.0,1.16153,0.880188
White,11,Right,18,Female,Yes,English,D,92,1,16,4,180.0,1.0,1.0,864.807,1.0,91.0,2.0,1.19715,0.928175
White,11,Right,18,Female,Yes,English,D,93,0,8,0,0.0,1.0,0.0,644.029,1.0,92.0,2.0,1.17396,0.930048
White,11,Right,18,Female,Yes,English,D,94,1,8,8,0.0,0.0,1.0,1405.84,1.0,93.0,2.0,1.01908,0.907084
White,11,Right,18,Female,Yes,English,D,95,1,16,8,0.0,0.0,1.0,1204.75,1.0,94.0,2.0,1.0087,0.943372
White,11,Right,18,Female,Yes,English,D,96,0,16,4,0.0,0.0,1.0,825.674,1.0,95.0,2.0,1.13351,0.866194
White,11,Right,18,Female,Yes,English,D,97,0,16,0,0.0,0.0,1.0,613.958,1.0,96.0,3.0,1.00303,0.961763
White,11,Right,18,Female,Yes,English,D,98,1,4,4,0.0,0.0,1.0,873.765,1.0,97.0,3.0,1.07888,0.901875
White,11,Right,18,Female,Yes,English,D,99,0,4,8,0.0,0.0,1.0,518.575,1.0,98.0,3.0,1.14484,0.825869
White,11,Right,18,Female,Yes,English,D,100,1,8,16,180.0,1.0,1.0,815.51,1.0,99.0,3.0,1.116,0.901103
White,11,Right,18,Female,Yes,English,D,101,0,4,16,0.0,0.0,1.0,1133.04,1.0,100.0,3.0,1.02532,0.986374
White,11,Right,18,Female,Yes,English,D,102,0,0,0,0.0,0.0,1.0,630.868,1.0,101.0,3.0,1.11758,0.973688
White,11,Right,18,Female,Yes,English,D,103,0,8,16,0.0,0.0,1.0,673.401,1.0,102.0,3.0,1.06616,0.83435
White,11,Right,18,Female,Yes,English,D,104,1,4,0,0.0,0.0,1.0,948.44,1.0,103.0,3.0,1.1617,0.800135
White,11,Right,18,Female,Yes,English,D,105,0,16,8,0.0,0.0,1.0,725.411,1.0,104.0,3.0,1.12989,0.866702
White,11,Right,18,Female,Yes,English,D,106,1,16,16,180.0,1.0,1.0,936.455,1.0,105.0,3.0,1.02234,0.81292
White,11,Right,18,Female,Yes,English,D,107,1,16,0,0.0,0.0,1.0,988.882,1.0,106.0,3.0,1.16234,0.944354
White,11,Right,18,Female,Yes,English,D,108,1,8,0,180.0,1.0,1.0,617.952,1.0,107.0,3.0,1.04305,0.983405
White,11,Right,18,Female,Yes,English,D,109,1,0,0,180.0,1.0,1.0,632.782,1.0,108.0,3.0,1.13955,0.824108
White,11,Right,18,Female,Yes,English,D,110,0,16,16,180.0,1.0,1.0,789.345,1.0,109.0,3.0,1.13004,0.822411
White,11,Right,18,Female,Yes,English,D,111,0,8,8,0.0,0.0,1.0,782.263,1.0,110.0,3.0,1.16913,0.845255
White,11,Right,18,Female,Yes,English,D,112,1,4,16,180.0,1.0,1.0,786.265,1.0,111.0,3.0,1.09345,0.834289
White,11,Right,18,Female,Yes,English,D,113,0,8,4,0.0,0.0,1.0,911.539,1.0,112.0,3.0,1.00543,0.857312
White,11,Right,18,Female,Yes,English,D,114,1,0,4,180.0,1.0,1.0,737.257,1.0,113.0,3.0,1.05024,0.917112
White,11,Right,18,Female,Yes,English,D,115,1,4,8,180.0,1.0,1.0,1278.46,1.0,114.0,3.0,1.03889,0.853117
White,11,Right,18,Female,Yes,English,D,116,1,0,16,180.0,1.0,1.0,712.153,1.0,115.0,3.0,1.00162,0.852797
White,11,Right,18,Female,Yes,English,D,117,1,8,8,0.0,0.0,1.0,1261.79,1.0,116.0,3.0,1.07058,0.997898
White,11,Right,18,Female,Yes,English,D,118,0,0,16,180.0,1.0,1.0,946.376,1.0,117.0,3.0,1.13426,0.971632
White,11,Right,18,Female,Yes,English,D,119,1,0,8,0.0,0.0,1.0,1036.39,1.0,118.0,3.0,1.05829,0.90124
White,11,Right,18,Female,Yes,English,D,120,1,16,4,0.0,0.0,1.0,946.063,1.0,119.0,3.0,1.15366,0.915395
White,11,Right,18,Female,Yes,English,D,121,1,16,8,0.0,0.0,1.0,655.732,1.0,120.0,3.0,1.15075,0.941855
White,11,Right,18,Female,Yes,English,D,122,0,0,8,180.0,1.0,1.0,1128.12,1.0,121.0,3.0,1.17484,0.862048
White,11,Right,18,Female,Yes,English,D,123,0,0,4,180.0,1.0,1.0,779.263,1.0,122.0,3.0,1.04457,0.98651
White,11,Right,18,Female,Yes,English,D,124,1,8,4,180.0,1.0,1.0,1311.9,1.0,123.0,3.0,1.18483,0.846389
White,11,Right,18,Female,Yes,English,D,125,0,16,4,180.0,1.0,1.0,722.708,1.0,124.0,3.0,1.01221,0.940447
White,11,Right,18,Female,Yes,English,D,126,0,4,4,180.0,1.0,1.0,995.472,1.0,125.0,3.0,1.085,0.924086
White,11,Right,18,Female,Yes,English,D,127,0,4,0,0.0,0.0,1.0,586.92,1.0,126.0,3.0,1.14386,0.928248
White,11,Right,18,Female,Yes,English,D,128,0,8,0,180.0,1.0,1.0,857.741,1.0,127.0,3.0,1.09212,0.837248
White,11,Right,18,Female,Yes,English,D,129,0,8,4,0.0,0.0,1.0,829.195,1.0,128.0,4.0,1.15568,0.80861
White,11,Right,18,Female,Yes,English,D,130,1,0,16,180.0,1.0,1.0,719.538,1.0,129.0,4.0,1.13144,0.96405
White,11,Right,18,Female,Yes,English,D,131,1,8,16,0.0,0.0,1.0,1049.33,1.0,130.0,4.0,1.17543,0.855353
White,11,Right,18,Female,Yes,English,D,132,0,16,16,0.0,0.0,1.0,933.842,1.0,131.0,4.0,1.14958,0.862738
White,11,Right,18,Female,Yes,English,D,133,1,0,8,180.0,1.0,1.0,581.62,1.0,132.0,4.0,1.1871,0.9359
White,11,Right,18,Female,Yes,English,D,134,0,8,8,0.0,0.0,1.0,737.114,1.0,133.0,4.0,1.06902,0.836908
White,11,Right,18,Female,Yes,English,D,135,1,16,8,0.0,0.0,1.0,519.746,1.0,134.0,4.0,1.05022,0.989147
White,11,Right,18,Female,Yes,English,D,136,1,4,4,0.0,0.0,1.0,1235.48,1.0,135.0,4.0,1.03495,0.804564
White,11,Right,18,Female,Yes,English,D,137,1,4,0,180.0,1.0,1.0,709.911,1.0,136.0,4.0,1.19911,0.97793
White,11,Right,18,Female,Yes,English,D,138,0,16,0,0.0,0.0,1.0,642.486,1.0,137.0,4.0,1.1965,0.993285
White,11,Right,18,Female,Yes,English,D,139,0,0,8,180.0,1.0,1.0,829.775,1.0,138.0,4.0,1.12363,0.914292
White,11,Right,18,Female,Yes,English,D,140,1,8,8,0.0,0.0,1.0,1160.25,1.0,139.0,4.0,1.03441,0.806658
White,11,Right,18,Female,Yes,English,D,141,0,0,0,180.0,1.0,1.0,759.842,1.0,140.0,4.0,1.11641,0.970454
White,11,Right,18,Female,Yes,English,D,142,0,0,4,180.0,1.0,1.0,741.921,1.0,141.0,4.0,1.02796,0.876386
White,11,Right,18,Female,Yes,English,D,143,1,0,4,180.0,1.0,1.0,544.911,1.0,142.0,4.0,1.17546,0.811728
White,11,Right,18,Female,Yes,English,D,144,0,4,8,0.0,0.0,1.0,688.081,1.0,143.0,4.0,1.12058,0.925477
White,11,Right,18,Female,Yes,English,D,145,1,16,0,180.0,1.0,1.0,1369.73,1.0,144.0,4.0,1.04391,0.803488
White,11,Right,18,Female,Yes,English,D,146,0,4,16,180.0,1.0,1.0,965.428,1.0,145.0,4.0,1.10384,0.964286
White,11,Right,18,Female,Yes,English,D,147,1,4,16,0.0,0.0,1.0,747.279,1.0,146.0,4.0,1.07307,0.90092
White,11,Right,18,Female,Yes,English,D,148,0,4,0,0.0,0.0,1.0,760.936,1.0,147.0,4.0,1.10788,0.909694
White,11,Right,18,Female,Yes,English,D,149,0,16,8,180.0,1.0,1.0,1326.84,1.0,148.0,4.0,1.00284,0.88271
White,11,Right,18,Female,Yes,English,D,150,1,0,0,180.0,1.0,1.0,714.558,1.0,149.0,4.0,1.17609,0.883197
White,11,Right,18,Female,Yes,English,D,151,0,16,4,0.0,0.0,1.0,789.125,1.0,150.0,4.0,1.1059,0.816797
White,11,Right,18,Female,Yes,English,D,152,1,16,4,180.0,1.0,1.0,599.434,1.0,151.0,4.0,1.00318,0.843351
White,11,Right,18,Female,Yes,English,D,153,0,8,16,180.0,1.0,1.0,635.812,1.0,152.0,4.0,1.02098,0.826132
White,11,Right,18,Female,Yes,English,D,154,1,16,16,0.0,0.0,1.0,435.67,1.0,153.0,4.0,1.1703,0.997368
White,11,Right,18,Female,Yes,English,D,155,0,4,4,180.0,1.0,1.0,743.761,1.0,154.0,4.0,1.19275,0.932211
White,11,Right,18,Female,Yes,English,D,156,0,0,16,0.0,0.0,1.0,649.497,1.0,155.0,4.0,1.08338,0.884075
White,11,Right,18,Female,Yes,English,D,157,1,8,0,180.0,1.0,1.0,645.07,1.0,156.0,4.0,1.01566,0.92381
White,11,Right,18,Female,Yes,English,D,158,1,4,8,0.0,0.0,1.0,441.589,1.0,157.0,4.0,1.08267,0.93637
White,11,Right,18,Female,Yes,English,D,159,1,8,4,0.0,0.0,1.0,1037.13,1.0,158.0,4.0,1.19253,0.938304
White,11,Right,18,Female,Yes,English,D,160,0,8,0,180.0,1.0,1.0,689.827,1.0,159.0,4.0,1.09282,0.83476
White,11,Right,18,Female,Yes,English,D,161,0,4,16,180.0,1.0,1.0,668.887,1.0,160.0,5.0,1.19244,0.96073
White,11,Right,18,Female,Yes,English,D,162,1,8,4,180.0,1.0,1.0,653.69,1.0,161.0,5.0,1.0098,0.857414
White,11,Right,18,Female,Yes,English,D,163,1,4,8,180.0,1.0,1.0,785.493,1.0,162.0,5.0,1.0344,0.868436
White,11,Right,18,Female,Yes,English,D,164,1,4,16,0.0,0.0,1.0,735.374,1.0,163.0,5.0,1.0908,0.844677
White,11,Right,18,Female,Yes,English,D,165,0,4,8,180.0,1.0,1.0,531.006,1.0,164.0,5.0,1.18595,0.894175
White,11,Right,18,Female,Yes,English,D,166,0,16,8,180.0,1.0,1.0,2047.45,1.0,165.0,5.0,1.02934,0.829354
White,11,Right,18,Female,Yes,English,D,167,0,8,16,0.0,0.0,1.0,816.247,1.0,166.0,5.0,1.15537,0.871434
White,11,Right,18,Female,Yes,English,D,168,1,0,0,180.0,1.0,1.0,466.889,1.0,167.0,5.0,1.15902,0.851983
White,11,Right,18,Female,Yes,English,D,169,1,16,4,180.0,1.0,1.0,1305.7,1.0,168.0,5.0,1.18464,0.948363
White,11,Right,18,Female,Yes,English,D,170,0,8,0,0.0,1.0,0.0,693.6,1.0,169.0,5.0,1.01231,0.983219
White,11,Right,18,Female,Yes,English,D,171,1,16,8,0.0,0.0,1.0,579.844,1.0,170.0,5.0,1.16431,0.813617
White,11,Right,18,Female,Yes,English,D,172,1,16,16,0.0,0.0,1.0,784.099,1.0,171.0,5.0,1.03343,0.978876
White,11,Right,18,Female,Yes,English,D,173,1,4,0,180.0,1.0,1.0,978.037,1.0,172.0,5.0,1.03316,0.818424
White,11,Right,18,Female,Yes,English,D,174,1,8,8,0.0,0.0,1.0,646.909,1.0,173.0,5.0,1.05773,0.90874
White,11,Right,18,Female,Yes,English,D,175,0,16,16,180.0,1.0,1.0,1067.08,1.0,174.0,5.0,1.19213,0.874838
White,11,Right,18,Female,Yes,English,D,176,0,0,8,0.0,0.0,1.0,611.161,1.0,175.0,5.0,1.07509,0.931127
White,11,Right,18,Female,Yes,English,D,177,0,8,4,180.0,1.0,1.0,766.641,1.0,176.0,5.0,1.10389,0.865403
White,11,Right,18,Female,Yes,English,D,178,0,0,0,0.0,0.0,1.0,507.237,1.0,177.0,5.0,1.09982,0.852814
White,11,Right,18,Female,Yes,English,D,179,0,0,4,0.0,0.0,1.0,534.633,1.0,178.0,5.0,1.04891,0.851954
White,11,Right,18,Female,Yes,English,D,180,1,16,0,0.0,0.0,1.0,637.609,1.0,179.0,5.0,1.14894,0.846247
White,11,Right,18,Female,Yes,English,D,181,0,4,4,0.0,0.0,1.0,1132.67,1.0,180.0,5.0,1.19853,0.958322
White,11,Right,18,Female,Yes,English,D,182,0,0,16,180.0,1.0,1.0,493.855,1.0,181.0,5.0,1.04567,0.863715
White,11,Right,18,Female,Yes,English,D,183,0,16,4,0.0,0.0,1.0,1023.53,1.0,182.0,5.0,1.14292,0.880348
White,11,Right,18,Female,Yes,English,D,184,1,0,8,180.0,1.0,1.0,804.667,1.0,183.0,5.0,1.11162,0.915071
White,11,Right,18,Female,Yes,English,D,185,0,4,0,180.0,1.0,1.0,549.701,1.0,184.0,5.0,1.18598,0.829692
White,11,Right,18,Female,Yes,English,D,186,1,0,16,0.0,0.0,1.0,444.763,1.0,185.0,5.0,1.0372,0.961223
White,11,Right,18,Female,Yes,English,D,187,0,16,0,0.0,0.0,1.0,759.684,1.0,186.0,5.0,1.00102,0.985898
White,11,Right,18,Female,Yes,English,D,188,1,0,4,0.0,0.0,1.0,630.663,1.0,187.0,5.0,1.06176,0.820919
White,11,Right,18,Female,Yes,English,D,189,1,8,16,0.0,0.0,1.0,738.59,1.0,188.0,5.0,1.02717,0.922647
White,11,Right,18,Female,Yes,English,D,190,1,4,4,180.0,1.0,1.0,679.643,1.0,189.0,5.0,1.03536,0.813456
White,11,Right,18,Female,Yes,English,D,191,0,8,8,180.0,1.0,1.0,1247.09,1.0,190.0,5.0,1.00865,0.882133
White,11,Right,18,Female,Yes,English,D,192,1,8,0,180.0,1.0,1.0,419.139,1.0,191.0,5.0,1.06171,0.833347
White,11,Right,18,Female,Yes,English,D,193,1,8,16,180.0,1.0,1.0,991.404,1.0,192.0,6.0,1.15559,0.997849
White,11,Right,18,Female,Yes,English,D,194,1,8,0,0.0,0.0,1.0,672.414,1.0,193.0,6.0,1.16288,0.882004
White,11,Right,18,Female,Yes,English,D,195,0,4,16,180.0,1.0,1.0,808.887,1.0,194.0,6.0,1.18002,0.91999
White,11,Right,18,Female,Yes,English,D,196,0,16,16,0.0,0.0,1.0,925.14,1.0,195.0,6.0,1.17439,0.832747
White,11,Right,18,Female,Yes,English,D,197,0,0,8,0.0,0.0,1.0,664.886,1.0,196.0,6.0,1.0711,0.820524
White,11,Right,18,Female,Yes,English,D,198,0,0,0,0.0,0.0,1.0,518.905,1.0,197.0,6.0,1.05645,0.808712
White,11,Right,18,Female,Yes,English,D,199,1,8,8,180.0,1.0,1.0,767.779,1.0,198.0,6.0,1.00473,0.953051
White,11,Right,18,Female,Yes,English,D,200,0,0,4,180.0,1.0,1.0,874.62,1.0,199.0,6.0,1.06684,0.909775
White,11,Right,18,Female,Yes,English,D,201,1,4,0,0.0,0.0,1.0,749.439,1.0,200.0,6.0,1.0782,0.894844
White,11,Right,18,Female,Yes,English,D,202,0,0,16,0.0,0.0,1.0,1520.1,1.0,201.0,6.0,1.07842,0.988756
White,11,Right,18,Female,Yes,English,D,203,0,4,0,180.0,1.0,1.0,593.492,1.0,202.0,6.0,1.19245,0.80707
White,11,Right,18,Female,Yes,English,D,204,1,0,0,0.0,0.0,1.0,750.013,1.0,203.0,6.0,1.06527,0.885327
White,11,Right,18,Female,Yes,English,D,205,1,0,16,0.0,0.0,1.0,621.668,1.0,204.0,6.0,1.03869,0.899794
White,11,Right,18,Female,Yes,English,D,206,0,16,8,180.0,1.0,1.0,909.366,1.0,205.0,6.0,1.19285,0.887886
White,11,Right,18,Female,Yes,English,D,207,1,16,0,0.0,0.0,1.0,601.361,1.0,206.0,6.0,1.09442,0.922469
White,11,Right,18,Female,Yes,English,D,208,1,0,4,180.0,1.0,1.0,879.827,1.0,207.0,6.0,1.16184,0.910858
White,11,Right,18,Female,Yes,English,D,209,1,8,4,180.0,1.0,1.0,1423.37,1.0,208.0,6.0,1.16278,0.967533
White,11,Right,18,Female,Yes,English,D,210,1,16,16,0.0,0.0,1.0,884.44,1.0,209.0,6.0,1.03356,0.835972
White,11,Right,18,Female,Yes,English,D,211,1,4,4,180.0,1.0,1.0,644.281,1.0,210.0,6.0,1.07407,0.959354
White,11,Right,18,Female,Yes,English,D,212,1,16,4,180.0,1.0,1.0,725.52,1.0,211.0,6.0,1.19437,0.909432
White,11,Right,18,Female,Yes,English,D,213,0,16,4,0.0,0.0,1.0,950.424,1.0,212.0,6.0,1.15752,0.956921
White,11,Right,18,Female,Yes,English,D,214,0,8,8,180.0,1.0,1.0,908.947,1.0,213.0,6.0,1.16152,0.892836
White,11,Right,18,Female,Yes,English,D,215,0,8,4,0.0,0.0,1.0,1134.16,1.0,214.0,6.0,1.12908,0.832209
White,11,Right,18,Female,Yes,English,D,216,1,16,8,180.0,1.0,1.0,726.698,1.0,215.0,6.0,1.0152,0.922812
White,11,Right,18,Female,Yes,English,D,217,0,8,0,0.0,0.0,1.0,1071.46,1.0,216.0,6.0,1.14381,0.875053
White,11,Right,18,Female,Yes,English,D,218,1,0,8,180.0,1.0,1.0,917.272,1.0,217.0,6.0,1.06301,0.860461
White,11,Right,18,Female,Yes,English,D,219,0,16,0,180.0,1.0,1.0,808.846,1.0,218.0,6.0,1.10079,0.925198
White,11,Right,18,Female,Yes,English,D,220,0,8,16,0.0,0.0,1.0,905.265,1.0,219.0,6.0,1.10943,0.931993
White,11,Right,18,Female,Yes,English,D,221,0,4,8,0.0,0.0,1.0,750.313,1.0,220.0,6.0,1.12081,0.914887
White,11,Right,18,Female,Yes,English,D,222,1,4,16,180.0,1.0,1.0,822.482,1.0,221.0,6.0,1.06882,0.963099
White,11,Right,18,Female,Yes,English,D,223,0,4,4,0.0,0.0,1.0,815.883,1.0,222.0,6.0,1.16845,0.815384
White,11,Right,18,Female,Yes,English,D,224,1,4,8,180.0,1.0,1.0,852.422,1.0,223.0,6.0,1.18961,0.876629
White,11,Right,18,Female,Yes,English,D,225,0,0,16,0.0,0.0,1.0,623.921,1.0,224.0,7.0,1.18406,0.955296
White,11,Right,18,Female,Yes,English,D,226,1,0,0,180.0,1.0,1.0,551.258,1.0,225.0,7.0,1.1503,0.897704
White,11,Right,18,Female,Yes,English,D,227,0,16,4,0.0,0.0,1.0,894.05,1.0,226.0,7.0,1.07003,0.814844
White,11,Right,18,Female,Yes,English,D,228,0,4,4,0.0,0.0,1.0,877.625,1.0,227.0,7.0,1.09342,0.836778
White,11,Right,18,Female,Yes,English,D,229,1,16,8,180.0,1.0,1.0,1096.33,1.0,228.0,7.0,1.14056,0.985326
White,11,Right,18,Female,Yes,English,D,230,1,8,16,0.0,0.0,1.0,480.355,1.0,229.0,7.0,1.01459,0.831449
White,11,Right,18,Female,Yes,English,D,231,0,4,0,180.0,1.0,1.0,737.537,1.0,230.0,7.0,1.09055,0.984571
White,11,Right,18,Female,Yes,English,D,232,1,16,0,0.0,0.0,1.0,633.113,1.0,231.0,7.0,1.05385,0.844234
White,11,Right,18,Female,Yes,English,D,233,0,16,8,0.0,0.0,1.0,1276.23,1.0,232.0,7.0,1.02424,0.831739
White,11,Right,18,Female,Yes,English,D,234,1,4,8,180.0,1.0,1.0,679.885,1.0,233.0,7.0,1.01524,0.814114
White,11,Right,18,Female,Yes,English,D,235,0,8,4,180.0,1.0,1.0,1030.66,1.0,234.0,7.0,1.16297,0.970562
White,11,Right,18,Female,Yes,English,D,236,0,4,8,0.0,0.0,1.0,1147.14,1.0,235.0,7.0,1.10233,0.818307
White,11,Right,18,Female,Yes,English,D,237,0,16,16,0.0,0.0,1.0,747.081,1.0,236.0,7.0,1.10018,0.91589
White,11,Right,18,Female,Yes,English,D,238,1,16,4,180.0,1.0,1.0,662.624,1.0,237.0,7.0,1.09277,0.955683
White,11,Right,18,Female,Yes,English,D,239,0,0,0,180.0,1.0,1.0,524.656,1.0,238.0,7.0,1.19719,0.98773
White,11,Right,18,Female,Yes,English,D,240,0,8,8,180.0,1.0,1.0,865.647,1.0,239.0,7.0,1.09837,0.919124
White,11,Right,18,Female,Yes,English,D,241,1,16,16,180.0,1.0,1.0,649.706,1.0,240.0,7.0,1.16182,0.862254
White,11,Right,18,Female,Yes,English,D,242,0,8,16,180.0,1.0,1.0,782.136,1.0,241.0,7.0,1.04252,0.875942
White,11,Right,18,Female,Yes,English,D,243,1,8,0,0.0,0.0,1.0,1042.4,1.0,242.0,7.0,1.00704,0.929153
White,11,Right,18,Female,Yes,English,D,244,0,4,16,180.0,1.0,1.0,583.2,1.0,243.0,7.0,1.02358,0.880793
White,11,Right,18,Female,Yes,English,D,245,1,0,16,0.0,0.0,1.0,560.638,1.0,244.0,7.0,1.08765,0.842506
White,11,Right,18,Female,Yes,English,D,246,1,0,8,0.0,0.0,1.0,448.368,1.0,245.0,7.0,1.19196,0.97904
White,11,Right,18,Female,Yes,English,D,247,1,8,4,0.0,0.0,1.0,506.732,1.0,246.0,7.0,1.01725,0.860902
White,11,Right,18,Female,Yes,English,D,248,0,8,0,180.0,1.0,1.0,1386.21,1.0,247.0,7.0,1.04379,0.83818
White,11,Right,18,Female,Yes,English,D,249,1,4,4,0.0,0.0,1.0,624.438,1.0,248.0,7.0,1.06242,0.919023
White,11,Right,18,Female,Yes,English,D,250,1,4,0,180.0,1.0,1.0,826.895,1.0,249.0,7.0,1.12889,0.964125
White,11,Right,18,Female,Yes,English,D,251,0,0,4,0.0,1.0,0.0,764.345,1.0,250.0,7.0,1.00343,0.851279
White,11,Right,18,Female,Yes,English,D,252,1,4,16,0.0,0.0,1.0,680.997,1.0,251.0,7.0,1.03233,0.858743
White,11,Right,18,Female,Yes,English,D,253,0,16,0,180.0,1.0,1.0,1065.39,1.0,252.0,7.0,1.00572,0.973485
White,11,Right,18,Female,Yes,English,D,254,1,0,4,0.0,0.0,1.0,554.3,1.0,253.0,7.0,1.02637,0.915548
White,11,Right,18,Female,Yes,English,D,255,0,0,8,180.0,1.0,1.0,600.827,1.0,254.0,7.0,1.13474,0.819354
White,11,Right,18,Female,Yes,English,D,256,1,8,8,180.0,1.0,1.0,1001.19,1.0,255.0,7.0,1.09681,0.960481
White,11,Right,18,Female,Yes,English,D,257,0,8,16,0.0,0.0,1.0,687.037,1.0,256.0,8.0,1.01068,0.810631
White,11,Right,18,Female,Yes,English,D,258,1,4,8,0.0,0.0,1.0,1227.75,1.0,257.0,8.0,1.15184,0.920709
White,11,Right,18,Female,Yes,English,D,259,0,0,8,180.0,1.0,1.0,830.116,1.0,258.0,8.0,1.00456,0.933612
White,11,Right,18,Female,Yes,English,D,260,0,0,4,0.0,0.0,1.0,650.56,1.0,259.0,8.0,1.16063,0.931866
White,11,Right,18,Female,Yes,English,D,261,1,8,4,180.0,1.0,1.0,1128.08,1.0,260.0,8.0,1.15876,0.945527
White,11,Right,18,Female,Yes,English,D,262,1,4,4,180.0,1.0,1.0,1105.89,1.0,261.0,8.0,1.00664,0.833644
White,11,Right,18,Female,Yes,English,D,263,0,16,0,0.0,0.0,1.0,681.461,1.0,262.0,8.0,1.07541,0.839656
White,11,Right,18,Female,Yes,English,D,264,0,4,8,180.0,1.0,1.0,914.447,1.0,263.0,8.0,1.1397,0.87008
White,11,Right,18,Female,Yes,English,D,265,0,8,8,0.0,0.0,1.0,903.028,1.0,264.0,8.0,1.03425,0.818117
White,11,Right,18,Female,Yes,English,D,266,1,16,0,180.0,1.0,1.0,906.973,1.0,265.0,8.0,1.1861,0.884343
White,11,Right,18,Female,Yes,English,D,267,1,16,4,180.0,1.0,1.0,706.88,1.0,266.0,8.0,1.03846,0.920123
White,11,Right,18,Female,Yes,English,D,268,1,0,0,180.0,1.0,1.0,829.53,1.0,267.0,8.0,1.14714,0.869746
White,11,Right,18,Female,Yes,English,D,269,1,0,4,0.0,0.0,1.0,863.044,1.0,268.0,8.0,1.1077,0.835493
White,11,Right,18,Female,Yes,English,D,270,1,4,0,180.0,1.0,1.0,694.253,1.0,269.0,8.0,1.06561,0.830027
White,11,Right,18,Female,Yes,English,D,271,0,8,0,0.0,0.0,1.0,793.628,1.0,270.0,8.0,1.00679,0.99266
White,11,Right,18,Female,Yes,English,D,272,1,0,8,0.0,0.0,1.0,597.276,1.0,271.0,8.0,1.10131,0.874973
White,11,Right,18,Female,Yes,English,D,273,1,8,16,0.0,0.0,1.0,746.028,1.0,272.0,8.0,1.01235,0.807624
White,11,Right,18,Female,Yes,English,D,274,0,4,16,0.0,0.0,1.0,1151.64,1.0,273.0,8.0,1.04079,0.903954
White,11,Right,18,Female,Yes,English,D,275,1,16,16,180.0,1.0,1.0,1418.41,1.0,274.0,8.0,1.06722,0.903584
White,11,Right,18,Female,Yes,English,D,276,0,0,16,0.0,0.0,1.0,1492.26,1.0,275.0,8.0,1.06791,0.83719
White,11,Right,18,Female,Yes,English,D,277,0,4,4,0.0,0.0,1.0,659.983,1.0,276.0,8.0,1.03095,0.855773
White,11,Right,18,Female,Yes,English,D,278,0,4,0,180.0,1.0,1.0,651.624,1.0,277.0,8.0,1.1565,0.92724
White,11,Right,18,Female,Yes,English,D,279,1,8,8,180.0,1.0,1.0,829.291,1.0,278.0,8.0,1.10308,0.89723
White,11,Right,18,Female,Yes,English,D,280,0,16,16,180.0,1.0,1.0,510.367,1.0,279.0,8.0,1.09861,0.899645
White,11,Right,18,Female,Yes,English,D,281,1,8,0,180.0,1.0,1.0,894.655,1.0,280.0,8.0,1.09388,0.983618
White,11,Right,18,Female,Yes,English,D,282,0,16,4,0.0,0.0,1.0,687.382,1.0,281.0,8.0,1.10258,0.822227
White,11,Right,18,Female,Yes,English,D,283,0,16,8,180.0,1.0,1.0,717.115,1.0,282.0,8.0,1.08075,0.921476
White,11,Right,18,Female,Yes,English,D,284,1,4,16,0.0,0.0,1.0,669.627,1.0,283.0,8.0,1.16845,0.804065
White,11,Right,18,Female,Yes,English,D,285,1,0,16,180.0,1.0,1.0,645.582,1.0,284.0,8.0,1.09591,0.983802
White,11,Right,18,Female,Yes,English,D,286,1,16,8,0.0,0.0,1.0,734.535,1.0,285.0,8.0,1.13929,0.862484
White,11,Right,18,Female,Yes,English,D,287,0,8,4,180.0,1.0,1.0,1564.17,1.0,286.0,8.0,1.075,0.997227
White,11,Right,18,Female,Yes,English,D,288,0,0,0,0.0,0.0,1.0,648.433,1.0,287.0,8.0,1.11721,0.952754
White,11,Right,18,Female,Yes,English,D,289,0,16,0,180.0,1.0,1.0,831.056,1.0,288.0,9.0,1.05414,0.836426
White,11,Right,18,Female,Yes,English,D,290,1,8,0,180.0,1.0,1.0,842.313,1.0,289.0,9.0,1.18188,0.968107
White,11,Right,18,Female,Yes,English,D,291,1,16,16,180.0,1.0,1.0,623.079,1.0,290.0,9.0,1.1827,0.929924
White,11,Right,18,Female,Yes,English,D,292,0,4,8,180.0,1.0,1.0,765.417,1.0,291.0,9.0,1.14324,0.83536
White,11,Right,18,Female,Yes,English,D,293,0,8,16,180.0,1.0,1.0,740.589,1.0,292.0,9.0,1.00215,0.969552
White,11,Right,18,Female,Yes,English,D,294,0,16,8,0.0,0.0,1.0,713.152,1.0,293.0,9.0,1.18849,0.990072
White,11,Right,18,Female,Yes,English,D,295,0,16,4,0.0,0.0,1.0,749.552,1.0,294.0,9.0,1.06199,0.999742
White,11,Right,18,Female,Yes,English,D,296,1,16,4,0.0,0.0,1.0,772.053,1.0,295.0,9.0,1.17275,0.943693
White,11,Right,18,Female,Yes,English,D,297,1,4,0,0.0,0.0,1.0,639.598,1.0,296.0,9.0,1.00822,0.820462
White,11,Right,18,Female,Yes,English,D,298,0,8,0,0.0,0.0,1.0,785.378,1.0,297.0,9.0,1.10771,0.820185
White,11,Right,18,Female,Yes,English,D,299,1,8,8,180.0,1.0,1.0,887.67,1.0,298.0,9.0,1.07724,0.896054
White,11,Right,18,Female,Yes,English,D,300,1,4,16,180.0,1.0,1.0,1626.8,1.0,299.0,9.0,1.06027,0.920387
White,11,Right,18,Female,Yes,English,D,301,1,4,4,180.0,1.0,1.0,1212.89,1.0,300.0,9.0,1.04335,0.999861
White,11,Right,18,Female,Yes,English,D,302,0,0,8,0.0,0.0,1.0,820.896,1.0,301.0,9.0,1.06631,0.978724
White,11,Right,18,Female,Yes,English,D,303,1,8,16,0.0,0.0,1.0,499.883,1.0,302.0,9.0,1.08826,0.880248
White,11,Right,18,Female,Yes,English,D,304,1,0,8,0.0,0.0,1.0,702.563,1.0,303.0,9.0,1.08664,0.837907
White,11,Right,18,Female,Yes,English,D,305,1,0,0,0.0,0.0,1.0,502.452,1.0,304.0,9.0,1.01234,0.895948
White,11,Right,18,Female,Yes,English,D,306,0,8,8,0.0,0.0,1.0,1070.83,1.0,305.0,9.0,1.18629,0.937671
White,11,Right,18,Female,Yes,English,D,307,1,4,8,180.0,1.0,1.0,1324.14,1.0,306.0,9.0,1.05411,0.886712
White,11,Right,18,Female,Yes,English,D,308,0,0,4,0.0,0.0,1.0,943.789,1.0,307.0,9.0,1.13031,0.844061
White,11,Right,18,Female,Yes,English,D,309,0,4,4,180.0,1.0,1.0,980.547,1.0,308.0,9.0,1.19332,0.992104
White,11,Right,18,Female,Yes,English,D,310,1,8,4,0.0,0.0,1.0,1006.74,1.0,309.0,9.0,1.01813,0.826143
White,11,Right,18,Female,Yes,English,D,311,0,4,0,0.0,0.0,1.0,603.272,1.0,310.0,9.0,1.10798,0.894015
White,11,Right,18,Female,Yes,English,D,312,1,0,4,0.0,0.0,1.0,449.074,1.0,311.0,9.0,1.10806,0.85582
White,11,Right,18,Female,Yes,English,D,313,1,16,8,0.0,0.0,1.0,604.714,1.0,312.0,9.0,1.11966,0.998801
White,11,Right,18,Female,Yes,English,D,314,0,0,0,180.0,1.0,1.0,624.05,1.0,313.0,9.0,1.10193,0.870663
White,11,Right,18,Female,Yes,English,D,315,0,0,16,180.0,1.0,1.0,634.543,1.0,314.0,9.0,1.15476,0.832158
White,11,Right,18,Female,Yes,English,D,316,0,16,16,0.0,0.0,1.0,1077.99,1.0,315.0,9.0,1.15264,0.90073
White,11,Right,18,Female,Yes,English,D,317,1,0,16,180.0,1.0,1.0,621.353,1.0,316.0,9.0,1.16316,0.959606
White,11,Right,18,Female,Yes,English,D,318,0,8,4,180.0,1.0,1.0,694.051,1.0,317.0,9.0,1.18998,0.980524
White,11,Right,18,Female,Yes,English,D,319,0,4,16,180.0,1.0,1.0,915.951,1.0,318.0,9.0,1.07716,0.832789
White,11,Right,18,Female,Yes,English,D,320,1,16,0,180.0,1.0,1.0,1031.94,1.0,319.0,9.0,1.03737,0.986895
White,11,Right,18,Female,Yes,English,D,321,0,0,16,0.0,0.0,1.0,1353.92,1.0,320.0,10.0,1.07267,0.965452
White,11,Right,18,Female,Yes,English,D,322,1,0,4,180.0,1.0,1.0,1003.47,1.0,321.0,10.0,1.00762,0.882022
White,11,Right,18,Female,Yes,English,D,323,1,0,16,0.0,0.0,1.0,473.97,1.0,322.0,10.0,1.06475,0.947625
White,11,Right,18,Female,Yes,English,D,324,0,0,8,180.0,1.0,1.0,629.124,1.0,323.0,10.0,1.17542,0.910423
White,11,Right,18,Female,Yes,English,D,325,0,4,4,0.0,0.0,1.0,605.786,1.0,324.0,10.0,1.1513,0.854422
White,11,Right,18,Female,Yes,English,D,326,0,4,0,0.0,0.0,1.0,739.643,1.0,325.0,10.0,1.18894,0.925445
White,11,Right,18,Female,Yes,English,D,327,0,8,16,0.0,0.0,1.0,678.767,1.0,326.0,10.0,1.17076,0.835065
White,11,Right,18,Female,Yes,English,D,328,1,8,16,0.0,0.0,1.0,712.594,1.0,327.0,10.0,1.07322,0.956895
White,11,Right,18,Female,Yes,English,D,329,1,4,8,180.0,1.0,1.0,649.572,1.0,328.0,10.0,1.08578,0.998778
White,11,Right,18,Female,Yes,English,D,330,0,0,0,0.0,0.0,1.0,459.702,1.0,329.0,10.0,1.19704,0.912318
White,11,Right,18,Female,Yes,English,D,331,0,16,4,180.0,1.0,1.0,710.025,1.0,330.0,10.0,1.15807,0.885127
White,11,Right,18,Female,Yes,English,D,332,1,4,16,180.0,0.0,0.0,1994.67,1.0,331.0,10.0,1.15133,0.993895
White,11,Right,18,Female,Yes,English,D,333,0,8,4,180.0,1.0,1.0,1032.49,1.0,332.0,10.0,1.01496,0.983463
White,11,Right,18,Female,Yes,English,D,334,1,16,0,180.0,1.0,1.0,829.505,1.0,333.0,10.0,1.1834,0.931386
White,11,Right,18,Female,Yes,English,D,335,1,8,0,0.0,0.0,1.0,1020.74,1.0,334.0,10.0,1.15078,0.840777
White,11,Right,18,Female,Yes,English,D,336,1,0,0,0.0,0.0,1.0,573.875,1.0,335.0,10.0,1.10823,0.839865
White,11,Right,18,Female,Yes,English,D,337,0,16,16,180.0,1.0,1.0,724.786,1.0,336.0,10.0,1.17618,0.920813
White,11,Right,18,Female,Yes,English,D,338,0,0,4,0.0,0.0,1.0,783.362,1.0,337.0,10.0,1.13512,0.86116
White,11,Right,18,Female,Yes,English,D,339,0,8,0,180.0,1.0,1.0,605.722,1.0,338.0,10.0,1.09555,0.897105
White,11,Right,18,Female,Yes,English,D,340,1,16,4,180.0,1.0,1.0,983.584,1.0,339.0,10.0,1.17241,0.866483
White,11,Right,18,Female,Yes,English,D,341,1,8,8,180.0,1.0,1.0,671.584,1.0,340.0,10.0,1.0205,0.883407
White,11,Right,18,Female,Yes,English,D,342,0,16,8,180.0,1.0,1.0,584.607,1.0,341.0,10.0,1.12258,0.978999
White,11,Right,18,Female,Yes,English,D,343,0,4,8,0.0,0.0,1.0,1428.31,1.0,342.0,10.0,1.14419,0.909599
White,11,Right,18,Female,Yes,English,D,344,1,4,0,0.0,0.0,1.0,1018.27,1.0,343.0,10.0,1.16615,0.864822
White,11,Right,18,Female,Yes,English,D,345,0,16,0,180.0,1.0,1.0,1088.15,1.0,344.0,10.0,1.07758,0.889348
White,11,Right,18,Female,Yes,English,D,346,0,8,8,0.0,0.0,1.0,906.496,1.0,345.0,10.0,1.02502,0.935779
White,11,Right,18,Female,Yes,English,D,347,1,8,4,0.0,0.0,1.0,1060.03,1.0,346.0,10.0,1.0896,0.818612
White,11,Right,18,Female,Yes,English,D,348,1,0,8,180.0,1.0,1.0,1088.39,1.0,347.0,10.0,1.00859,0.957701
White,11,Right,18,Female,Yes,English,D,349,1,16,8,180.0,1.0,1.0,742.49,1.0,348.0,10.0,1.03474,0.983693
White,11,Right,18,Female,Yes,English,D,350,0,4,16,180.0,1.0,1.0,895.991,1.0,349.0,10.0,1.01365,0.966128
White,11,Right,18,Female,Yes,English,D,351,1,4,4,0.0,0.0,1.0,626.919,1.0,350.0,10.0,1.09831,0.962513
White,11,Right,18,Female,Yes,English,D,352,1,16,16,0.0,0.0,1.0,648.854,1.0,351.0,10.0,1.07091,0.987829
White,11,Right,18,Female,Yes,English,D,353,1,0,8,180.0,1.0,1.0,512.182,1.0,352.0,11.0,1.05492,0.875623
White,11,Right,18,Female,Yes,English,D,354,1,0,16,180.0,1.0,1.0,655.142,1.0,353.0,11.0,1.12791,0.820127
White,11,Right,18,Female,Yes,English,D,355,1,16,16,0.0,0.0,1.0,1775.29,1.0,354.0,11.0,1.16391,0.957844
White,11,Right,18,Female,Yes,English,D,356,0,4,4,180.0,1.0,1.0,790.77,1.0,355.0,11.0,1.16007,0.997606
White,11,Right,18,Female,Yes,English,D,357,0,4,8,180.0,1.0,1.0,810.562,1.0,356.0,11.0,1.17971,0.969719
White,11,Right,18,Female,Yes,English,D,358,0,0,8,180.0,1.0,1.0,659.271,1.0,357.0,11.0,1.00267,0.820741
White,11,Right,18,Female,Yes,English,D,359,1,16,0,180.0,1.0,1.0,1296.76,1.0,358.0,11.0,1.02904,0.93348
White,11,Right,18,Female,Yes,English,D,360,1,8,8,0.0,0.0,1.0,768.004,1.0,359.0,11.0,1.10723,0.868973
White,11,Right,18,Female,Yes,English,D,361,1,4,4,180.0,1.0,1.0,1323.78,1.0,360.0,11.0,1.19459,0.994211
White,11,Right,18,Female,Yes,English,D,362,1,16,4,0.0,0.0,1.0,499.222,1.0,361.0,11.0,1.09814,0.974687
White,11,Right,18,Female,Yes,English,D,363,0,0,4,0.0,0.0,1.0,616.255,1.0,362.0,11.0,1.18912,0.937876
White,11,Right,18,Female,Yes,English,D,364,0,8,8,0.0,0.0,1.0,788.314,1.0,363.0,11.0,1.0531,0.920438
White,11,Right,18,Female,Yes,English,D,365,1,0,0,180.0,1.0,1.0,604.512,1.0,364.0,11.0,1.02885,0.953729
White,11,Right,18,Female,Yes,English,D,366,0,0,0,180.0,1.0,1.0,615.016,1.0,365.0,11.0,1.17574,0.975479
White,11,Right,18,Female,Yes,English,D,367,0,16,16,180.0,1.0,1.0,866.988,1.0,366.0,11.0,1.05363,0.927767
White,11,Right,18,Female,Yes,English,D,368,0,4,16,0.0,0.0,1.0,629.303,1.0,367.0,11.0,1.12514,0.82813
White,11,Right,18,Female,Yes,English,D,369,1,4,0,0.0,0.0,1.0,1026.22,1.0,368.0,11.0,1.12657,0.926271
White,11,Right,18,Female,Yes,English,D,370,0,16,4,180.0,1.0,1.0,717.26,1.0,369.0,11.0,1.19494,0.977491
White,11,Right,18,Female,Yes,English,D,371,0,8,16,0.0,0.0,1.0,1017.86,1.0,370.0,11.0,1.19032,0.980855
White,11,Right,18,Female,Yes,English,D,372,0,16,0,0.0,0.0,1.0,701.517,1.0,371.0,11.0,1.11288,0.852368
White,11,Right,18,Female,Yes,English,D,373,1,16,8,180.0,1.0,1.0,851.878,1.0,372.0,11.0,1.11937,0.981991
White,11,Right,18,Female,Yes,English,D,374,1,0,4,180.0,1.0,1.0,878.124,1.0,373.0,11.0,1.02563,0.829439
White,11,Right,18,Female,Yes,English,D,375,0,4,0,0.0,0.0,1.0,676.074,1.0,374.0,11.0,1.076,0.980222
White,11,Right,18,Female,Yes,English,D,376,1,8,4,0.0,0.0,1.0,937.984,1.0,375.0,11.0,1.16754,0.931963
White,11,Right,18,Female,Yes,English,D,377,1,8,0,180.0,1.0,1.0,742.53,1.0,376.0,11.0,1.08066,0.863352
White,11,Right,18,Female,Yes,English,D,378,0,8,0,0.0,0.0,1.0,934.321,1.0,377.0,11.0,1.06113,0.854804
White,11,Right,18,Female,Yes,English,D,379,1,4,16,0.0,0.0,1.0,646.057,1.0,378.0,11.0,1.0124,0.814417
White,11,Right,18,Female,Yes,English,D,380,0,8,4,180.0,1.0,1.0,853.385,1.0,379.0,11.0,1.05381,0.987063
White,11,Right,18,Female,Yes,English,D,381,0,0,16,180.0,1.0,1.0,780.946,1.0,380.0,11.0,1.03775,0.854878
White,11,Right,18,Female,Yes,English,D,382,1,4,8,0.0,0.0,1.0,884.869,1.0,381.0,11.0,1.0811,0.853173
White,11,Right,18,Female,Yes,English,D,383,1,8,16,0.0,0.0,1.0,695.143,1.0,382.0,11.0,1.04939,0.913947
White,11,Right,18,Female,Yes,English,D,384,0,16,8,0.0,0.0,1.0,1084.91,1.0,383.0,11.0,1.1627,0.807002
White,11,Right,18,Female,Yes,English,D,385,0,8,8,0.0,0.0,1.0,1123.03,1.0,384.0,12.0,1.02732,0.890715
White,11,Right,18,Female,Yes,English,D,386,1,0,4,180.0,0.0,0.0,820.04,1.0,385.0,12.0,1.02905,0.831427
White,11,Right,18,Female,Yes,English,D,387,1,8,0,180.0,1.0,1.0,1081.94,1.0,386.0,12.0,1.13338,0.824015
White,11,Right,18,Female,Yes,English,D,388,1,8,4,180.0,1.0,1.0,700.113,1.0,387.0,12.0,1.10979,0.979807
White,11,Right,18,Female,Yes,English,D,389,1,0,0,180.0,1.0,1.0,539.638,1.0,388.0,12.0,1.10768,0.953891
White,11,Right,18,Female,Yes,English,D,390,0,16,16,0.0,0.0,1.0,753.361,1.0,389.0,12.0,1.07162,0.893231
White,11,Right,18,Female,Yes,English,D,391,0,8,0,180.0,1.0,1.0,558.625,1.0,390.0,12.0,1.13471,0.96256
White,11,Right,18,Female,Yes,English,D,392,1,4,0,180.0,1.0,1.0,545.238,1.0,391.0,12.0,1.10372,0.97633
White,11,Right,18,Female,Yes,English,D,393,0,0,16,180.0,1.0,1.0,536.31,1.0,392.0,12.0,1.19011,0.940142
White,11,Right,18,Female,Yes,English,D,394,1,8,16,180.0,1.0,1.0,488.904,1.0,393.0,12.0,1.06191,0.926492
White,11,Right,18,Female,Yes,English,D,395,0,4,0,180.0,1.0,1.0,583.886,1.0,394.0,12.0,1.08468,0.841572
White,11,Right,18,Female,Yes,English,D,396,1,16,8,0.0,0.0,1.0,1193.98,1.0,395.0,12.0,1.16949,0.956152
White,11,Right,18,Female,Yes,English,D,397,0,4,16,0.0,0.0,1.0,613.167,1.0,396.0,12.0,1.10761,0.871228
White,11,Right,18,Female,Yes,English,D,398,1,4,16,0.0,0.0,1.0,792.673,1.0,397.0,12.0,1.01584,0.873467
White,11,Right,18,Female,Yes,English,D,399,1,4,4,0.0,0.0,1.0,917.778,1.0,398.0,12.0,1.16565,0.978957
White,11,Right,18,Female,Yes,English,D,400,1,4,8,0.0,0.0,1.0,632.795,1.0,399.0,12.0,1.08728,0.847467
White,11,Right,18,Female,Yes,English,D,401,0,16,8,0.0,0.0,1.0,658.725,1.0,400.0,12.0,1.10308,0.882254
White,11,Right,18,Female,Yes,English,D,402,0,8,4,0.0,0.0,1.0,839.492,1.0,401.0,12.0,1.00835,0.812592
White,11,Right,18,Female,Yes,English,D,403,1,16,16,0.0,0.0,1.0,639.917,1.0,402.0,12.0,1.09168,0.849313
White,11,Right,18,Female,Yes,English,D,404,0,0,8,0.0,0.0,1.0,761.538,1.0,403.0,12.0,1.07012,0.883772
White,11,Right,18,Female,Yes,English,D,405,0,4,8,0.0,0.0,1.0,1760.79,1.0,404.0,12.0,1.03384,0.870236
White,11,Right,18,Female,Yes,English,D,406,1,16,0,180.0,1.0,1.0,638.068,1.0,405.0,12.0,1.12104,0.806109
White,11,Right,18,Female,Yes,English,D,407,0,16,4,180.0,1.0,1.0,856.69,1.0,406.0,12.0,1.01553,0.898295
White,11,Right,18,Female,Yes,English,D,408,1,16,4,0.0,0.0,1.0,931.49,1.0,407.0,12.0,1.03542,0.839247
White,11,Right,18,Female,Yes,English,D,409,0,4,4,180.0,1.0,1.0,818.357,1.0,408.0,12.0,1.01338,0.907547
White,11,Right,18,Female,Yes,English,D,410,0,0,4,180.0,1.0,1.0,575.745,1.0,409.0,12.0,1.18594,0.866124
White,11,Right,18,Female,Yes,English,D,411,0,8,16,180.0,1.0,1.0,684.775,1.0,410.0,12.0,1.13485,0.961785
White,11,Right,18,Female,Yes,English,D,412,1,0,16,180.0,1.0,1.0,750.575,1.0,411.0,12.0,1.03678,0.952851
White,11,Right,18,Female,Yes,English,D,413,1,0,8,180.0,1.0,1.0,516.131,1.0,412.0,12.0,1.15463,0.87097
White,11,Right,18,Female,Yes,English,D,414,0,16,0,0.0,0.0,1.0,1440.58,1.0,413.0,12.0,1.05228,0.975975
White,11,Right,18,Female,Yes,English,D,415,0,0,0,0.0,0.0,1.0,597.091,1.0,414.0,12.0,1.13578,0.874365
White,11,Right,18,Female,Yes,English,D,416,1,8,8,0.0,0.0,1.0,1011.39,1.0,415.0,12.0,1.17223,0.807284
White,11,Right,18,Female,Yes,English,D,417,0,4,4,180.0,1.0,1.0,688.952,1.0,416.0,13.0,1.06713,0.883109
White,11,Right,18,Female,Yes,English,D,418,1,4,8,0.0,0.0,1.0,873.018,1.0,417.0,13.0,1.16141,0.832068
White,11,Right,18,Female,Yes,English,D,419,0,16,8,0.0,0.0,1.0,650.412,1.0,418.0,13.0,1.12071,0.805267
White,11,Right,18,Female,Yes,English,D,420,0,4,8,0.0,0.0,1.0,818.703,1.0,419.0,13.0,1.04664,0.969055
White,11,Right,18,Female,Yes,English,D,421,1,4,16,180.0,1.0,1.0,585.304,1.0,420.0,13.0,1.18955,0.845273
White,11,Right,18,Female,Yes,English,D,422,0,16,0,0.0,0.0,1.0,1133.58,1.0,421.0,13.0,1.00234,0.967895
White,11,Right,18,Female,Yes,English,D,423,0,8,4,180.0,1.0,1.0,785.11,1.0,422.0,13.0,1.052,0.97548
White,11,Right,18,Female,Yes,English,D,424,0,0,16,0.0,0.0,1.0,699.76,1.0,423.0,13.0,1.00022,0.819333
White,11,Right,18,Female,Yes,English,D,425,0,0,4,180.0,1.0,1.0,876.782,1.0,424.0,13.0,1.06144,0.897241
White,11,Right,18,Female,Yes,English,D,426,0,4,0,0.0,0.0,1.0,630.446,1.0,425.0,13.0,1.01309,0.925278
White,11,Right,18,Female,Yes,English,D,427,0,16,16,0.0,0.0,1.0,732.077,1.0,426.0,13.0,1.15014,0.958741
White,11,Right,18,Female,Yes,English,D,428,1,16,0,0.0,0.0,1.0,702.997,1.0,427.0,13.0,1.02816,0.847531
White,11,Right,18,Female,Yes,English,D,429,0,16,4,180.0,1.0,1.0,550.577,1.0,428.0,13.0,1.18459,0.976338
White,11,Right,18,Female,Yes,English,D,430,1,4,0,180.0,1.0,1.0,972.565,1.0,429.0,13.0,1.02724,0.846449
White,11,Right,18,Female,Yes,English,D,431,1,0,16,0.0,0.0,1.0,719.924,1.0,430.0,13.0,1.08552,0.849524
White,11,Right,18,Female,Yes,English,D,432,1,8,8,0.0,0.0,1.0,703.136,1.0,431.0,13.0,1.16345,0.988762
White,11,Right,18,Female,Yes,English,D,433,1,0,0,180.0,1.0,1.0,542.072,1.0,432.0,13.0,1.09021,0.969655
White,11,Right,18,Female,Yes,English,D,434,0,0,0,180.0,1.0,1.0,614.598,1.0,433.0,13.0,1.07393,0.93378
White,11,Right,18,Female,Yes,English,D,435,1,16,16,180.0,1.0,1.0,2163.11,1.0,434.0,13.0,1.13938,0.957929
White,11,Right,18,Female,Yes,English,D,436,1,16,4,180.0,1.0,1.0,918.842,1.0,435.0,13.0,1.07405,0.810556
White,11,Right,18,Female,Yes,English,D,437,1,8,4,0.0,0.0,1.0,784.754,1.0,436.0,13.0,1.03045,0.880396
White,11,Right,18,Female,Yes,English,D,438,0,8,0,180.0,1.0,1.0,713.732,1.0,437.0,13.0,1.12627,0.87128
White,11,Right,18,Female,Yes,English,D,439,1,8,16,180.0,1.0,1.0,819.866,1.0,438.0,13.0,1.16499,0.94638
White,11,Right,18,Female,Yes,English,D,440,0,8,16,0.0,0.0,1.0,840.31,1.0,439.0,13.0,1.1656,0.809415
White,11,Right,18,Female,Yes,English,D,441,1,0,4,0.0,0.0,1.0,840.725,1.0,440.0,13.0,1.19221,0.852886
White,11,Right,18,Female,Yes,English,D,442,1,0,8,180.0,1.0,1.0,618.503,1.0,441.0,13.0,1.00384,0.992
White,11,Right,18,Female,Yes,English,D,443,1,8,0,0.0,0.0,1.0,751.059,1.0,442.0,13.0,1.10117,0.997358
White,11,Right,18,Female,Yes,English,D,444,0,0,8,180.0,1.0,1.0,723.737,1.0,443.0,13.0,1.04439,0.859818
White,11,Right,18,Female,Yes,English,D,445,0,8,8,180.0,1.0,1.0,739.532,1.0,444.0,13.0,1.18032,0.959548
White,11,Right,18,Female,Yes,English,D,446,0,4,16,0.0,0.0,1.0,757.14,1.0,445.0,13.0,1.02068,0.905726
White,11,Right,18,Female,Yes,English,D,447,1,4,4,180.0,1.0,1.0,706.37,1.0,446.0,13.0,1.15808,0.854619
White,11,Right,18,Female,Yes,English,D,448,1,16,8,0.0,0.0,1.0,937.306,1.0,447.0,13.0,1.18559,0.943768
White,11,Right,18,Female,Yes,English,D,449,1,0,8,0.0,0.0,1.0,582.127,1.0,448.0,14.0,1.05109,0.85398
White,11,Right,18,Female,Yes,English,D,450,0,8,4,0.0,0.0,1.0,730.179,1.0,449.0,14.0,1.14769,0.862743
White,11,Right,18,Female,Yes,English,D,451,1,8,0,180.0,1.0,1.0,698.866,1.0,450.0,14.0,1.04003,0.840449
White,11,Right,18,Female,Yes,English,D,452,1,4,0,0.0,0.0,1.0,643.832,1.0,451.0,14.0,1.04518,0.952208
White,11,Right,18,Female,Yes,English,D,453,0,0,0,180.0,1.0,1.0,480.578,1.0,452.0,14.0,1.158,0.892707
White,11,Right,18,Female,Yes,English,D,454,1,16,0,180.0,1.0,1.0,1388.56,1.0,453.0,14.0,1.02105,0.985297
White,11,Right,18,Female,Yes,English,D,455,1,0,4,180.0,1.0,1.0,721.961,1.0,454.0,14.0,1.0588,0.853221
White,11,Right,18,Female,Yes,English,D,456,0,8,0,180.0,1.0,1.0,672.135,1.0,455.0,14.0,1.12791,0.854503
White,11,Right,18,Female,Yes,English,D,457,1,16,4,180.0,1.0,1.0,602.338,1.0,456.0,14.0,1.0646,0.841021
White,11,Right,18,Female,Yes,English,D,458,0,8,16,180.0,1.0,1.0,717.435,1.0,457.0,14.0,1.17831,0.952246
White,11,Right,18,Female,Yes,English,D,459,0,16,16,180.0,1.0,1.0,677.107,1.0,458.0,14.0,1.08305,0.853566
White,11,Right,18,Female,Yes,English,D,460,1,4,8,0.0,0.0,1.0,658.373,1.0,459.0,14.0,1.10204,0.97931
White,11,Right,18,Female,Yes,English,D,461,1,8,4,0.0,0.0,1.0,762.441,1.0,460.0,14.0,1.02104,0.880195
White,11,Right,18,Female,Yes,English,D,462,0,16,8,180.0,1.0,1.0,769.73,1.0,461.0,14.0,1.19002,0.944732
White,11,Right,18,Female,Yes,English,D,463,1,4,16,180.0,1.0,1.0,800.661,1.0,462.0,14.0,1.0497,0.869372
White,11,Right,18,Female,Yes,English,D,464,1,0,16,0.0,0.0,1.0,861.084,1.0,463.0,14.0,1.03103,0.993909
White,11,Right,18,Female,Yes,English,D,465,0,4,16,0.0,0.0,1.0,825.249,1.0,464.0,14.0,1.03977,0.947929
White,11,Right,18,Female,Yes,English,D,466,0,16,0,0.0,0.0,1.0,621.124,1.0,465.0,14.0,1.10319,0.959822
White,11,Right,18,Female,Yes,English,D,467,0,0,8,180.0,1.0,1.0,629.728,1.0,466.0,14.0,1.06698,0.830756
White,11,Right,18,Female,Yes,English,D,468,1,8,8,180.0,1.0,1.0,918.953,1.0,467.0,14.0,1.10588,0.90718
White,11,Right,18,Female,Yes,English,D,469,1,16,8,0.0,0.0,1.0,947.211,1.0,468.0,14.0,1.06933,0.896899
White,11,Right,18,Female,Yes,English,D,470,0,16,4,0.0,0.0,1.0,1010.29,1.0,469.0,14.0,1.05511,0.875774
White,11,Right,18,Female,Yes,English,D,471,1,16,16,0.0,0.0,1.0,585.677,1.0,470.0,14.0,1.03799,0.965567
White,11,Right,18,Female,Yes,English,D,472,0,0,4,0.0,0.0,1.0,686.007,1.0,471.0,14.0,1.11873,0.920035
White,11,Right,18,Female,Yes,English,D,473,0,0,16,0.0,0.0,1.0,984.187,1.0,472.0,14.0,1.07773,0.883673
White,11,Right,18,Female,Yes,English,D,474,0,8,8,180.0,1.0,1.0,1092.69,1.0,473.0,14.0,1.01198,0.901985
White,11,Right,18,Female,Yes,English,D,475,0,4,8,180.0,1.0,1.0,716.59,1.0,474.0,14.0,1.05836,0.963477
White,11,Right,18,Female,Yes,English,D,476,1,0,0,180.0,1.0,1.0,615.443,1.0,475.0,14.0,1.01693,0.84603
White,11,Right,18,Female,Yes,English,D,477,1,4,4,0.0,0.0,1.0,674.404,1.0,476.0,14.0,1.12106,0.847247
White,11,Right,18,Female,Yes,English,D,478,1,8,16,180.0,1.0,1.0,1093.5,1.0,477.0,14.0,1.0096,0.824446
White,11,Right,18,Female,Yes,English,D,479,0,4,4,0.0,0.0,1.0,930.376,1.0,478.0,14.0,1.00362,0.827038
White,11,Right,18,Female,Yes,English,D,480,0,4,0,0.0,0.0,1.0,650.745,1.0,479.0,14.0,1.07051,0.915009
White,11,Right,18,Female,Yes,English,D,481,0,0,8,0.0,0.0,1.0,624.417,1.0,480.0,15.0,1.15592,0.91026
White,11,Right,18,Female,Yes,English,D,482,0,0,4,180.0,1.0,1.0,791.047,1.0,481.0,15.0,1.06515,0.841928
White,11,Right,18,Female,Yes,English,D,483,0,16,4,0.0,0.0,1.0,1286.74,1.0,482.0,15.0,1.00911,0.989386
White,11,Right,18,Female,Yes,English,D,484,1,16,16,0.0,0.0,1.0,1282.82,1.0,483.0,15.0,1.12145,0.936642
White,11,Right,18,Female,Yes,English,D,485,0,8,0,180.0,1.0,1.0,733.867,1.0,484.0,15.0,1.06869,0.872821
White,11,Right,18,Female,Yes,English,D,486,1,0,4,180.0,1.0,1.0,875.741,1.0,485.0,15.0,1.07016,0.940048
White,11,Right,18,Female,Yes,English,D,487,0,4,4,180.0,1.0,1.0,909.654,1.0,486.0,15.0,1.10277,0.974198
White,11,Right,18,Female,Yes,English,D,488,1,0,8,0.0,0.0,1.0,616.797,1.0,487.0,15.0,1.14959,0.830193
White,11,Right,18,Female,Yes,English,D,489,1,16,8,0.0,0.0,1.0,554.93,1.0,488.0,15.0,1.08873,0.90843
White,11,Right,18,Female,Yes,English,D,490,0,16,0,180.0,1.0,1.0,728.709,1.0,489.0,15.0,1.10788,0.9707
White,11,Right,18,Female,Yes,English,D,491,1,16,0,0.0,0.0,1.0,707.707,1.0,490.0,15.0,1.1999,0.999334
White,11,Right,18,Female,Yes,English,D,492,1,8,16,180.0,1.0,1.0,1086.41,1.0,491.0,15.0,1.11868,0.938412
White,11,Right,18,Female,Yes,English,D,493,1,16,4,180.0,1.0,1.0,842.387,1.0,492.0,15.0,1.05087,0.863364
White,11,Right,18,Female,Yes,English,D,494,0,8,16,0.0,0.0,1.0,1071.26,1.0,493.0,15.0,1.01689,0.923267
White,11,Right,18,Female,Yes,English,D,495,1,8,8,180.0,1.0,1.0,855.449,1.0,494.0,15.0,1.17655,0.898264
White,11,Right,18,Female,Yes,English,D,496,0,8,4,0.0,0.0,1.0,708.864,1.0,495.0,15.0,1.1055,0.816717
White,11,Right,18,Female,Yes,English,D,497,1,4,8,0.0,0.0,1.0,544.509,1.0,496.0,15.0,1.19245,0.846287
White,11,Right,18,Female,Yes,English,D,498,1,8,4,180.0,1.0,1.0,558.172,1.0,497.0,15.0,1.01587,0.930585
White,11,Right,18,Female,Yes,English,D,499,0,16,8,180.0,1.0,1.0,690.992,1.0,498.0,15.0,1.11636,0.883274
White,11,Right,18,Female,Yes,English,D,500,0,4,8,180.0,1.0,1.0,992.434,1.0,499.0,15.0,1.01863,0.896263
White,11,Right,18,Female,Yes,English,D,501,0,0,16,0.0,0.0,1.0,943.925,1.0,500.0,15.0,1.14557,0.951561
White,11,Right,18,Female,Yes,English,D,502,1,8,0,0.0,0.0,1.0,488.98,1.0,501.0,15.0,1.13354,0.847784
White,11,Right,18,Female,Yes,English,D,503,1,4,16,180.0,1.0,1.0,698.552,1.0,502.0,15.0,1.15825,0.892311
White,11,Right,18,Female,Yes,English,D,504,1,4,0,0.0,0.0,1.0,578.905,1.0,503.0,15.0,1.17056,0.806799
White,11,Right,18,Female,Yes,English,D,505,0,4,16,180.0,1.0,1.0,785.268,1.0,504.0,15.0,1.11749,0.94088
White,11,Right,18,Female,Yes,English,D,506,0,8,8,180.0,1.0,1.0,952.092,1.0,505.0,15.0,1.07689,0.868911
White,11,Right,18,Female,Yes,English,D,507,0,0,0,0.0,1.0,0.0,435.649,1.0,506.0,15.0,1.14162,0.88687
White,11,Right,18,Female,Yes,English,D,508,1,0,16,0.0,0.0,1.0,870.937,1.0,507.0,15.0,1.1637,0.958256
White,11,Right,18,Female,Yes,English,D,509,0,4,0,180.0,1.0,1.0,1405.09,1.0,508.0,15.0,1.03642,0.903831
White,11,Right,18,Female,Yes,English,D,510,1,4,4,0.0,0.0,1.0,1734.79,1.0,509.0,15.0,1.10081,0.870829
White,11,Right,18,Female,Yes,English,D,511,0,16,16,180.0,1.0,1.0,891.21,1.0,510.0,15.0,1.12032,0.95431
White,11,Right,18,Female,Yes,English,D,512,1,0,0,0.0,0.0,1.0,488.377,1.0,511.0,15.0,1.03974,0.8833
White,11,Right,18,Female,Yes,English,D,513,1,16,0,0.0,0.0,1.0,824.247,1.0,512.0,16.0,1.17194,0.950917
White,11,Right,18,Female,Yes,English,D,514,1,16,8,180.0,1.0,1.0,1201.57,1.0,513.0,16.0,1.06531,0.93416
White,11,Right,18,Female,Yes,English,D,515,0,16,8,180.0,1.0,1.0,771.38,1.0,514.0,16.0,1.1215,0.842464
White,11,Right,18,Female,Yes,English,D,516,0,0,4,180.0,1.0,1.0,594.007,1.0,515.0,16.0,1.08167,0.925664
White,11,Right,18,Female,Yes,English,D,517,0,4,8,180.0,1.0,1.0,740.424,1.0,516.0,16.0,1.18419,0.817608
White,11,Right,18,Female,Yes,English,D,518,0,8,4,180.0,1.0,1.0,975.297,1.0,517.0,16.0,1.10649,0.802578
White,11,Right,18,Female,Yes,English,D,519,1,4,8,0.0,0.0,1.0,841.725,1.0,518.0,16.0,1.05652,0.913046
White,11,Right,18,Female,Yes,English,D,520,1,0,0,0.0,0.0,1.0,595.292,1.0,519.0,16.0,1.1553,0.82474
White,11,Right,18,Female,Yes,English,D,521,1,8,4,180.0,1.0,1.0,433.978,1.0,520.0,16.0,1.15794,0.921219
White,11,Right,18,Female,Yes,English,D,522,1,8,0,180.0,1.0,1.0,1119.99,1.0,521.0,16.0,1.16197,0.991004
White,11,Right,18,Female,Yes,English,D,523,1,0,16,0.0,0.0,1.0,574.364,1.0,522.0,16.0,1.12954,0.872681
White,11,Right,18,Female,Yes,English,D,524,0,8,16,0.0,0.0,1.0,764.122,1.0,523.0,16.0,1.01092,0.882889
White,11,Right,18,Female,Yes,English,D,525,0,0,0,180.0,1.0,1.0,619.026,1.0,524.0,16.0,1.12573,0.908669
White,11,Right,18,Female,Yes,English,D,526,1,0,4,180.0,1.0,1.0,485.497,1.0,525.0,16.0,1.02389,0.871428
White,11,Right,18,Female,Yes,English,D,527,1,4,4,180.0,1.0,1.0,1395.54,1.0,526.0,16.0,1.02091,0.820897
White,11,Right,18,Female,Yes,English,D,528,0,16,16,0.0,1.0,0.0,1377.33,1.0,527.0,16.0,1.01477,0.846393
White,11,Right,18,Female,Yes,English,D,529,0,4,0,0.0,0.0,1.0,639.239,1.0,528.0,16.0,1.04287,0.927633
White,11,Right,18,Female,Yes,English,D,530,1,8,8,180.0,1.0,1.0,965.074,1.0,529.0,16.0,1.07744,0.840559
White,11,Right,18,Female,Yes,English,D,531,0,8,8,0.0,0.0,1.0,1367.35,1.0,530.0,16.0,1.19858,0.850023
White,11,Right,18,Female,Yes,English,D,532,0,4,16,180.0,1.0,1.0,817.093,1.0,531.0,16.0,1.18295,0.893874
White,11,Right,18,Female,Yes,English,D,533,1,4,16,180.0,1.0,1.0,728.313,1.0,532.0,16.0,1.17796,0.952776
White,11,Right,18,Female,Yes,English,D,534,1,0,8,180.0,1.0,1.0,668.176,1.0,533.0,16.0,1.09255,0.958958
White,11,Right,18,Female,Yes,English,D,535,0,4,4,0.0,0.0,1.0,774.886,1.0,534.0,16.0,1.11691,0.951293
White,11,Right,18,Female,Yes,English,D,536,0,16,0,0.0,1.0,0.0,715.086,1.0,535.0,16.0,1.12273,0.9646
White,11,Right,18,Female,Yes,English,D,537,0,16,4,0.0,0.0,1.0,905.841,1.0,536.0,16.0,1.04759,0.819228
White,11,Right,18,Female,Yes,English,D,538,0,0,8,0.0,0.0,1.0,763.736,1.0,537.0,16.0,1.0643,0.912531
White,11,Right,18,Female,Yes,English,D,539,0,8,0,180.0,1.0,1.0,1235.12,1.0,538.0,16.0,1.12079,0.824293
White,11,Right,18,Female,Yes,English,D,540,1,8,16,0.0,0.0,1.0,1014.04,1.0,539.0,16.0,1.18509,0.853979
White,11,Right,18,Female,Yes,English,D,541,1,16,4,0.0,0.0,1.0,1043.06,1.0,540.0,16.0,1.063,0.933905
White,11,Right,18,Female,Yes,English,D,542,0,0,16,180.0,1.0,1.0,794.977,1.0,541.0,16.0,1.00825,0.817511
White,11,Right,18,Female,Yes,English,D,543,1,4,0,0.0,0.0,1.0,725.847,1.0,542.0,16.0,1.11397,0.836566
White,11,Right,18,Female,Yes,English,D,544,1,16,16,0.0,0.0,1.0,624.394,1.0,543.0,16.0,1.17992,0.815118
White,11,Right,18,Female,Yes,English,D,545,0,0,4,0.0,0.0,1.0,1040.34,1.0,544.0,17.0,1.15413,0.919405
White,11,Right,18,Female,Yes,English,D,546,1,16,4,0.0,0.0,1.0,775.693,1.0,545.0,17.0,1.16699,0.902605
White,11,Right,18,Female,Yes,English,D,547,1,16,16,180.0,1.0,1.0,553.633,1.0,546.0,17.0,1.13548,0.81094
White,11,Right,18,Female,Yes,English,D,548,1,4,4,180.0,1.0,1.0,697.782,1.0,547.0,17.0,1.19181,0.999008
White,11,Right,18,Female,Yes,English,D,549,1,4,16,180.0,1.0,1.0,583.1,1.0,548.0,17.0,1.01519,0.85685
White,11,Right,18,Female,Yes,English,D,550,0,16,8,180.0,1.0,1.0,1004.41,1.0,549.0,17.0,1.15091,0.887594
White,11,Right,18,Female,Yes,English,D,551,1,16,0,0.0,0.0,1.0,784.748,1.0,550.0,17.0,1.18258,0.898693
White,11,Right,18,Female,Yes,English,D,552,1,0,0,0.0,0.0,1.0,674.762,1.0,551.0,17.0,1.08266,0.869018
White,11,Right,18,Female,Yes,English,D,553,0,16,0,180.0,1.0,1.0,870.568,1.0,552.0,17.0,1.19502,0.961363
White,11,Right,18,Female,Yes,English,D,554,0,16,16,180.0,1.0,1.0,691.143,1.0,553.0,17.0,1.17435,0.975707
White,11,Right,18,Female,Yes,English,D,555,0,8,8,0.0,0.0,1.0,726.764,1.0,554.0,17.0,1.14894,0.952288
White,11,Right,18,Female,Yes,English,D,556,1,8,16,0.0,0.0,1.0,564.246,1.0,555.0,17.0,1.13213,0.964079
White,11,Right,18,Female,Yes,English,D,557,0,4,4,0.0,0.0,1.0,1149.84,1.0,556.0,17.0,1.03116,0.910217
White,11,Right,18,Female,Yes,English,D,558,1,0,8,0.0,0.0,1.0,708.314,1.0,557.0,17.0,1.07364,0.984395
White,11,Right,18,Female,Yes,English,D,559,0,4,8,0.0,0.0,1.0,904.335,1.0,558.0,17.0,1.11874,0.953205
White,11,Right,18,Female,Yes,English,D,560,1,4,8,180.0,1.0,1.0,850.721,1.0,559.0,17.0,1.13725,0.869139
White,11,Right,18,Female,Yes,English,D,561,0,0,0,0.0,0.0,1.0,540.484,1.0,560.0,17.0,1.11422,0.99129
White,11,Right,18,Female,Yes,English,D,562,1,0,4,180.0,1.0,1.0,845.901,1.0,561.0,17.0,1.11601,0.807769
White,11,Right,18,Female,Yes,English,D,563,0,4,16,180.0,1.0,1.0,610.046,1.0,562.0,17.0,1.0876,0.83253
White,11,Right,18,Female,Yes,English,D,564,0,0,8,0.0,0.0,1.0,635.92,1.0,563.0,17.0,1.14412,0.873371
White,11,Right,18,Female,Yes,English,D,565,1,8,4,180.0,1.0,1.0,1374.55,1.0,564.0,17.0,1.19168,0.834138
White,11,Right,18,Female,Yes,English,D,566,0,8,16,180.0,1.0,1.0,1037.93,1.0,565.0,17.0,1.0249,0.90811
White,11,Right,18,Female,Yes,English,D,567,0,0,16,0.0,0.0,1.0,699.905,1.0,566.0,17.0,1.07262,0.816956
White,11,Right,18,Female,Yes,English,D,568,1,8,0,0.0,0.0,1.0,1042.99,1.0,567.0,17.0,1.17734,0.862507
White,11,Right,18,Female,Yes,English,D,569,1,8,8,180.0,1.0,1.0,658.816,1.0,568.0,17.0,1.19826,0.905631
White,11,Right,18,Female,Yes,English,D,570,0,8,4,0.0,0.0,1.0,795.652,1.0,569.0,17.0,1.11445,0.819033
White,11,Right,18,Female,Yes,English,D,571,0,8,0,180.0,1.0,1.0,1237.54,1.0,570.0,17.0,1.00129,0.972758
White,11,Right,18,Female,Yes,English,D,572,1,16,8,0.0,0.0,1.0,921.238,1.0,571.0,17.0,1.09626,0.952309
White,11,Right,18,Female,Yes,English,D,573,1,0,16,180.0,1.0,1.0,792.538,1.0,572.0,17.0,1.14154,0.978354
White,11,Right,18,Female,Yes,English,D,574,0,16,4,180.0,1.0,1.0,830.904,1.0,573.0,17.0,1.00143,0.908837
White,11,Right,18,Female,Yes,English,D,575,1,4,0,0.0,0.0,1.0,804.518,1.0,574.0,17.0,1.01816,0.838103
White,11,Right,18,Female,Yes,English,D,576,0,4,0,180.0,1.0,1.0,665.047,1.0,575.0,17.0,1.09917,0.942417
White,11,Right,18,Female,Yes,English,D,577,0,16,8,180.0,1.0,1.0,696.729,1.0,576.0,18.0,1.18454,0.935305
White,11,Right,18,Female,Yes,English,D,578,1,8,8,0.0,0.0,1.0,1389.9,1.0,577.0,18.0,1.13394,0.957809
White,11,Right,18,Female,Yes,English,D,579,1,8,16,0.0,0.0,1.0,954.722,1.0,578.0,18.0,1.12467,0.981791
White,11,Right,18,Female,Yes,English,D,580,1,4,0,180.0,1.0,1.0,701.586,1.0,579.0,18.0,1.1394,0.996898
White,11,Right,18,Female,Yes,English,D,581,0,0,16,0.0,0.0,1.0,701.218,1.0,580.0,18.0,1.08934,0.87861
White,11,Right,18,Female,Yes,English,D,582,0,0,0,180.0,1.0,1.0,515.363,1.0,581.0,18.0,1.16469,0.862327
White,11,Right,18,Female,Yes,English,D,583,1,0,16,0.0,0.0,1.0,502.053,1.0,582.0,18.0,1.08357,0.92331
White,11,Right,18,Female,Yes,English,D,584,0,16,4,180.0,1.0,1.0,1186.55,1.0,583.0,18.0,1.15894,0.967408
White,11,Right,18,Female,Yes,English,D,585,1,16,0,180.0,1.0,1.0,874.182,1.0,584.0,18.0,1.07013,0.909329
White,11,Right,18,Female,Yes,English,D,586,0,16,0,180.0,1.0,1.0,770.951,1.0,585.0,18.0,1.05415,0.917689
White,11,Right,18,Female,Yes,English,D,587,0,16,16,0.0,0.0,1.0,917.717,1.0,586.0,18.0,1.15858,0.995538
White,11,Right,18,Female,Yes,English,D,588,1,4,4,0.0,0.0,1.0,1424.26,1.0,587.0,18.0,1.01807,0.927683
White,11,Right,18,Female,Yes,English,D,589,0,0,4,180.0,1.0,1.0,657.136,1.0,588.0,18.0,1.02222,0.831155
White,11,Right,18,Female,Yes,English,D,590,0,8,0,0.0,0.0,1.0,776.391,1.0,589.0,18.0,1.09748,0.955632
White,11,Right,18,Female,Yes,English,D,591,1,8,0,180.0,1.0,1.0,1282.44,1.0,590.0,18.0,1.09172,0.808523
White,11,Right,18,Female,Yes,English,D,592,1,8,4,0.0,0.0,1.0,1011.31,1.0,591.0,18.0,1.11139,0.954365
White,11,Right,18,Female,Yes,English,D,593,1,16,4,0.0,0.0,1.0,628.085,1.0,592.0,18.0,1.1882,0.834043
White,11,Right,18,Female,Yes,English,D,594,1,16,16,180.0,1.0,1.0,513.481,1.0,593.0,18.0,1.01676,0.916323
White,11,Right,18,Female,Yes,English,D,595,0,4,4,180.0,1.0,1.0,1155.14,1.0,594.0,18.0,1.0331,0.991197
White,11,Right,18,Female,Yes,English,D,596,1,0,0,180.0,1.0,1.0,554.837,1.0,595.0,18.0,1.11354,0.842071
White,11,Right,18,Female,Yes,English,D,597,1,0,8,180.0,1.0,1.0,819.167,1.0,596.0,18.0,1.03964,0.982091
White,11,Right,18,Female,Yes,English,D,598,0,0,8,180.0,1.0,1.0,1144.0,1.0,597.0,18.0,1.13716,0.969793
White,11,Right,18,Female,Yes,English,D,599,1,4,8,0.0,0.0,1.0,1065.39,1.0,598.0,18.0,1.10204,0.979637
White,11,Right,18,Female,Yes,English,D,600,0,4,16,0.0,0.0,1.0,1057.58,1.0,599.0,18.0,1.02688,0.834315
White,11,Right,18,Female,Yes,English,D,601,1,0,4,0.0,0.0,1.0,440.163,1.0,600.0,18.0,1.19659,0.822598
White,11,Right,18,Female,Yes,English,D,602,0,4,0,0.0,0.0,1.0,763.184,1.0,601.0,18.0,1.06621,0.903219
White,11,Right,18,Female,Yes,English,D,603,1,4,16,0.0,0.0,1.0,915.501,1.0,602.0,18.0,1.14666,0.906917
White,11,Right,18,Female,Yes,English,D,604,0,8,8,180.0,1.0,1.0,745.326,1.0,603.0,18.0,1.15382,0.851019
White,11,Right,18,Female,Yes,English,D,605,1,16,8,0.0,0.0,1.0,1129.58,1.0,604.0,18.0,1.10024,0.83318
White,11,Right,18,Female,Yes,English,D,606,0,8,4,180.0,1.0,1.0,780.316,1.0,605.0,18.0,1.03113,0.983669
White,11,Right,18,Female,Yes,English,D,607,0,8,16,0.0,1.0,0.0,527.61,1.0,606.0,18.0,1.17238,0.967549
White,11,Right,18,Female,Yes,English,D,608,0,4,8,180.0,1.0,1.0,624.897,1.0,607.0,18.0,1.19863,0.999918
White,11,Right,18,Female,Yes,English,D,609,1,4,4,0.0,0.0,1.0,1350.89,1.0,608.0,19.0,1.17751,0.948989
White,11,Right,18,Female,Yes,English,D,610,1,0,4,180.0,1.0,1.0,856.841,1.0,609.0,19.0,1.01177,0.889052
White,11,Right,18,Female,Yes,English,D,611,0,4,16,0.0,0.0,1.0,657.556,1.0,610.0,19.0,1.07861,0.935903
White,11,Right,18,Female,Yes,English,D,612,0,16,8,0.0,0.0,1.0,772.671,1.0,611.0,19.0,1.07184,0.886041
White,11,Right,18,Female,Yes,English,D,613,1,0,0,0.0,0.0,1.0,490.548,1.0,612.0,19.0,1.04809,0.835861
White,11,Right,18,Female,Yes,English,D,614,0,16,16,0.0,0.0,1.0,924.875,1.0,613.0,19.0,1.12475,0.997914
White,11,Right,18,Female,Yes,English,D,615,0,16,4,180.0,1.0,1.0,1570.65,1.0,614.0,19.0,1.01475,0.915976
White,11,Right,18,Female,Yes,English,D,616,0,8,4,180.0,1.0,1.0,721.132,1.0,615.0,19.0,1.10467,0.979111
White,11,Right,18,Female,Yes,English,D,617,0,0,8,180.0,1.0,1.0,588.069,1.0,616.0,19.0,1.02876,0.853052
White,11,Right,18,Female,Yes,English,D,618,1,16,4,0.0,0.0,1.0,698.48,1.0,617.0,19.0,1.16526,0.987495
White,11,Right,18,Female,Yes,English,D,619,1,8,8,0.0,0.0,1.0,1282.11,1.0,618.0,19.0,1.11971,0.99052
White,11,Right,18,Female,Yes,English,D,620,1,16,0,180.0,1.0,1.0,878.112,1.0,619.0,19.0,1.07968,0.967603
White,11,Right,18,Female,Yes,English,D,621,0,0,16,0.0,0.0,1.0,683.589,1.0,620.0,19.0,1.15039,0.908765
White,11,Right,18,Female,Yes,English,D,622,0,4,4,0.0,0.0,1.0,1223.94,1.0,621.0,19.0,1.0634,0.823182
White,11,Right,18,Female,Yes,English,D,623,0,0,4,180.0,1.0,1.0,831.394,1.0,622.0,19.0,1.02643,0.916386
White,11,Right,18,Female,Yes,English,D,624,0,8,16,180.0,1.0,1.0,1050.56,1.0,623.0,19.0,1.19161,0.972728
White,11,Right,18,Female,Yes,English,D,625,0,8,8,180.0,1.0,1.0,544.815,1.0,624.0,19.0,1.16387,0.801251
White,11,Right,18,Female,Yes,English,D,626,0,4,0,180.0,1.0,1.0,673.095,1.0,625.0,19.0,1.15026,0.994222
White,11,Right,18,Female,Yes,English,D,627,1,16,8,0.0,0.0,1.0,791.764,1.0,626.0,19.0,1.01712,0.82698
White,11,Right,18,Female,Yes,English,D,628,1,8,16,0.0,0.0,1.0,1134.03,1.0,627.0,19.0,1.15341,0.916099
White,11,Right,18,Female,Yes,English,D,629,0,0,0,180.0,1.0,1.0,526.97,1.0,628.0,19.0,1.04542,0.941875
White,11,Right,18,Female,Yes,English,D,630,0,8,0,0.0,0.0,1.0,1125.74,1.0,629.0,19.0,1.05779,0.994729
White,11,Right,18,Female,Yes,English,D,631,1,0,16,180.0,1.0,1.0,651.973,1.0,630.0,19.0,1.17966,0.816401
White,11,Right,18,Female,Yes,English,D,632,1,8,4,180.0,1.0,1.0,687.375,1.0,631.0,19.0,1.12537,0.82234
White,11,Right,18,Female,Yes,English,D,633,1,4,8,0.0,0.0,1.0,703.183,1.0,632.0,19.0,1.16389,0.9129
White,11,Right,18,Female,Yes,English,D,634,1,8,0,0.0,0.0,1.0,844.083,1.0,633.0,19.0,1.07051,0.997648
White,11,Right,18,Female,Yes,English,D,635,0,4,8,180.0,1.0,1.0,763.534,1.0,634.0,19.0,1.0903,0.89028
White,11,Right,18,Female,Yes,English,D,636,1,16,16,0.0,0.0,1.0,814.458,1.0,635.0,19.0,1.07843,0.911484
White,11,Right,18,Female,Yes,English,D,637,1,0,8,180.0,1.0,1.0,666.414,1.0,636.0,19.0,1.04272,0.839265
White,11,Right,18,Female,Yes,English,D,638,1,4,0,180.0,1.0,1.0,632.557,1.0,637.0,19.0,1.11434,0.890253
White,11,Right,18,Female,Yes,English,D,639,1,4,16,180.0,1.0,1.0,483.416,1.0,638.0,19.0,1.19789,0.969484
White,11,Right,18,Female,Yes,English,D,640,0,16,0,0.0,0.0,1.0,618.134,1.0,639.0,19.0,1.09167,0.88822
White,11,Right,18,Female,Yes,English,D,641,1,8,4,180.0,1.0,1.0,879.136,1.0,640.0,20.0,1.15387,0.881459
White,11,Right,18,Female,Yes,English,D,642,1,0,4,0.0,0.0,1.0,630.938,1.0,641.0,20.0,1.10031,0.901121
White,11,Right,18,Female,Yes,English,D,643,1,4,8,0.0,0.0,1.0,1057.36,1.0,642.0,20.0,1.12298,0.921785
White,11,Right,18,Female,Yes,English,D,644,0,0,4,180.0,1.0,1.0,759.063,1.0,643.0,20.0,1.11037,0.987712
White,11,Right,18,Female,Yes,English,D,645,1,8,16,0.0,0.0,1.0,535.781,1.0,644.0,20.0,1.01049,0.841674
White,11,Right,18,Female,Yes,English,D,646,1,0,16,180.0,1.0,1.0,756.978,1.0,645.0,20.0,1.19299,0.993079
White,11,Right,18,Female,Yes,English,D,647,0,8,0,180.0,1.0,1.0,1336.57,1.0,646.0,20.0,1.05692,0.965162
White,11,Right,18,Female,Yes,English,D,648,1,16,0,180.0,1.0,1.0,1072.02,1.0,647.0,20.0,1.08705,0.821532
White,11,Right,18,Female,Yes,English,D,649,1,8,8,180.0,1.0,1.0,729.907,1.0,648.0,20.0,1.1366,0.912587
White,11,Right,18,Female,Yes,English,D,650,1,16,16,180.0,1.0,1.0,622.936,1.0,649.0,20.0,1.11157,0.847026
White,11,Right,18,Female,Yes,English,D,651,0,16,4,0.0,0.0,1.0,698.664,1.0,650.0,20.0,1.04705,0.879877
White,11,Right,18,Female,Yes,English,D,652,0,4,16,180.0,1.0,1.0,531.252,1.0,651.0,20.0,1.06038,0.954271
White,11,Right,18,Female,Yes,English,D,653,0,16,16,0.0,0.0,1.0,634.631,1.0,652.0,20.0,1.16921,0.986872
White,11,Right,18,Female,Yes,English,D,654,1,0,8,180.0,1.0,1.0,586.313,1.0,653.0,20.0,1.03107,0.909913
White,11,Right,18,Female,Yes,English,D,655,0,0,16,0.0,0.0,1.0,739.837,1.0,654.0,20.0,1.06843,0.855834
White,11,Right,18,Female,Yes,English,D,656,0,16,8,180.0,1.0,1.0,969.864,1.0,655.0,20.0,1.14341,0.841059
White,11,Right,18,Female,Yes,English,D,657,0,0,0,0.0,1.0,0.0,527.331,1.0,656.0,20.0,1.02847,0.997242
White,11,Right,18,Female,Yes,English,D,658,1,8,0,0.0,0.0,1.0,874.435,1.0,657.0,20.0,1.04407,0.824671
White,11,Right,18,Female,Yes,English,D,659,0,16,0,180.0,1.0,1.0,734.849,1.0,658.0,20.0,1.07725,0.885364
White,11,Right,18,Female,Yes,English,D,660,1,16,8,0.0,0.0,1.0,502.354,1.0,659.0,20.0,1.18143,0.930404
White,11,Right,18,Female,Yes,English,D,661,1,4,16,180.0,1.0,1.0,579.524,1.0,660.0,20.0,1.05458,0.953753
White,11,Right,18,Female,Yes,English,D,662,0,4,0,0.0,0.0,1.0,876.125,1.0,661.0,20.0,1.10663,0.835304
White,11,Right,18,Female,Yes,English,D,663,0,4,4,180.0,1.0,1.0,691.682,1.0,662.0,20.0,1.14981,0.976968
White,11,Right,18,Female,Yes,English,D,664,0,8,8,180.0,1.0,1.0,513.38,1.0,663.0,20.0,1.13968,0.967991
White,11,Right,18,Female,Yes,English,D,665,0,8,4,0.0,0.0,1.0,706.92,1.0,664.0,20.0,1.10812,0.964797
White,11,Right,18,Female,Yes,English,D,666,0,8,16,0.0,0.0,1.0,882.113,1.0,665.0,20.0,1.16534,0.907577
White,11,Right,18,Female,Yes,English,D,667,0,4,8,180.0,1.0,1.0,962.49,1.0,666.0,20.0,1.06362,0.845937
White,11,Right,18,Female,Yes,English,D,668,0,0,8,0.0,0.0,1.0,645.668,1.0,667.0,20.0,1.16866,0.958869
White,11,Right,18,Female,Yes,English,D,669,1,4,4,180.0,1.0,1.0,874.058,1.0,668.0,20.0,1.06582,0.92709
White,11,Right,18,Female,Yes,English,D,670,1,16,4,0.0,0.0,1.0,822.205,1.0,669.0,20.0,1.18262,0.9454
White,11,Right,18,Female,Yes,English,D,671,1,0,0,0.0,0.0,1.0,618.978,1.0,670.0,20.0,1.19997,0.873066
White,11,Right,18,Female,Yes,English,D,672,1,4,0,0.0,0.0,1.0,664.102,1.0,671.0,20.0,1.02259,0.87246
White,11,Right,18,Female,Yes,English,D,673,1,0,8,0.0,0.0,1.0,1117.98,1.0,672.0,21.0,1.17589,0.959647
White,11,Right,18,Female,Yes,English,D,674,1,16,8,180.0,1.0,1.0,667.738,1.0,673.0,21.0,1.17938,0.849715
White,11,Right,18,Female,Yes,English,D,675,1,16,0,0.0,0.0,1.0,861.028,1.0,674.0,21.0,1.12054,0.903851
White,11,Right,18,Female,Yes,English,D,676,1,4,16,180.0,1.0,1.0,612.709,1.0,675.0,21.0,1.04988,0.878414
White,11,Right,18,Female,Yes,English,D,677,0,0,16,180.0,1.0,1.0,708.023,1.0,676.0,21.0,1.19006,0.826509
White,11,Right,18,Female,Yes,English,D,678,1,0,0,180.0,1.0,1.0,534.922,1.0,677.0,21.0,1.02558,0.931181
White,11,Right,18,Female,Yes,English,D,679,0,0,0,180.0,1.0,1.0,580.188,1.0,678.0,21.0,1.10288,0.990471
White,11,Right,18,Female,Yes,English,D,680,1,4,0,0.0,0.0,1.0,707.977,1.0,679.0,21.0,1.04712,0.894068
White,11,Right,18,Female,Yes,English,D,681,0,16,0,180.0,1.0,1.0,1206.69,1.0,680.0,21.0,1.14721,0.85709
White,11,Right,18,Female,Yes,English,D,682,1,4,4,0.0,0.0,1.0,970.617,1.0,681.0,21.0,1.09158,0.933104
White,11,Right,18,Female,Yes,English,D,683,0,8,0,180.0,1.0,1.0,941.09,1.0,682.0,21.0,1.02446,0.957873
White,11,Right,18,Female,Yes,English,D,684,0,16,4,0.0,0.0,1.0,1005.26,1.0,683.0,21.0,1.13353,0.814891
White,11,Right,18,Female,Yes,English,D,685,1,0,16,180.0,1.0,1.0,460.606,1.0,684.0,21.0,1.19095,0.957125
White,11,Right,18,Female,Yes,English,D,686,0,16,8,180.0,1.0,1.0,651.312,1.0,685.0,21.0,1.02852,0.948061
White,11,Right,18,Female,Yes,English,D,687,0,4,16,180.0,1.0,1.0,648.506,1.0,686.0,21.0,1.15977,0.963551
White,11,Right,18,Female,Yes,English,D,688,0,16,16,0.0,0.0,1.0,1323.65,1.0,687.0,21.0,1.12311,0.969178
White,11,Right,18,Female,Yes,English,D,689,1,8,4,180.0,1.0,1.0,753.26,1.0,688.0,21.0,1.13878,0.913832
White,11,Right,18,Female,Yes,English,D,690,1,4,8,0.0,0.0,1.0,573.02,1.0,689.0,21.0,1.01719,0.876203
White,11,Right,18,Female,Yes,English,D,691,0,0,8,180.0,1.0,1.0,1236.89,1.0,690.0,21.0,1.07873,0.898552
White,11,Right,18,Female,Yes,English,D,692,0,0,4,180.0,1.0,1.0,820.426,1.0,691.0,21.0,1.05212,0.805134
White,11,Right,18,Female,Yes,English,D,693,0,8,16,0.0,0.0,1.0,1014.29,1.0,692.0,21.0,1.04942,0.835174
White,11,Right,18,Female,Yes,English,D,694,0,4,4,0.0,0.0,1.0,743.485,1.0,693.0,21.0,1.198,0.976056
White,11,Right,18,Female,Yes,English,D,695,1,16,16,0.0,0.0,1.0,1037.91,1.0,694.0,21.0,1.0909,0.998131
White,11,Right,18,Female,Yes,English,D,696,0,8,4,0.0,0.0,1.0,966.286,1.0,695.0,21.0,1.15042,0.820288
White,11,Right,18,Female,Yes,English,D,697,0,8,8,180.0,1.0,1.0,694.245,1.0,696.0,21.0,1.02731,0.918388
White,11,Right,18,Female,Yes,English,D,698,0,4,8,0.0,0.0,1.0,654.076,1.0,697.0,21.0,1.07697,0.947805
White,11,Right,18,Female,Yes,English,D,699,1,0,4,0.0,0.0,1.0,674.99,1.0,698.0,21.0,1.06296,0.949325
White,11,Right,18,Female,Yes,English,D,700,1,8,16,0.0,0.0,1.0,638.596,1.0,699.0,21.0,1.11217,0.914891
White,11,Right,18,Female,Yes,English,D,701,1,8,8,0.0,0.0,1.0,686.701,1.0,700.0,21.0,1.18961,0.931093
White,11,Right,18,Female,Yes,English,D,702,1,16,4,180.0,1.0,1.0,1566.93,1.0,701.0,21.0,1.17012,0.909832
White,11,Right,18,Female,Yes,English,D,703,0,4,0,0.0,0.0,1.0,632.145,1.0,702.0,21.0,1.04556,0.863778
White,11,Right,18,Female,Yes,English,D,704,1,8,0,180.0,1.0,1.0,680.0,1.0,703.0,21.0,1.16998,0.962258
White,11,Right,18,Female,Yes,English,D,705,1,16,8,180.0,1.0,1.0,956.684,1.0,704.0,22.0,1.0409,0.839217
White,11,Right,18,Female,Yes,English,D,706,0,8,16,0.0,0.0,1.0,653.497,1.0,705.0,22.0,1.16498,0.908816
White,11,Right,18,Female,Yes,English,D,707,0,0,4,0.0,0.0,1.0,650.649,1.0,706.0,22.0,1.07847,0.975522
White,11,Right,18,Female,Yes,English,D,708,0,8,8,0.0,0.0,1.0,619.443,1.0,707.0,22.0,1.0116,0.889575
White,11,Right,18,Female,Yes,English,D,709,0,8,4,180.0,1.0,1.0,741.984,1.0,708.0,22.0,1.18918,0.875488
White,11,Right,18,Female,Yes,English,D,710,0,4,0,180.0,1.0,1.0,617.643,1.0,709.0,22.0,1.18124,0.926725
White,11,Right,18,Female,Yes,English,D,711,0,16,8,180.0,1.0,1.0,1739.17,1.0,710.0,22.0,1.12667,0.895974
White,11,Right,18,Female,Yes,English,D,712,1,4,0,0.0,0.0,1.0,672.867,1.0,711.0,22.0,1.15443,0.801879
White,11,Right,18,Female,Yes,English,D,713,1,16,0,180.0,1.0,1.0,804.527,1.0,712.0,22.0,1.13759,0.882534
White,11,Right,18,Female,Yes,English,D,714,1,8,0,0.0,0.0,1.0,1189.56,1.0,713.0,22.0,1.16635,0.952062
White,11,Right,18,Female,Yes,English,D,715,1,4,16,0.0,0.0,1.0,564.125,1.0,714.0,22.0,1.09634,0.951308
White,11,Right,18,Female,Yes,English,D,716,1,8,8,180.0,1.0,1.0,470.842,1.0,715.0,22.0,1.05935,0.847657
White,11,Right,18,Female,Yes,English,D,717,1,0,8,180.0,1.0,1.0,729.877,1.0,716.0,22.0,1.18918,0.905041
White,11,Right,18,Female,Yes,English,D,718,0,0,8,0.0,0.0,1.0,734.91,1.0,717.0,22.0,1.04046,0.907139
White,11,Right,18,Female,Yes,English,D,719,0,16,0,180.0,1.0,1.0,909.446,1.0,718.0,22.0,1.06721,0.88457
White,11,Right,18,Female,Yes,English,D,720,1,4,8,180.0,1.0,1.0,1636.83,1.0,719.0,22.0,1.03458,0.925954
White,11,Right,18,Female,Yes,English,D,721,1,0,0,0.0,0.0,1.0,466.235,1.0,720.0,22.0,1.19258,0.868228
White,11,Right,18,Female,Yes,English,D,722,1,4,4,180.0,1.0,1.0,466.956,1.0,721.0,22.0,1.16558,0.923852
White,11,Right,18,Female,Yes,English,D,723,0,4,8,180.0,1.0,1.0,813.173,1.0,722.0,22.0,1.04009,0.92072
White,11,Right,18,Female,Yes,English,D,724,0,0,16,180.0,0.0,0.0,657.215,1.0,723.0,22.0,1.08497,0.876394
White,11,Right,18,Female,Yes,English,D,725,0,16,16,180.0,1.0,1.0,1323.13,1.0,724.0,22.0,1.08037,0.966162
White,11,Right,18,Female,Yes,English,D,726,0,0,0,180.0,1.0,1.0,536.815,1.0,725.0,22.0,1.04479,0.812201
White,11,Right,18,Female,Yes,English,D,727,0,4,16,0.0,0.0,1.0,697.152,1.0,726.0,22.0,1.15406,0.831381
White,11,Right,18,Female,Yes,English,D,728,0,8,0,0.0,0.0,1.0,678.053,1.0,727.0,22.0,1.10382,0.821233
White,11,Right,18,Female,Yes,English,D,729,1,16,4,0.0,0.0,1.0,852.508,1.0,728.0,22.0,1.16142,0.878637
White,11,Right,18,Female,Yes,English,D,730,0,4,4,0.0,0.0,1.0,732.898,1.0,729.0,22.0,1.12837,0.842115
White,11,Right,18,Female,Yes,English,D,731,1,0,16,180.0,1.0,1.0,439.218,1.0,730.0,22.0,1.02446,0.833687
White,11,Right,18,Female,Yes,English,D,732,1,16,16,0.0,0.0,1.0,1492.46,1.0,731.0,22.0,1.15242,0.863553
White,11,Right,18,Female,Yes,English,D,733,1,8,16,0.0,0.0,1.0,642.755,1.0,732.0,22.0,1.13063,0.921564
White,11,Right,18,Female,Yes,English,D,734,1,8,4,0.0,0.0,1.0,713.633,1.0,733.0,22.0,1.05206,0.952526
White,11,Right,18,Female,Yes,English,D,735,0,16,4,0.0,0.0,1.0,757.839,1.0,734.0,22.0,1.14424,0.979652
White,11,Right,18,Female,Yes,English,D,736,1,0,4,180.0,1.0,1.0,638.047,1.0,735.0,22.0,1.08641,0.803194
White,11,Right,18,Female,Yes,English,D,737,0,4,8,0.0,0.0,1.0,889.397,1.0,736.0,23.0,1.03724,0.869648
White,11,Right,18,Female,Yes,English,D,738,0,8,4,180.0,1.0,1.0,629.996,1.0,737.0,23.0,1.14219,0.835018
White,11,Right,18,Female,Yes,English,D,739,1,0,8,0.0,0.0,1.0,732.831,1.0,738.0,23.0,1.04905,0.955878
White,11,Right,18,Female,Yes,English,D,740,1,8,0,0.0,0.0,1.0,1135.57,1.0,739.0,23.0,1.07984,0.939713
White,11,Right,18,Female,Yes,English,D,741,0,16,8,180.0,1.0,1.0,1401.81,1.0,740.0,23.0,1.04163,0.969936
White,11,Right,18,Female,Yes,English,D,742,0,16,4,180.0,1.0,1.0,553.266,1.0,741.0,23.0,1.07235,0.900189
White,11,Right,18,Female,Yes,English,D,743,1,16,16,0.0,0.0,1.0,1103.76,1.0,742.0,23.0,1.15119,0.954715
White,11,Right,18,Female,Yes,English,D,744,0,0,0,0.0,0.0,1.0,522.821,1.0,743.0,23.0,1.07469,0.976253
White,11,Right,18,Female,Yes,English,D,745,1,0,4,0.0,0.0,1.0,659.556,1.0,744.0,23.0,1.03959,0.973304
White,11,Right,18,Female,Yes,English,D,746,1,8,8,180.0,1.0,1.0,1013.61,1.0,745.0,23.0,1.04194,0.835299
White,11,Right,18,Female,Yes,English,D,747,0,16,0,0.0,0.0,1.0,996.462,1.0,746.0,23.0,1.18319,0.974626
White,11,Right,18,Female,Yes,English,D,748,0,4,0,180.0,1.0,1.0,739.6,1.0,747.0,23.0,1.08346,0.923839
White,11,Right,18,Female,Yes,English,D,749,0,0,8,180.0,1.0,1.0,584.315,1.0,748.0,23.0,1.00784,0.986153
White,11,Right,18,Female,Yes,English,D,750,1,4,0,0.0,0.0,1.0,745.842,1.0,749.0,23.0,1.12194,0.976403
White,11,Right,18,Female,Yes,English,D,751,1,4,16,0.0,0.0,1.0,740.468,1.0,750.0,23.0,1.12455,0.83437
White,11,Right,18,Female,Yes,English,D,752,0,4,16,180.0,1.0,1.0,773.684,1.0,751.0,23.0,1.16395,0.878961
White,11,Right,18,Female,Yes,English,D,753,1,0,0,0.0,0.0,1.0,556.779,1.0,752.0,23.0,1.13144,0.988171
White,11,Right,18,Female,Yes,English,D,754,1,0,16,0.0,0.0,1.0,534.06,1.0,753.0,23.0,1.09889,0.854476
White,11,Right,18,Female,Yes,English,D,755,1,4,4,180.0,1.0,1.0,699.52,1.0,754.0,23.0,1.19655,0.925504
White,11,Right,18,Female,Yes,English,D,756,1,8,4,180.0,1.0,1.0,824.512,1.0,755.0,23.0,1.11172,0.936548
White,11,Right,18,Female,Yes,English,D,757,0,8,0,180.0,1.0,1.0,869.039,1.0,756.0,23.0,1.18819,0.871083
White,11,Right,18,Female,Yes,English,D,758,1,16,8,180.0,1.0,1.0,637.511,1.0,757.0,23.0,1.11843,0.874475
White,11,Right,18,Female,Yes,English,D,759,1,4,8,0.0,0.0,1.0,1164.92,1.0,758.0,23.0,1.00273,0.943414
White,11,Right,18,Female,Yes,English,D,760,0,4,4,180.0,1.0,1.0,624.688,1.0,759.0,23.0,1.01228,0.952508
White,11,Right,18,Female,Yes,English,D,761,1,8,16,0.0,1.0,0.0,506.486,1.0,760.0,23.0,1.06038,0.864276
White,11,Right,18,Female,Yes,English,D,762,0,8,8,180.0,1.0,1.0,937.668,1.0,761.0,23.0,1.03521,0.814396
White,11,Right,18,Female,Yes,English,D,763,0,16,16,180.0,1.0,1.0,817.899,1.0,762.0,23.0,1.05946,0.999387
White,11,Right,18,Female,Yes,English,D,764,0,0,16,0.0,0.0,1.0,763.576,1.0,763.0,23.0,1.10096,0.83663
White,11,Right,18,Female,Yes,English,D,765,1,16,4,0.0,0.0,1.0,594.747,1.0,764.0,23.0,1.14282,0.880264
White,11,Right,18,Female,Yes,English,D,766,0,0,4,180.0,1.0,1.0,821.754,1.0,765.0,23.0,1.07642,0.890157
White,11,Right,18,Female,Yes,English,D,767,1,16,0,180.0,1.0,1.0,1029.68,1.0,766.0,23.0,1.10071,0.975596
White,11,Right,18,Female,Yes,English,D,768,0,8,16,0.0,0.0,1.0,860.12,1.0,767.0,23.0,1.07302,0.821916
