sub_id,Trial,RT,Resp,Error,Fix_onset,Disp_onset,block,tid,tloc,fish_setsize,bird_setsize
16,1,568.9070275,1,0,528511.9005,528512.9475,1,1,98,4,4
16,2,537.5633853,1,0,528514.6298,528515.6769,1,1,74,16,0
16,3,561.3417454,1,0,528517.3592,528518.4062,1,1,81,16,4
16,4,624.2361396,0,0,528520.0062,528521.0532,1,0,64,8,16
16,5,628.0522723,0,0,528522.8885,528523.9355,1,0,86,16,0
16,6,415.6734969,1,0,528525.6178,528526.6649,1,1,84,0,4
16,7,523.6966532,0,0,528528.2177,528529.2648,1,0,88,0,0
16,8,474.5442634,1,0,528530.8059,528531.853,1,1,67,0,0
16,9,457.3275881,1,0,528533.5,528534.547,1,1,76,8,16
16,10,475.5070546,0,0,528536.0058,528537.0529,1,0,87,4,16
16,11,470.6426691,1,0,528538.6646,528539.7116,1,1,97,16,16
16,12,628.4279955,0,0,528541.2528,528542.2998,1,0,79,8,0
16,13,551.2468754,0,0,528544.1351,528545.1821,1,0,62,8,8
16,14,555.5130291,0,0,528546.7938,528547.8408,1,0,84,8,0
16,15,600.4369913,0,0,528549.5938,528550.6408,1,0,78,8,4
16,16,437.4100163,1,0,528552.429,528553.476,1,1,66,8,0
16,17,716.5089424,0,0,528555.0877,528556.1348,1,0,70,16,0
16,18,458.1602619,1,0,528557.9112,528558.9582,1,1,69,4,8
16,19,507.6668171,0,0,528560.4876,528561.5347,1,0,91,0,4
16,20,558.68127,0,0,528563.1934,528564.2405,1,0,82,0,8
16,21,607.5888237,1,0,528565.9346,528566.9816,1,1,85,4,4
16,22,514.3443756,1,0,528568.7228,528569.7698,1,1,75,4,4
16,23,465.3459708,0,0,528571.4168,528572.4638,1,0,72,4,16
16,24,827.8304568,1,0,528574.0403,528575.0873,1,1,67,0,16
16,25,693.3315085,1,0,528577.1108,528578.1578,1,1,84,16,0
16,26,535.7063265,0,0,528579.9225,528580.9695,1,0,85,8,0
16,27,638.007016,1,0,528582.593,528583.64,1,1,83,0,0
16,28,547.8873082,0,0,528585.4753,528586.5223,1,0,74,4,0
16,29,531.9483231,0,0,528588.2399,528589.287,1,0,77,0,4
16,30,630.4694514,0,0,528590.9105,528591.9575,1,0,68,16,8
16,31,706.2493083,0,0,528593.6869,528594.7339,1,0,91,16,4
16,32,576.8091516,1,0,528596.4633,528597.5103,1,1,63,0,4
16,33,581.6154076,1,0,528599.1573,528600.2044,1,1,65,8,8
16,34,521.5270048,1,0,528601.8514,528602.8984,1,1,95,0,0
16,35,543.2727633,0,0,528604.4866,528605.5337,1,0,92,16,16
16,36,587.9923104,0,0,528607.2631,528608.3101,1,0,87,0,8
16,37,636.2073167,1,0,528609.9806,528611.0277,1,1,61,16,4
16,38,568.7726756,1,0,528612.8512,528613.8982,1,1,65,0,0
16,39,727.2590186,0,0,528615.5687,528616.6158,1,0,100,4,16
16,40,462.1484728,0,0,528618.4628,528619.5098,1,0,65,4,4
16,41,735.5310916,1,0,528621.0863,528622.1333,1,1,92,4,8
16,42,657.8141036,0,0,528623.898,528624.945,1,0,69,16,8
16,43,612.8685835,1,0,528626.698,528627.745,1,1,93,4,0
16,44,660.4795837,0,0,528629.4272,528630.4743,1,0,99,8,4
16,45,501.0423833,0,0,528632.1448,528633.1919,1,0,79,0,16
16,46,534.686946,0,0,528634.7212,528635.7683,1,0,61,8,8
16,47,667.8392956,1,0,528637.38,528638.427,1,1,68,8,0
16,48,404.5738748,0,0,528640.1682,528641.2152,1,0,62,0,16
16,49,630.9129281,0,0,528642.827,528643.874,1,0,79,4,8
16,50,524.7141089,1,0,528645.6739,528646.721,1,1,81,8,8
16,51,607.1430371,1,0,528648.2856,528649.3327,1,1,93,8,4
16,52,421.2812448,0,0,528651.0032,528652.0503,1,0,83,4,16
16,53,555.3682833,0,0,528653.4973,528654.5443,1,0,80,0,16
16,54,629.8708348,0,0,528656.2737,528657.3207,1,0,69,16,8
16,55,485.3162826,0,0,528658.9913,528660.0383,1,0,69,4,0
16,56,445.4838336,0,1,528661.5912,528662.6382,1,1,89,4,8
16,57,575.3289708,1,0,528664.1912,528665.2382,1,1,95,16,16
16,58,610.7439758,0,0,528666.9558,528668.003,1,0,67,4,16
16,59,805.2928306,1,0,528669.6263,528670.6734,1,1,99,16,8
16,60,592.0016943,1,0,528672.6145,528673.6615,1,1,80,16,4
16,61,541.5793136,1,0,528675.438,528676.485,1,1,77,8,8
16,62,731.9767334,1,0,528678.1555,528679.2026,1,1,80,4,0
16,63,663.0353492,0,0,528681.0614,528682.1084,1,0,82,16,0
16,64,574.3338431,1,0,528683.9201,528684.9672,1,1,72,16,8
16,65,710.3337598,0,0,528686.6612,528687.7083,1,0,88,0,8
16,66,1003.84029,0,0,528689.5906,528690.6376,1,0,61,8,4
16,67,728.3707901,0,0,528692.6611,528693.7081,1,0,94,8,4
16,68,667.8981949,1,0,528695.4846,528696.5317,1,1,86,8,16
16,69,492.0496605,1,0,528698.3904,528699.4374,1,1,75,8,16
16,70,712.524196,1,0,528701.0609,528702.1079,1,1,89,4,0
16,71,834.8571763,0,0,528703.9314,528704.9785,1,0,89,8,16
16,72,401.7132189,0,0,528706.8726,528707.9196,1,0,93,0,8
16,73,637.4746129,1,0,528709.3548,528710.4019,1,1,69,0,16
16,74,480.1585557,1,0,528712.1783,528713.2253,1,1,84,16,4
16,75,515.8029983,1,0,528714.8724,528715.9194,1,1,78,4,4
16,76,463.5824579,1,0,528717.5076,528718.5546,1,1,65,0,4
16,77,472.959758,1,0,528720.1193,528721.1664,1,1,64,16,16
16,78,959.6242741,0,0,528722.7075,528723.7545,1,0,97,16,16
16,79,619.4094805,1,0,528725.8839,528726.9309,1,1,77,4,8
16,80,536.6267717,0,0,528728.5897,528729.6367,1,0,76,0,8
16,81,657.7525097,1,0,528738.4954,528739.5424,2,1,98,4,4
16,82,604.1876804,1,0,528741.26,528742.307,2,1,100,0,0
16,83,688.4613488,1,0,528744.0246,528745.0717,2,1,92,8,4
16,84,703.5838284,0,0,528746.7893,528747.8364,2,0,97,4,0
16,85,738.4121505,1,0,528749.6128,528750.6598,2,1,69,8,0
16,86,593.7898449,0,0,528752.4362,528753.4833,2,0,67,0,8
16,87,722.3299595,1,0,528755.1656,528756.2126,2,1,63,8,16
16,88,584.1469206,1,0,528758.0949,528759.1419,2,1,91,0,0
16,89,556.621721,0,0,528760.7654,528761.8125,2,0,61,16,4
16,90,629.2548949,1,0,528763.5536,528764.6006,2,1,84,4,4
16,91,529.8044672,1,0,528766.3183,528767.3653,2,1,83,16,16
16,92,664.7311088,0,0,528769.0711,528770.1182,2,0,76,8,16
16,93,532.8660737,0,0,528771.8123,528772.8593,2,0,63,8,0
16,94,564.3921879,1,0,528774.5887,528775.6357,2,1,99,0,8
16,95,744.0545451,0,0,528777.2709,528778.318,2,0,77,8,4
16,96,722.2079263,1,0,528780.2238,528781.2708,2,1,91,0,8
16,97,688.3266119,1,0,528783.0355,528784.0826,2,1,87,0,4
16,98,697.6750399,0,0,528785.8472,528786.8943,2,0,74,8,8
16,99,650.1545059,1,0,528788.7766,528789.8236,2,1,77,4,0
16,100,600.3008097,0,0,528791.6706,528792.7174,2,0,66,0,8
16,101,535.0565099,1,0,528794.5176,528795.5646,2,1,68,4,8
16,102,693.9370545,1,0,528797.1058,528798.1528,2,1,90,4,0
16,103,592.1287319,0,0,528799.9645,528801.0116,2,0,71,0,4
16,104,584.686638,1,0,528802.741,528803.788,2,1,62,8,4
16,105,708.7565687,1,0,528805.4938,528806.5409,2,1,94,8,8
16,106,560.0636702,1,0,528808.2936,528809.3408,2,1,91,16,8
16,107,694.0968139,0,0,528811.1055,528812.1525,2,0,66,4,4
16,108,595.7585428,0,0,528813.9878,528815.0348,2,0,94,0,16
16,109,520.7089597,1,0,528816.7171,528817.7641,2,1,85,16,0
16,110,704.1774405,1,0,528819.4935,528820.5406,2,1,91,8,4
16,111,1205.389687,0,0,528822.3052,528823.3522,2,0,99,16,16
16,112,667.5120775,1,0,528825.7051,528826.7522,2,1,87,0,4
16,113,693.6798996,0,0,528828.6109,528829.658,2,0,72,16,8
16,114,653.5025242,0,0,528831.4579,528832.505,2,0,66,8,0
16,115,609.3619606,0,0,528834.2344,528835.2814,2,0,82,16,0
16,116,599.7286604,0,0,528837.0108,528838.0578,2,0,80,0,16
16,117,517.2354435,1,0,528839.8342,528840.8813,2,1,63,4,4
16,118,571.9609344,0,0,528842.5636,528843.6106,2,0,86,8,4
16,119,631.5550455,0,0,528845.387,528846.4341,2,0,78,16,4
16,120,455.3423368,1,0,528848.0811,528849.1281,2,1,94,8,16
16,121,570.7860291,0,0,528850.6457,528851.6928,2,0,91,0,4
16,122,501.6667924,1,0,528853.4457,528854.4927,2,1,93,16,16
16,123,632.2233403,1,0,528856.0103,528857.0574,2,1,85,0,16
16,124,708.927877,1,0,528858.7514,528859.7985,2,1,66,16,8
16,125,1064.638564,0,0,528861.6808,528862.7278,2,0,81,0,16
16,126,621.8859437,1,0,528864.9866,528866.0337,2,1,91,16,0
16,127,488.889119,1,0,528867.6924,528868.7394,2,1,71,8,8
16,128,486.3422074,0,0,528870.41,528871.457,2,0,79,8,8
16,129,599.3660259,1,0,528873.1158,528874.1629,2,1,92,4,8
16,130,562.7133667,0,0,528875.8452,528876.9157,2,0,77,8,0
16,131,617.3699494,0,0,528878.4922,528879.551,2,0,93,16,0
16,132,526.4298865,1,0,528881.3509,528882.3979,2,1,66,0,8
16,133,960.4569478,1,0,528884.0214,528885.0687,2,1,91,16,4
16,134,530.5181877,0,0,528887.2096,528888.2566,2,0,95,4,16
16,135,695.3791238,0,0,528889.8919,528890.9389,2,0,92,0,16
16,136,516.8470164,0,0,528892.8095,528893.8565,2,0,78,16,0
16,137,474.3082814,0,0,528895.5389,528896.5859,2,0,97,0,0
16,138,635.2241226,1,0,528898.2329,528899.2799,2,1,98,16,16
16,139,570.0014756,0,0,528900.9623,528902.0093,2,0,90,8,0
16,140,442.9061251,0,0,528903.7622,528904.8092,2,0,76,16,8
16,141,501.0893487,1,0,528906.3739,528907.4209,2,1,75,4,4
16,142,526.3169341,0,0,528909.0679,528910.1148,2,0,70,4,8
16,143,716.6733213,0,0,528911.7973,528912.8443,2,0,98,4,0
16,144,584.389832,0,0,528914.7266,528915.7737,2,0,79,4,16
16,145,758.241951,1,0,528917.5148,528918.5618,2,1,83,4,16
16,146,669.423031,0,0,528920.5266,528921.5735,2,0,97,8,16
16,147,583.7353957,0,0,528923.2912,528924.3382,2,0,64,4,8
16,148,709.3136094,1,0,528926.0558,528927.1028,2,1,66,16,4
16,149,563.8878871,1,0,528928.891,528929.938,2,1,96,0,4
16,150,774.5932307,1,0,528931.5733,528932.6203,2,1,87,4,16
16,151,698.1674067,1,0,528934.5497,528935.5967,2,1,61,8,8
16,152,695.3225343,1,0,528937.4085,528938.4555,2,1,70,4,8
16,153,554.8316457,0,0,528940.2202,528941.2672,2,0,84,16,8
16,154,669.8734371,0,0,528942.8789,528943.926,2,0,99,4,16
16,155,482.7609019,1,0,528945.7141,528946.7612,2,1,67,4,0
16,156,602.9711992,0,0,528948.42,528949.467,2,0,92,8,16
16,157,624.8259019,0,0,528951.1611,528952.2081,2,0,82,16,4
16,158,736.1689744,1,0,528953.9845,528955.0316,2,1,71,0,0
16,159,656.5768344,0,0,528956.8433,528957.8903,2,0,98,16,16
16,160,543.2889317,0,0,528959.7374,528960.7844,2,0,67,0,0
16,161,468.2485877,0,0,528965.8313,528966.8784,3,0,68,0,16
16,162,476.5510727,1,0,528968.5372,528969.5842,3,1,86,4,0
16,163,644.609122,1,0,528971.243,528972.29,3,1,90,8,0
16,164,580.5194195,1,0,528973.9723,528975.0194,3,1,67,16,8
16,165,524.579372,1,0,528976.6781,528977.7252,3,1,73,16,0
16,166,796.4667967,0,0,528979.2781,528980.3251,3,0,99,0,16
16,167,610.1422794,1,0,528982.3015,528983.3486,3,1,77,0,0
16,168,509.6520684,1,0,528985.125,528986.172,3,1,75,16,0
16,169,505.340104,0,0,528987.8544,528988.9014,3,0,74,16,0
16,170,605.2062911,0,0,528990.4425,528991.4896,3,0,84,16,16
16,171,526.793291,1,0,528993.1248,528994.1719,3,1,86,4,8
16,172,487.1232962,1,0,528995.7365,528996.7836,3,1,79,0,4
16,173,606.3115182,1,0,528998.4424,528999.4894,3,1,99,0,0
16,174,639.5622643,0,0,529001.254,529002.3011,3,0,90,16,16
16,175,565.3819263,0,0,529003.9952,529005.0422,3,0,74,4,4
16,176,544.8353259,1,0,529006.7598,529007.8068,3,1,71,16,4
16,177,602.4260924,0,0,529009.5009,529010.548,3,0,96,8,8
16,178,683.7586475,1,0,529012.2538,529013.3008,3,1,79,16,8
16,179,562.5593817,0,0,529015.042,529016.089,3,0,73,4,4
16,180,524.5597389,1,0,529017.7948,529018.8419,3,1,71,4,16
16,181,553.3391462,0,0,529020.383,529021.4301,3,0,66,4,4
16,182,489.6297867,1,0,529023.0418,529024.0888,3,1,72,4,16
16,183,755.9930002,1,0,529025.6064,529026.6535,3,1,70,8,0
16,184,592.6149394,0,0,529028.5828,529029.6299,3,0,98,16,8
16,185,493.2203314,1,0,529031.4181,529032.4651,3,1,87,0,0
16,186,511.0791242,1,0,529034.0533,529035.1004,3,1,93,0,8
16,187,601.2354034,0,0,529036.6532,529037.7003,3,0,71,4,8
16,188,609.7869591,1,0,529039.4885,529040.5355,3,1,98,8,8
16,189,516.7068901,1,0,529042.3355,529043.3825,3,1,88,4,0
16,190,660.086152,1,0,529044.9472,529045.9942,3,1,68,16,4
16,191,523.851793,1,0,529047.7825,529048.8294,3,1,100,4,0
16,192,412.3585853,0,0,529050.4529,529051.5,3,0,76,8,16
16,193,741.2570229,1,0,529052.994,529054.0411,3,1,87,16,16
16,194,616.809829,0,0,529055.8175,529056.8645,3,0,80,0,8
16,195,667.0031572,1,0,529058.5351,529059.5821,3,1,94,8,16
16,196,543.7943874,1,0,529061.3704,529062.4174,3,1,74,8,4
16,197,510.5748232,0,0,529064.1585,529065.2055,3,0,96,4,4
16,198,640.456147,0,0,529066.7467,529067.7937,3,0,99,8,0
16,199,556.7433691,0,0,529069.4642,529070.5113,3,0,61,0,16
16,200,517.692009,1,0,529072.1465,529073.1936,3,1,71,8,16
16,201,670.6934071,0,0,529074.7935,529075.8406,3,0,61,4,16
16,202,563.8393818,1,0,529077.5464,529078.5934,3,1,80,0,0
16,203,682.6634294,0,0,529080.3463,529081.3934,3,0,90,8,4
16,204,513.0543665,1,0,529083.111,529084.158,3,1,90,16,16
16,205,660.9065071,1,0,529085.8521,529086.8992,3,1,84,16,4
16,206,489.924668,0,0,529088.605,529089.652,3,0,63,16,4
16,207,624.7100283,0,0,529091.2284,529092.2755,3,0,70,4,8
16,208,797.9719999,1,0,529093.9461,529094.9931,3,1,92,8,16
16,209,576.1604898,1,0,529096.8048,529097.8518,3,1,65,16,0
16,210,728.2664654,0,0,529099.4518,529100.4988,3,0,96,0,16
16,211,661.8958605,0,0,529102.3341,529103.3811,3,0,82,16,4
16,212,490.1756635,0,0,529105.0987,529106.1458,3,0,70,0,8
16,213,446.7800021,0,0,529107.7692,529108.8163,3,0,77,8,8
16,214,586.4744036,0,0,529110.4515,529111.4986,3,0,91,4,0
16,215,596.5542601,0,0,529113.2044,529114.2514,3,0,66,0,8
16,216,526.5011046,1,0,529115.8985,529116.9455,3,1,72,8,16
16,217,482.3871034,0,0,529118.6631,529119.7104,3,0,67,0,0
16,218,543.6142249,1,0,529121.3571,529122.4042,3,1,92,4,16
16,219,528.6133934,0,0,529124.1571,529125.2041,3,0,81,0,4
16,220,651.8009903,1,0,529126.8159,529127.863,3,1,87,8,4
16,221,457.3772482,0,0,529129.5923,529130.6393,3,0,85,8,0
16,222,546.0718252,0,0,529132.2158,529133.2628,3,0,69,4,8
16,223,678.3476154,1,0,529134.8863,529135.9333,3,1,79,8,8
16,224,535.1650693,1,0,529137.6744,529138.7215,3,1,99,4,0
16,225,579.376851,1,0,529140.3332,529141.3802,3,1,72,0,8
16,226,549.5984661,0,0,529143.1331,529144.1802,3,0,95,0,4
16,227,430.5542202,1,0,529145.8272,529146.8742,3,1,100,16,8
16,228,470.2507773,1,1,529148.5095,529149.5565,3,0,90,0,4
16,229,809.3876762,1,0,529151.1212,529152.1682,3,1,88,4,4
16,230,537.1865071,1,0,529154.0505,529155.0976,3,1,78,8,0
16,231,733.6594041,1,0,529156.7328,529157.7799,3,1,82,4,8
16,232,741.7971252,0,0,529159.6857,529160.7327,3,0,77,8,4
16,233,615.5398379,0,0,529162.6621,529163.7091,3,0,99,8,8
16,234,815.9843925,0,0,529165.3914,529166.4385,3,0,71,16,16
16,235,812.955893,0,0,529168.2855,529169.3325,3,0,85,16,8
16,236,499.0779199,0,0,529171.2854,529172.3324,3,0,76,16,0
16,237,661.0527926,0,0,529174.0265,529175.0736,3,0,71,0,4
16,238,573.8187633,0,0,529176.9088,529177.9558,3,0,82,8,4
16,239,466.7545485,0,0,529179.7205,529180.7676,3,0,97,0,16
16,240,472.6602572,1,0,529182.3087,529183.3557,3,1,85,4,16
16,241,687.0292884,1,0,529187.9203,529188.9674,4,1,61,4,8
16,242,482.9171966,1,0,529190.8026,529191.8496,4,1,84,0,16
16,243,548.8693473,1,0,529193.5084,529194.5555,4,1,77,4,0
16,244,509.5408142,1,0,529196.1907,529197.2378,4,1,86,4,16
16,245,425.7063881,0,0,529198.9436,529199.9906,4,0,68,16,0
16,246,547.5881923,0,0,529201.5788,529202.6259,4,0,88,0,16
16,247,734.5263396,1,0,529204.2847,529205.3317,4,1,87,0,8
16,248,555.5126441,1,0,529207.1316,529208.1787,4,1,69,0,4
16,249,643.8957866,0,0,529209.7905,529210.8374,4,0,72,0,0
16,250,899.8900368,0,0,529212.5903,529213.6375,4,0,81,0,8
16,251,513.7738612,0,0,529215.5785,529216.6255,4,0,62,4,4
16,252,636.8967843,0,0,529218.1785,529219.2255,4,0,87,4,0
16,253,440.8400316,0,0,529220.9314,529221.9784,4,0,85,16,0
16,254,366.3224665,0,0,529223.5548,529224.6018,4,0,84,16,8
16,255,683.5153513,1,0,529226.0606,529227.1076,4,1,78,4,0
16,256,644.3577415,0,0,529228.8488,529229.8958,4,0,92,0,0
16,257,602.7868021,1,0,529231.5664,529232.6134,4,1,80,16,8
16,258,651.2431797,1,0,529234.284,529235.331,4,1,70,8,8
16,259,550.4707911,1,0,529237.0486,529238.0956,4,1,97,4,8
16,260,412.4756139,0,0,529239.7897,529240.8367,4,0,75,8,4
16,261,629.3723084,0,0,529242.3426,529243.3896,4,0,91,8,4
16,262,572.016754,1,0,529245.0602,529246.1072,4,1,89,0,8
16,263,455.6422225,0,0,529247.6954,529248.7424,4,0,65,0,16
16,264,499.4863651,1,1,529250.3895,529251.4365,4,0,99,8,0
16,265,788.8610938,1,0,529252.9542,529254.0012,4,1,74,0,0
16,266,743.2888547,1,0,529255.9188,529256.9658,4,1,100,4,16
16,267,787.0829522,1,0,529258.754,529259.801,4,1,97,16,8
16,268,926.9147852,0,0,529261.801,529262.848,4,0,79,8,0
16,269,592.3793424,0,0,529264.8244,529265.8715,4,0,94,8,16
16,270,718.3459831,1,0,529267.5655,529268.6126,4,1,99,8,16
16,271,895.1892604,0,0,529270.4478,529271.4949,4,0,92,16,8
16,272,589.3142715,1,0,529273.5066,529274.5536,4,1,68,16,8
16,273,625.2393516,1,0,529276.3536,529277.4006,4,1,99,0,4
16,274,777.9909092,1,0,529279.13,529280.177,4,1,63,16,4
16,275,700.6507996,1,0,529282.024,529283.0711,4,1,95,8,4
16,276,691.0956467,1,0,529284.8828,529285.9298,4,1,69,16,4
16,277,634.9053736,0,0,529287.671,529288.718,4,0,92,4,0
16,278,468.6154569,0,0,529290.5532,529291.6003,4,0,74,0,8
16,279,845.1953428,0,0,529293.2355,529294.2826,4,0,71,4,8
16,280,658.8088466,0,0,529296.1531,529297.2001,4,0,74,0,4
16,281,807.6711285,1,0,529299.0001,529300.0471,4,1,96,8,16
16,282,681.0866232,1,0,529301.9177,529302.9647,4,1,98,0,0
16,283,619.8460278,0,0,529304.7059,529305.7529,4,0,74,8,4
16,284,810.5094567,1,0,529307.5411,529308.5881,4,1,81,4,4
16,285,709.5468966,0,0,529310.541,529311.588,4,0,100,16,0
16,286,511.4714009,0,0,529313.4233,529314.4703,4,0,76,8,8
16,287,762.1223724,1,0,529316.1526,529317.1997,4,1,91,8,8
16,288,966.8750416,0,0,529319.0467,529320.0938,4,0,99,16,16
16,289,611.6482526,0,0,529322.2349,529323.2819,4,0,88,16,4
16,290,583.2676664,0,0,529324.9524,529325.9995,4,0,83,8,0
16,291,437.965902,1,0,529327.6347,529328.6818,4,1,74,0,0
16,292,529.3725395,1,0,529330.2582,529331.3052,4,1,86,8,8
16,293,558.4137212,0,0,529332.9522,529333.9993,4,0,94,8,16
16,294,482.9368297,1,0,529335.7287,529336.7757,4,1,94,16,16
16,295,562.1790388,0,0,529338.2933,529339.3403,4,0,64,8,0
16,296,958.7773567,0,0,529341.0227,529342.0697,4,0,65,4,16
16,297,696.5136081,0,0,529344.2108,529345.2578,4,0,83,16,0
16,298,961.1025298,0,0,529347.1284,529348.1754,4,0,98,4,16
16,299,788.2301402,1,0,529350.2813,529351.3283,4,1,66,16,0
16,300,858.5812567,0,0,529353.1518,529354.1988,4,0,99,0,4
16,301,602.408384,1,0,529356.1399,529357.187,4,1,78,8,8
16,302,839.810873,1,0,529358.8105,529359.8575,4,1,96,4,8
16,303,752.1248977,1,0,529361.7163,529362.7633,4,1,74,0,16
16,304,1144.371215,0,0,529364.6339,529365.6809,4,0,67,0,4
16,305,515.5108118,0,0,529367.975,529369.022,4,0,64,0,8
16,306,702.378126,0,0,529370.5749,529371.6219,4,0,61,8,4
16,307,500.4972764,0,0,529373.4219,529374.4689,4,0,64,16,16
16,308,532.9303624,1,0,529376.1512,529377.1983,4,1,84,4,16
16,309,680.8059856,0,0,529378.8806,529379.9276,4,0,90,4,4
16,310,498.9454928,1,0,529381.6923,529382.7393,4,1,86,8,0
16,311,626.7888255,1,0,529384.3746,529385.4216,4,1,80,0,16
16,312,746.4609452,1,0,529387.1628,529388.2098,4,1,89,4,4
16,313,558.22047,1,0,529390.0921,529391.1391,4,1,64,4,4
16,314,596.2870963,1,0,529392.845,529393.892,4,1,70,4,8
16,315,500.9830991,1,0,529395.6802,529396.7272,4,1,67,16,16
16,316,496.3627798,1,0,529398.3507,529399.3977,4,1,75,8,16
16,317,543.3682339,0,0,529400.9389,529401.9859,4,0,65,16,4
16,318,621.5337032,1,0,529403.5977,529404.6447,4,1,92,16,16
16,319,736.9823999,0,0,529406.3741,529407.4211,4,0,99,16,4
16,320,564.7232556,0,0,529409.1622,529410.2093,4,0,75,4,0
16,321,635.5979211,1,0,529416.9856,529418.0326,5,1,82,8,4
16,322,548.3038375,0,0,529419.6796,529420.7267,5,0,87,4,4
16,323,1393.45231,0,0,529422.3854,529423.4325,5,0,93,16,16
16,324,543.3628445,1,0,529425.9148,529426.9618,5,1,91,0,0
16,325,592.5333274,1,0,529428.6206,529429.6676,5,1,86,4,16
16,326,1017.395588,0,0,529431.3735,529432.4205,5,0,70,16,4
16,327,679.6349299,0,0,529434.5263,529435.5734,5,0,85,0,4
16,328,1161.23257,1,0,529437.3616,529438.4086,5,1,61,4,8
16,329,936.0611079,1,0,529440.6438,529441.6909,5,1,75,0,0
16,330,1255.389764,1,0,529443.6555,529444.7026,5,1,93,0,4
16,331,786.9863266,1,0,529446.9849,529448.0319,5,1,77,0,8
16,332,739.7995552,1,0,529449.926,529450.973,5,1,84,4,0
16,333,829.417272,1,0,529452.8553,529453.9024,5,1,71,8,0
16,334,2500,-1,-1,529455.82,529456.867,5,0,61,8,16
16,335,844.5409066,1,0,529460.9963,529462.0433,5,1,74,4,0
16,336,525.2807736,0,0,529463.9845,529465.0315,5,0,66,0,0
16,337,515.4592268,0,0,529466.5962,529467.6432,5,0,87,0,4
16,338,665.9960954,0,0,529469.1726,529470.2196,5,0,69,16,0
16,339,581.2608572,1,0,529472.0784,529473.1254,5,1,76,8,8
16,340,540.0398488,1,0,529474.8666,529475.9136,5,1,72,8,4
16,341,463.4500308,1,0,529477.5371,529478.5841,5,1,71,0,0
16,342,783.2140796,0,0,529480.2194,529481.2664,5,0,88,16,8
16,343,587.0503074,0,0,529483.1017,529484.1487,5,0,61,4,0
16,344,614.197089,1,0,529485.7604,529486.8075,5,1,61,16,4
16,345,560.9895049,1,0,529488.4428,529489.4898,5,1,84,8,0
16,346,673.7161323,1,0,529491.078,529492.125,5,1,100,16,0
16,347,597.7499535,0,0,529493.8897,529494.9368,5,0,67,16,16
16,348,542.6849256,1,0,529496.619,529497.666,5,1,61,0,0
16,349,538.448414,0,0,529499.266,529500.313,5,0,83,0,16
16,350,595.4143864,0,0,529501.96,529503.0071,5,0,96,4,4
16,351,504.5848077,0,0,529504.6188,529505.6658,5,0,69,0,16
16,352,454.8022344,1,0,529507.2776,529508.3246,5,1,64,0,4
16,353,711.5517809,0,0,529509.854,529510.9011,5,0,63,16,8
16,354,1102.317918,1,0,529512.7951,529513.8421,5,1,80,16,16
16,355,1203.093001,1,0,529516.0303,529517.0773,5,1,95,8,0
16,356,586.6930622,1,0,529519.3126,529520.3596,5,1,71,8,8
16,357,695.47036,1,0,529522.1478,529523.1948,5,1,74,8,4
16,358,789.3157344,0,0,529524.936,529525.983,5,0,68,8,16
16,359,878.9138182,0,0,529527.8065,529528.8535,5,0,78,0,16
16,360,1452.69264,1,0,529530.7476,529531.7946,5,1,70,4,8
16,361,567.0792257,0,0,529534.3122,529535.3593,5,0,82,16,0
16,362,611.5674105,0,0,529536.9828,529538.0298,5,0,79,8,8
16,363,674.5969263,0,0,529539.8416,529540.8886,5,0,97,4,8
16,364,1390.601278,1,0,529542.7356,529543.7826,5,1,61,16,16
16,365,791.3683541,1,0,529546.2178,529547.2649,5,1,95,8,16
16,366,516.2999847,0,0,529549.0648,529550.1119,5,0,87,0,8
16,367,583.5463792,1,0,529551.6765,529552.7236,5,1,79,16,4
16,368,515.8919246,1,0,529554.4294,529555.4765,5,1,62,4,4
16,369,646.853068,0,0,529557.0765,529558.1234,5,0,92,16,8
16,370,627.5706842,0,0,529559.8057,529560.8528,5,0,64,8,4
16,371,666.6008714,1,0,529562.6057,529563.6527,5,1,92,16,8
16,372,697.7508775,1,0,529565.3703,529566.4174,5,1,93,8,16
16,373,811.9534508,0,0,529568.2291,529569.2761,5,0,93,4,8
16,374,691.6711655,1,0,529571.1114,529572.1584,5,1,78,4,16
16,375,887.0573137,0,0,529574.0289,529575.076,5,0,89,16,8
16,376,536.7561191,0,0,529577.0525,529578.0994,5,0,84,4,4
16,377,536.0254603,1,0,529579.7112,529580.7582,5,1,83,0,4
16,378,583.2726709,1,0,529582.3229,529583.3699,5,1,64,4,4
16,379,719.8673547,1,0,529585.111,529586.1581,5,1,93,16,0
16,380,656.7673908,0,0,529588.0522,529589.0992,5,0,79,8,0
16,381,918.6411723,1,0,529590.9462,529591.9932,5,1,70,4,16
16,382,1914.504366,1,0,529594.1226,529595.1696,5,1,95,4,16
16,383,521.1216393,0,0,529598.2519,529599.2989,5,0,72,8,4
16,384,620.4049933,0,0,529600.8636,529601.9106,5,0,68,4,0
16,385,591.8238417,0,0,529603.5342,529604.5812,5,0,84,8,8
16,386,576.1993709,0,0,529606.2047,529607.2517,5,0,70,4,8
16,387,562.0943471,0,0,529608.8987,529609.9457,5,0,82,8,16
16,388,448.1400744,1,0,529611.6398,529612.6869,5,1,82,0,16
16,389,625.7813787,0,0,529614.1809,529615.228,5,0,88,0,8
16,390,491.5076335,1,0,529617.0515,529618.0985,5,1,84,0,16
16,391,793.2816175,0,0,529619.6514,529620.6984,5,0,73,0,8
16,392,877.2072797,1,0,529622.5337,529623.5807,5,1,78,4,0
16,393,606.7126491,0,0,529625.5571,529626.6042,5,0,87,16,0
16,394,911.0593371,0,0,529628.2277,529629.2747,5,0,82,16,4
16,395,503.4714963,1,0,529631.2982,529632.3452,5,1,77,0,8
16,396,464.4232159,0,0,529634.0393,529635.0863,5,0,64,16,4
16,397,699.4789739,0,0,529636.7451,529637.7921,5,0,69,4,16
16,398,487.4139429,0,0,529639.6862,529640.7333,5,0,75,16,16
16,399,456.2481534,1,0,529642.4273,529643.4744,5,1,96,8,0
16,400,608.0630973,0,0,529645.0155,529646.0625,5,0,98,8,8
16,401,616.7466952,0,0,529656.5799,529657.627,6,0,94,4,4
16,402,505.4274905,1,0,529659.3211,529660.3681,6,1,95,4,0
16,403,561.264753,0,0,529662.0033,529663.0504,6,0,82,4,0
16,404,428.0192424,1,0,529664.6386,529665.6856,6,1,84,4,8
16,405,739.3495342,1,0,529667.262,529668.3091,6,1,70,16,0
16,406,629.0200679,0,0,529670.1914,529671.2384,6,0,91,8,16
16,407,736.5497022,0,0,529672.9678,529674.0148,6,0,68,4,16
16,408,652.9543378,0,0,529675.8736,529676.9206,6,0,87,16,0
16,409,506.2012649,0,1,529678.7324,529679.7794,6,1,82,4,4
16,410,672.6085953,0,0,529681.3558,529682.4029,6,0,80,16,4
16,411,650.0775134,1,0,529684.2263,529685.2734,6,1,61,8,8
16,412,698.267497,0,0,529687.0851,529688.1321,6,0,94,0,0
16,413,525.3439074,0,0,529689.9791,529691.0262,6,0,62,0,8
16,414,398.1515463,0,0,529692.6261,529693.6732,6,0,61,0,0
16,415,843.3359741,1,0,529695.2261,529696.2731,6,1,80,8,4
16,416,578.5988419,1,0,529698.1437,529699.1907,6,1,97,4,4
16,417,613.6335039,0,0,529700.9318,529701.9789,6,0,69,16,16
16,418,493.460548,1,0,529703.6259,529704.6729,6,1,63,0,4
16,419,437.9301006,0,0,529706.2494,529707.2964,6,0,86,8,0
16,420,681.0446624,0,0,529708.9081,529709.9551,6,0,98,16,0
16,421,559.9019859,0,0,529711.7433,529712.7904,6,0,80,16,4
16,422,525.3850984,1,0,529714.5197,529715.5668,6,1,98,0,4
16,423,631.9661854,1,0,529717.2374,529718.2844,6,1,74,16,16
16,424,573.3421798,1,0,529720.1079,529721.1549,6,1,65,8,4
16,425,913.293274,1,0,529722.8019,529723.8489,6,1,87,0,16
16,426,923.8658827,0,0,529725.8842,529726.9312,6,0,74,4,16
16,427,881.8549312,1,0,529728.9312,529729.9782,6,1,86,0,4
16,428,2535.05189,1,0,529731.9782,529733.0252,6,1,99,0,8
16,429,732.8159515,0,0,529736.6722,529737.7193,6,0,70,16,4
16,430,432.8101001,0,0,529739.5663,529740.6132,6,0,95,8,8
16,431,418.1722881,1,0,529742.2368,529743.2838,6,1,75,16,4
16,432,547.5858825,1,0,529744.7426,529745.7896,6,1,89,0,8
16,433,446.9901916,1,0,529747.5072,529748.5542,6,1,84,8,8
16,434,520.9276183,1,0,529750.1542,529751.2012,6,1,64,4,16
16,435,607.3305139,0,0,529752.8718,529753.9188,6,0,83,8,4
16,436,685.3808792,1,0,529755.6247,529756.6717,6,1,90,4,8
16,437,701.9404237,0,0,529758.554,529759.601,6,0,77,4,0
16,438,609.6764749,0,0,529761.4833,529762.5304,6,0,88,4,0
16,439,738.4206197,1,0,529764.3186,529765.3656,6,1,98,4,8
16,440,644.8069926,1,0,529767.1303,529768.1773,6,1,82,16,0
16,441,517.8563879,0,0,529769.8949,529770.9419,6,0,67,8,16
16,442,526.3182474,0,0,529772.6596,529773.7066,6,0,84,16,8
16,443,586.7819885,1,0,529775.3771,529776.4242,6,1,87,4,4
16,444,423.3565774,1,0,529778.0594,529779.1065,6,1,86,0,16
16,445,485.2889503,1,0,529780.5535,529781.6005,6,1,86,16,16
16,446,607.5145259,0,0,529783.2122,529784.2593,6,0,61,16,16
16,447,609.3276989,0,0,529785.9534,529787.0004,6,0,82,16,8
16,448,547.8957773,0,0,529788.7298,529789.7768,6,0,82,0,8
16,449,538.6062486,1,0,529791.4003,529792.4473,6,1,86,8,16
16,450,655.8146087,0,0,529794.059,529795.1061,6,0,90,16,4
16,451,434.2517843,0,0,529796.9296,529797.9766,6,0,63,8,4
16,452,666.2744232,1,0,529799.5766,529800.6236,6,1,69,0,0
16,453,537.4740739,0,0,529802.3412,529803.3882,6,0,85,4,16
16,454,596.0761368,1,0,529805.0706,529806.1176,6,1,88,4,4
16,455,765.6382343,1,0,529807.894,529808.941,6,1,90,8,16
16,456,449.7207303,1,0,529810.7998,529811.8469,6,1,73,0,4
16,457,580.9386435,1,0,529813.5056,529814.5527,6,1,81,8,8
16,458,456.8483098,0,0,529816.1879,529817.235,6,0,62,16,8
16,459,442.4499446,1,0,529818.7173,529819.7643,6,1,72,8,0
16,460,536.4373701,0,0,529821.3643,529822.4113,6,0,96,8,0
16,461,516.4901562,0,0,529824.0701,529825.1171,6,0,94,8,0
16,462,902.2741091,1,1,529826.8112,529827.8582,6,0,74,0,0
16,463,428.5123793,0,0,529829.8229,529830.8699,6,0,65,8,8
16,464,640.4738554,1,0,529832.5052,529833.5522,6,1,67,8,4
16,465,464.6557331,1,0,529835.2698,529836.3169,6,1,78,8,0
16,466,477.6755479,1,0,529837.9639,529839.0109,6,1,72,0,16
16,467,438.1560734,1,0,529840.6932,529841.7403,6,1,62,0,0
16,468,564.7151713,1,0,529843.3638,529844.4108,6,1,98,0,16
16,469,558.5357542,0,0,529846.0578,529847.1048,6,0,68,16,16
16,470,565.1363203,0,0,529848.8342,529849.8812,6,0,93,16,8
16,471,579.7344811,1,0,529851.5047,529852.5518,6,1,81,4,8
16,472,434.6024852,1,0,529854.1517,529855.1988,6,1,91,0,4
16,473,790.0005825,0,0,529856.6693,529857.7164,6,0,83,8,16
16,474,876.0000374,0,0,529859.6693,529860.7163,6,0,74,0,16
16,475,458.3300303,0,0,529862.7751,529863.8221,6,0,74,4,8
16,476,1383.171503,1,0,529865.375,529866.422,6,1,61,4,0
16,477,532.4183622,0,0,529868.8691,529869.9161,6,0,85,0,8
16,478,622.1719708,0,0,529871.516,529872.5631,6,0,67,16,8
16,479,598.4940858,1,0,529874.3748,529875.4218,6,1,89,4,16
16,480,536.9701582,0,0,529877.1512,529878.1982,6,0,86,16,0
16,481,561.7713636,1,0,529890.7274,529891.7744,7,1,73,8,8
16,482,754.5701792,0,0,529893.3626,529894.4096,7,0,77,16,0
16,483,472.8015384,0,0,529896.3743,529897.4213,7,0,93,0,16
16,484,457.206325,1,0,529899.033,529900.0801,7,1,93,16,4
16,485,550.4480783,1,0,529901.6448,529902.6918,7,1,72,8,0
16,486,471.3321369,0,0,529904.2917,529905.3388,7,0,94,8,16
16,487,655.4558236,1,0,529906.9505,529907.9975,7,1,89,16,4
16,488,1203.019088,0,0,529909.7151,529910.7622,7,0,72,4,0
16,489,532.9738631,0,0,529913.068,529914.115,7,0,79,0,8
16,490,427.1041866,1,0,529915.715,529916.762,7,1,76,0,0
16,491,511.9160324,0,0,529918.2562,529919.3032,7,0,73,0,8
16,492,456.3493985,1,0,529921.0207,529922.0678,7,1,83,8,4
16,493,535.6054663,0,0,529923.6795,529924.7265,7,0,67,16,8
16,494,458.301928,0,0,529926.4677,529927.5147,7,0,85,4,4
16,495,505.0817941,1,0,529929.1618,529930.2088,7,1,73,8,8
16,496,601.5329794,0,0,529931.8205,529932.8675,7,0,68,0,8
16,497,898.9857599,0,0,529934.6439,529935.6911,7,0,73,4,8
16,498,625.4310629,0,0,529937.7615,529938.8086,7,0,82,16,0
16,499,640.0107456,0,0,529940.585,529941.632,7,0,91,8,4
16,500,700.7455003,1,0,529943.4202,529944.4672,7,1,79,4,16
16,501,840.4110294,0,0,529946.3496,529947.3966,7,0,83,4,0
16,502,441.5094814,1,0,529949.3142,529950.3612,7,1,63,4,16
16,503,438.4598088,0,0,529951.9494,529952.9965,7,0,92,4,16
16,504,402.0157993,0,0,529954.5258,529955.5729,7,0,65,8,16
16,505,469.6001909,1,1,529957.1022,529958.1493,7,0,80,0,0
16,506,483.3167875,0,0,529959.7845,529960.8316,7,0,61,8,0
16,507,481.5578941,0,0,529962.3492,529963.3962,7,0,96,0,16
16,508,504.5794182,1,0,529964.9021,529965.9491,7,1,86,4,4
16,509,462.4880097,0,0,529967.5844,529968.6314,7,0,85,16,0
16,510,807.6480308,1,0,529970.2549,529971.302,7,1,76,8,16
16,511,751.7287714,0,0,529973.2548,529974.3018,7,0,81,4,4
16,512,889.6862222,0,0,529976.1371,529977.1841,7,0,96,4,8
16,513,725.6610395,0,0,529979.1958,529980.2429,7,0,95,16,8
16,514,812.4481275,1,0,529982.1252,529983.1722,7,1,68,0,4
16,515,372.7143829,0,0,529985.0898,529986.1369,7,0,64,0,4
16,516,521.740274,1,0,529987.6309,529988.678,7,1,69,4,0
16,517,547.5931967,1,0,529990.2309,529991.2779,7,1,98,0,4
16,518,382.5205313,0,0,529993.019,529994.0661,7,0,74,0,16
16,519,723.5579897,1,0,529995.5249,529996.5719,7,1,90,16,16
16,520,578.238517,1,0,529998.3954,529999.4424,7,1,67,16,16
16,521,1204.366072,1,0,530001.1012,530002.1482,7,1,86,4,8
16,522,572.9883993,1,0,530004.4776,530005.5247,7,1,90,8,4
16,523,575.1372596,1,0,530007.2305,530008.2775,7,1,74,4,0
16,524,443.1186244,0,0,530009.8775,530010.9245,7,0,96,0,8
16,525,500.3348223,0,0,530012.4421,530013.4891,7,0,68,4,4
16,526,450.6319363,1,0,530015.1009,530016.1479,7,1,78,16,16
16,527,453.4433171,1,0,530017.689,530018.7361,7,1,76,0,0
16,528,643.0966044,1,0,530020.3713,530021.4184,7,1,88,16,4
16,529,607.8263454,1,0,530023.2066,530024.2536,7,1,70,0,8
16,530,974.4430183,1,1,530026.0418,530027.0888,7,0,97,4,0
16,531,957.8776994,1,0,530029.1476,530030.1946,7,1,98,4,8
16,532,664.1987058,1,0,530032.171,530033.2181,7,1,97,16,0
16,533,526.4337362,0,0,530034.9828,530036.0298,7,0,91,8,8
16,534,553.7422019,1,0,530037.7474,530038.7945,7,1,98,8,4
16,535,685.2026415,0,0,530040.4532,530041.5002,7,0,69,16,8
16,536,548.4073923,1,0,530043.3237,530044.3708,7,1,77,0,0
16,537,586.2453509,0,0,530046.0649,530047.1119,7,0,81,0,4
16,538,507.5971388,0,0,530048.8765,530049.9236,7,0,64,4,16
16,539,485.7201081,0,0,530051.5706,530052.6176,7,0,77,4,8
16,540,458.7038289,1,0,530054.2646,530055.3117,7,1,64,16,16
16,541,765.7976088,1,0,530056.8763,530057.9234,7,1,87,8,4
16,542,712.8390954,0,0,530059.8174,530060.8645,7,0,65,8,0
16,543,856.9979062,0,0,530062.6762,530063.7232,7,0,97,8,8
16,544,796.1530522,1,0,530065.782,530066.8291,7,1,65,16,16
16,545,784.7350662,1,0,530068.7702,530069.8173,7,1,86,16,4
16,546,861.8565173,1,0,530071.6643,530072.7113,7,1,91,0,16
16,547,735.2800961,1,0,530074.6289,530075.6759,7,1,65,8,16
16,548,854.4379061,0,0,530077.5935,530078.6405,7,0,80,16,4
16,549,459.9965326,0,0,530080.5111,530081.5582,7,0,67,16,8
16,550,1025.67844,0,0,530083.0993,530084.1463,7,0,100,16,0
16,551,1381.09386,1,0,530086.3698,530087.4168,7,1,61,0,0
16,552,687.2806689,1,0,530089.8167,530090.8638,7,1,72,16,8
16,553,709.2208334,1,0,530092.6637,530093.7108,7,1,66,8,16
16,554,545.6102553,1,0,530095.4401,530096.4872,7,1,79,4,4
16,555,556.4492578,1,0,530098.2165,530099.2636,7,1,76,0,4
16,556,621.1791529,1,0,530100.8518,530101.8988,7,1,72,8,0
16,557,518.8757685,0,0,530103.5341,530104.5811,7,0,84,4,16
16,558,1136.757428,0,0,530106.1811,530107.2282,7,0,85,8,0
16,559,623.2506356,0,0,530109.4986,530110.5457,7,0,98,8,8
16,560,608.846496,1,0,530112.3339,530113.3809,7,1,95,0,16
16,561,654.5503921,1,0,530118.1102,530119.1572,8,1,63,8,4
16,562,610.3605531,1,0,530120.9925,530122.0395,8,1,64,8,8
16,563,736.234803,0,0,530123.7336,530124.7806,8,0,69,8,4
16,564,584.4725987,0,0,530126.6394,530127.6864,8,0,85,4,0
16,565,869.7555616,1,0,530129.357,530130.404,8,1,65,16,0
16,566,1052.921462,1,0,530132.3569,530133.4039,8,1,69,16,16
16,567,488.4922227,0,0,530135.5921,530136.6392,8,0,74,8,4
16,568,909.5160225,1,0,530138.1332,530139.1803,8,1,61,8,16
16,569,1007.135184,0,0,530141.2155,530142.2625,8,0,74,0,16
16,570,498.3268582,0,0,530144.2743,530145.3213,8,0,85,0,0
16,571,361.2540511,0,0,530147.0154,530148.0624,8,0,84,4,16
16,572,446.5428652,0,0,530149.533,530150.58,8,0,86,16,4
16,573,890.7317802,0,0,530152.1918,530153.2388,8,0,87,8,16
16,574,1001.559773,1,0,530155.2269,530156.274,8,1,64,4,16
16,575,772.0085928,1,0,530158.3916,530159.4386,8,1,87,0,8
16,576,759.2232202,1,0,530161.3445,530162.3915,8,1,93,16,4
16,577,720.8867354,0,0,530164.2267,530165.2738,8,0,74,0,8
16,578,630.9260168,0,0,530167.1325,530168.1796,8,0,68,0,4
16,579,577.0185711,0,0,530169.8384,530170.8854,8,0,74,4,4
16,580,540.7708924,1,0,530172.6148,530173.6618,8,1,98,0,4
16,581,492.424229,0,0,530175.3441,530176.3911,8,0,64,0,4
16,582,612.4813113,1,0,530177.9441,530178.9911,8,1,77,8,16
16,583,532.2882449,1,0,530180.7322,530181.7793,8,1,77,0,0
16,584,932.9879527,1,0,530183.5204,530184.5674,8,1,75,4,8
16,585,997.9422807,0,0,530186.5674,530187.6144,8,0,78,4,0
16,586,568.7157011,1,0,530189.7438,530190.7908,8,1,82,16,16
16,587,709.2277628,0,0,530192.4261,530193.4731,8,0,79,4,4
16,588,684.4638988,0,0,530195.2848,530196.3319,8,0,96,8,8
16,589,1173.529041,0,0,530198.1906,530199.2377,8,0,97,8,0
16,590,1063.321992,1,0,530201.6141,530202.6611,8,1,73,0,16
16,591,1753.722877,0,0,530204.7435,530205.7905,8,0,99,4,4
16,592,1223.844402,0,0,530208.6375,530209.6845,8,0,97,8,0
16,593,791.1408412,1,0,530211.955,530213.002,8,1,99,16,8
16,594,678.6232485,0,0,530214.9197,530215.9667,8,0,93,8,0
16,595,902.8172911,1,0,530217.7314,530218.7784,8,1,86,16,0
16,596,556.9077481,1,0,530220.6842,530221.7313,8,1,95,16,4
16,597,710.2975734,0,0,530223.3547,530224.4018,8,0,97,8,16
16,598,514.9872628,1,0,530226.1312,530227.1782,8,1,99,16,8
16,599,591.1613213,0,0,530228.7899,530229.8369,8,0,84,0,0
16,600,634.757163,0,0,530231.5075,530232.5545,8,0,77,16,0
16,601,527.6355889,1,0,530234.2604,530235.3074,8,1,70,4,0
16,602,560.0709844,0,0,530236.9309,530237.9779,8,0,84,4,8
16,603,533.6117458,1,0,530239.5544,530240.6014,8,1,79,0,16
16,604,605.9615874,0,1,530242.1661,530243.2131,8,1,95,0,16
16,605,543.2692986,1,0,530244.8248,530245.8719,8,1,61,0,0
16,606,905.9936162,0,0,530247.5659,530248.613,8,0,89,4,0
16,607,534.95334,0,0,530250.707,530251.7541,8,0,65,4,8
16,608,701.7402432,1,0,530253.4952,530254.5422,8,1,69,16,16
16,609,583.8901507,1,0,530256.2951,530257.3422,8,1,72,16,8
16,610,566.2885129,0,0,530258.9657,530260.0127,8,0,73,8,4
16,611,504.4377521,0,0,530261.7656,530262.8126,8,0,76,4,4
16,612,631.5350275,0,0,530264.3655,530265.4126,8,0,88,8,16
16,613,658.7430181,1,0,530267.189,530268.2361,8,1,84,4,8
16,614,557.7858475,1,0,530270.036,530271.0831,8,1,81,0,8
16,615,1107.891404,0,0,530272.7771,530273.8241,8,0,91,16,0
16,616,1301.04939,0,0,530275.9888,530277.0358,8,0,93,0,4
16,617,585.6363403,1,0,530279.5181,530280.5651,8,1,64,0,8
16,618,756.7552261,1,0,530282.3181,530283.3651,8,1,69,4,0
16,619,2318.129018,1,0,530285.1768,530286.2238,8,1,78,8,0
16,620,526.6620188,1,0,530289.7532,530290.8002,8,1,64,4,16
16,621,931.6613721,1,0,530292.3531,530293.4001,8,1,90,8,8
16,622,699.9386239,0,0,530295.4119,530296.4587,8,0,96,4,8
16,623,468.0322388,1,0,530298.3647,530299.4118,8,1,65,16,4
16,624,496.8497573,1,0,530301,530302.047,8,1,64,16,8
16,625,922.2782976,0,0,530303.7175,530304.7646,8,0,84,0,0
16,626,396.3849536,1,0,530306.7763,530307.8233,8,1,84,16,4
16,627,688.304284,0,0,530309.3174,530310.3644,8,0,82,8,8
16,628,798.0389833,0,0,530312.2115,530313.2585,8,0,88,16,0
16,629,739.4561686,0,0,530315.1173,530316.1643,8,0,70,16,16
16,630,845.0101758,1,0,530317.9525,530318.9995,8,1,67,0,8
16,631,561.5977455,1,0,530320.8701,530321.9171,8,1,78,8,4
16,632,690.4685429,0,0,530323.67,530324.717,8,0,90,16,8
16,633,608.1812808,1,0,530326.5053,530327.5523,8,1,84,8,8
16,634,542.3777256,0,0,530329.2111,530330.2581,8,0,65,16,16
16,635,535.9407687,0,0,530331.9757,530333.0227,8,0,78,0,16
16,636,541.2905917,0,0,530334.6462,530335.6933,8,0,79,0,4
16,637,499.3242959,1,0,530337.352,530338.3991,8,1,94,4,16
16,638,634.5061675,1,0,530340.0461,530341.0931,8,1,99,4,16
16,639,683.4241152,0,0,530342.846,530343.8931,8,0,80,8,0
16,640,577.7449952,1,0,530345.6577,530346.7048,8,1,92,4,4
16,641,528.5552642,0,0,530352.0929,530353.1399,9,0,67,8,8
16,642,808.4279648,1,0,530354.7281,530355.7751,9,1,97,4,0
16,643,573.0276654,0,0,530357.6104,530358.6574,9,0,70,0,4
16,644,384.0453676,0,0,530360.3044,530361.3515,9,0,66,16,0
16,645,380.7431597,1,0,530362.7515,530363.7985,9,1,76,8,8
16,646,451.0630942,1,0,530365.2102,530366.2572,9,1,64,4,0
16,647,390.9388899,0,0,530367.7513,530368.7983,9,0,73,0,8
16,648,467.3088943,0,0,530370.2218,530371.2689,9,0,81,8,4
16,649,660.3186693,0,0,530372.763,530373.81,9,0,79,16,4
16,650,451.6559364,0,0,530375.6805,530376.7276,9,0,80,4,16
16,651,598.0925701,1,0,530378.3511,530379.3981,9,1,93,16,8
16,652,524.6490502,0,0,530381.1275,530382.1745,9,0,76,4,16
16,653,805.698966,0,0,530383.8215,530384.8685,9,0,99,16,8
16,654,454.7710526,0,0,530386.7744,530387.8214,9,0,75,16,8
16,655,475.6437162,0,0,530389.3155,530390.3625,9,0,63,0,0
16,656,656.3955171,1,0,530391.9978,530393.0448,9,1,78,4,0
16,657,625.5773486,0,0,530394.8565,530395.9036,9,0,92,4,8
16,658,470.5829999,0,0,530397.6094,530398.6565,9,0,65,16,0
16,659,568.9813251,1,0,530400.327,530401.374,9,1,89,0,8
16,660,580.2499457,0,0,530402.974,530404.021,9,0,97,8,0
16,661,463.5466563,1,0,530405.7975,530406.8445,9,1,96,4,4
16,662,535.4664949,0,0,530408.3386,530409.3856,9,0,87,16,8
16,663,594.3545848,1,0,530410.9738,530412.0208,9,1,88,0,0
16,664,637.8599604,0,0,530413.7032,530414.7502,9,0,88,8,16
16,665,474.7467537,1,0,530416.5031,530417.5502,9,1,74,8,0
16,666,537.8382485,1,0,530419.1501,530420.1972,9,1,67,4,4
16,667,638.0058612,1,0,530421.75,530422.7971,9,1,90,8,0
16,668,658.72223,1,0,530424.5382,530425.5852,9,1,98,4,8
16,669,718.3660013,1,0,530427.4087,530428.4557,9,1,87,16,16
16,670,642.466421,1,0,530430.2204,530431.2674,9,1,91,4,16
16,671,1482.037942,0,0,530433.0909,530434.138,9,0,89,4,8
16,672,572.1203089,0,0,530436.7379,530437.7849,9,0,63,0,0
16,673,707.841513,1,0,530439.432,530440.479,9,1,72,16,4
16,674,729.4829467,1,0,530442.3613,530443.4083,9,1,64,4,8
16,675,1013.466276,0,0,530445.2083,530446.2553,9,0,61,0,0
16,676,713.622494,1,0,530448.3612,530449.4082,9,1,63,8,16
16,677,485.4718074,0,0,530451.2552,530452.3022,9,0,86,0,4
16,678,495.4396399,1,0,530453.9022,530454.9492,9,1,73,0,16
16,679,573.2979091,1,0,530456.4786,530457.5256,9,1,99,4,4
16,680,562.0254388,0,0,530459.1727,530460.2197,9,0,66,8,4
16,681,645.1430649,0,0,530461.9726,530463.0196,9,0,70,16,16
16,682,504.2629791,0,0,530464.8313,530465.8784,9,0,61,4,4
16,683,507.0966876,1,0,530467.4195,530468.4666,9,1,81,8,8
16,684,622.2855347,1,0,530470.0783,530471.1253,9,1,99,4,8
16,685,428.1528244,0,0,530472.8076,530473.8547,9,0,67,16,8
16,686,509.0257344,1,0,530475.4546,530476.5017,9,1,100,0,0
16,687,505.1383837,0,0,530478.1604,530479.2075,9,0,80,0,8
16,688,625.2335772,1,0,530480.8662,530481.9133,9,1,92,0,16
16,689,686.8552854,1,0,530483.5956,530484.6426,9,1,67,8,8
16,690,620.0897089,0,0,530486.3485,530487.3955,9,0,61,8,4
16,691,500.9480675,0,0,530489.1837,530490.2307,9,0,88,0,4
16,692,618.9502203,1,0,530491.8425,530492.8895,9,1,79,8,16
16,693,681.4369389,1,0,530494.6542,530495.7012,9,1,96,16,4
16,694,533.5747894,0,0,530497.4659,530498.5129,9,0,71,0,8
16,695,628.5927595,1,0,530500.1129,530501.1599,9,1,83,8,4
16,696,654.4121905,0,0,530502.901,530503.9481,9,0,67,16,0
16,697,787.5814785,1,0,530505.748,530506.795,9,1,97,16,16
16,698,690.0882,0,0,530508.7244,530509.7714,9,0,93,16,16
16,699,413.2848049,1,0,530511.4773,530512.5243,9,1,84,4,4
16,700,606.0020084,1,0,530514.1243,530515.1713,9,1,79,8,16
16,701,440.5986601,0,0,530516.8066,530517.8537,9,0,69,0,4
16,702,471.3017248,1,0,530519.383,530520.43,9,1,68,4,16
16,703,438.7589247,0,0,530521.9476,530522.9947,9,0,88,8,0
16,704,536.4801009,1,0,530524.477,530525.524,9,1,90,0,16
16,705,528.6110836,0,0,530527.2416,530528.2887,9,0,66,8,0
16,706,617.8192006,1,0,530529.9475,530530.9945,9,1,87,16,0
16,707,410.9696408,1,0,530532.6533,530533.7003,9,1,78,4,0
16,708,456.8837264,0,0,530535.1473,530536.1943,9,0,78,8,16
16,709,542.5351752,0,0,530537.6767,530538.7237,9,0,95,8,4
16,710,489.2132573,0,0,530540.359,530541.406,9,0,86,0,16
16,711,880.8159176,1,0,530542.9354,530543.9824,9,1,85,4,0
16,712,483.2347906,0,0,530545.9471,530546.9941,9,0,77,8,8
16,713,579.2936991,1,0,530548.547,530549.594,9,1,73,16,4
16,714,790.2481135,1,0,530551.2528,530552.2998,9,1,80,16,16
16,715,546.5018282,0,0,530554.1116,530555.1586,9,0,74,0,16
16,716,377.387827,0,0,530556.8409,530557.8879,9,0,85,0,8
16,717,630.2711957,1,0,530559.4409,530560.4879,9,1,92,16,0
16,718,637.8164596,1,0,530562.2643,530563.3114,9,1,69,4,16
16,719,389.4952809,0,0,530565.1466,530566.1936,9,0,75,0,4
16,720,555.4568246,1,0,530567.6877,530568.7347,9,1,65,16,4
19,1,702.0297769,0,0,531323.4344,531324.4814,1,0,92,16,0
19,2,628.237481,0,0,531326.2931,531327.3402,1,0,97,16,16
19,3,672.0231093,1,0,531329.0695,531330.1166,1,1,71,8,8
19,4,570.3275807,0,0,531331.9401,531332.9871,1,0,64,4,0
19,5,413.6270784,0,0,531334.6929,531335.74,1,0,64,4,16
19,6,550.1089683,0,0,531337.1752,531338.2223,1,0,75,16,16
19,7,511.9045255,1,0,531339.9046,531340.9516,1,1,63,8,16
19,8,498.9143529,0,0,531342.6104,531343.6574,1,0,65,16,4
19,9,447.3532531,0,0,531345.328,531346.375,1,0,75,16,4
19,10,606.8809197,1,0,531347.9044,531348.9514,1,1,88,4,16
19,11,598.1488165,1,0,531350.5632,531351.6102,1,1,79,4,8
19,12,620.161354,0,0,531353.3513,531354.3983,1,0,96,4,4
19,13,553.1228392,0,0,531356.1512,531357.1983,1,0,96,16,16
19,14,600.7742604,1,0,531358.8806,531359.9276,1,1,70,0,8
19,15,703.1296146,0,0,531361.7041,531362.7511,1,0,99,4,8
19,16,550.2537141,0,0,531364.6569,531365.704,1,0,84,8,4
19,17,634.7945463,1,0,531367.2804,531368.3274,1,1,88,8,8
19,18,499.291231,0,0,531369.998,531371.045,1,0,69,0,0
19,19,659.6504163,0,0,531372.5626,531373.6097,1,0,72,4,4
19,20,587.8784035,0,0,531375.3273,531376.3743,1,0,91,0,4
19,21,579.0908659,0,0,531377.986,531379.0331,1,0,81,0,0
19,22,511.5665285,1,0,531380.8095,531381.8565,1,1,85,4,16
19,23,707.7045082,1,0,531383.5624,531384.6094,1,1,61,4,16
19,24,621.1410834,0,0,531386.4799,531387.527,1,0,74,16,8
19,25,958.6646046,1,0,531389.2563,531390.3034,1,1,99,8,16
19,26,663.3679987,1,0,531392.3268,531393.3739,1,1,64,8,0
19,27,597.1429095,0,0,531395.068,531396.115,1,0,81,16,16
19,28,649.6629508,1,0,531397.8914,531398.9385,1,1,90,0,0
19,29,447.9253073,0,0,531400.7503,531401.7972,1,0,78,0,8
19,30,500.8749665,1,0,531403.4442,531404.4913,1,1,76,16,4
19,31,616.9145807,0,0,531406.103,531407.15,1,0,80,8,8
19,32,528.6550113,1,0,531408.8323,531409.8794,1,1,100,8,4
19,33,538.046555,0,0,531411.5029,531412.5499,1,0,93,16,16
19,34,447.0803147,0,0,531414.1028,531415.1498,1,0,94,8,8
19,35,831.0980599,1,0,531416.6439,531417.691,1,1,70,16,4
19,36,419.2775572,0,0,531419.6086,531420.6556,1,0,66,0,4
19,37,605.3633976,1,0,531422.1497,531423.1967,1,1,82,16,0
19,38,672.5859244,0,0,531424.8555,531425.9025,1,0,78,16,0
19,39,533.5217065,1,0,531427.7142,531428.7613,1,1,75,16,8
19,40,545.9136475,1,0,531430.4789,531431.5259,1,1,98,0,8
19,41,651.0395765,0,0,531433.2318,531434.2788,1,0,63,8,16
19,42,711.0359732,1,0,531435.9729,531437.0199,1,1,78,8,4
19,43,557.6484578,1,0,531438.8551,531439.9022,1,1,91,0,4
19,44,455.1310344,1,0,531441.4786,531442.5257,1,1,64,4,8
19,45,678.401552,1,0,531444.0315,531445.0785,1,1,81,4,0
19,46,448.8730849,1,0,531446.808,531447.855,1,1,66,0,4
19,47,475.8493281,0,0,531449.4078,531450.4549,1,0,66,0,0
19,48,670.9844806,1,0,531452.1019,531453.1489,1,1,98,8,16
19,49,698.5793585,1,0,531454.9842,531456.0312,1,1,81,4,4
19,50,724.6759625,0,0,531457.89,531458.937,1,0,69,4,4
19,51,718.4722928,1,0,531460.8193,531461.8664,1,1,92,16,8
19,52,670.4324445,0,0,531463.7722,531464.8192,1,0,88,8,0
19,53,472.2329908,0,0,531466.6074,531467.6545,1,0,97,0,8
19,54,485.8879936,1,0,531469.2427,531470.2897,1,1,66,0,16
19,55,472.8889669,1,0,531471.8897,531472.9367,1,1,78,4,4
19,56,423.2526794,1,1,531474.5955,531475.6425,1,0,90,4,0
19,57,663.5427716,1,0,531477.1131,531478.1601,1,1,93,4,8
19,58,590.3410083,0,0,531479.8542,531480.9012,1,0,66,0,8
19,59,849.5916558,1,0,531482.56,531483.607,1,1,80,4,0
19,60,785.207842,1,0,531485.4893,531486.5364,1,1,71,16,8
19,61,724.5077339,0,0,531488.454,531489.501,1,0,97,8,0
19,62,706.9118706,1,0,531491.4186,531492.4657,1,1,88,0,16
19,63,647.816286,1,0,531494.3127,531495.3597,1,1,82,4,0
19,64,370.7730593,0,0,531497.2067,531498.2537,1,0,62,0,4
19,65,421.7236085,1,0,531499.7479,531500.7948,1,1,64,0,16
19,66,630.4614091,0,0,531502.2889,531503.336,1,0,80,0,0
19,67,567.9088617,1,0,531505.1477,531506.1947,1,1,77,4,8
19,68,524.8735253,0,0,531507.8535,531508.9005,1,0,64,8,4
19,69,600.1429219,1,0,531510.5593,531511.6064,1,1,84,16,4
19,70,498.9705574,1,0,531513.3004,531514.3475,1,1,65,16,0
19,71,858.2552355,1,0,531515.8651,531516.9121,1,1,79,4,16
19,72,464.2692728,0,0,531518.865,531519.912,1,0,87,0,16
19,73,644.0328751,0,0,531521.5473,531522.5943,1,0,70,8,0
19,74,694.0995506,0,0,531524.4413,531525.4884,1,0,71,8,16
19,75,584.009146,0,0,531527.3355,531528.3825,1,0,61,0,16
19,76,587.8368275,1,0,531530.1353,531531.1823,1,1,64,16,8
19,77,596.3464223,0,0,531532.947,531533.994,1,0,72,8,0
19,78,740.209967,1,0,531535.594,531536.641,1,1,77,8,4
19,79,635.6884291,1,0,531538.4175,531539.4645,1,1,88,16,0
19,80,574.2703661,0,0,531541.1468,531542.1939,1,0,90,8,8
19,81,572.2612471,1,0,531576.9107,531577.9577,2,1,94,8,4
19,82,680.7024726,1,0,531579.7342,531580.7812,2,1,89,16,4
19,83,437.5986897,1,0,531582.6164,531583.6634,2,1,86,8,4
19,84,566.3101127,0,1,531585.2987,531586.3457,2,1,91,4,0
19,85,740.5348754,0,0,531587.9575,531589.0045,2,0,61,8,16
19,86,591.2587587,0,0,531590.8515,531591.8985,2,0,79,0,16
19,87,552.9561505,0,0,531593.5809,531594.6279,2,0,89,0,4
19,88,705.9883457,1,0,531596.322,531597.369,2,1,80,4,4
19,89,798.9352178,1,0,531599.169,531600.216,2,1,74,0,8
19,90,653.6911977,0,0,531602.1571,531603.2042,2,0,99,0,4
19,91,519.2546134,0,0,531604.9335,531605.9806,2,0,67,0,8
19,92,563.6026718,0,0,531607.6511,531608.6982,2,0,98,8,8
19,93,737.0883066,1,0,531610.3687,531611.4157,2,1,83,4,16
19,94,646.7233776,1,0,531613.204,531614.2509,2,1,91,0,0
19,95,902.0150714,0,0,531616.0627,531617.1097,2,0,89,8,0
19,96,725.6233551,1,0,531619.0391,531620.0861,2,1,73,16,0
19,97,596.1300734,0,0,531621.8625,531622.9096,2,0,71,4,0
19,98,661.5224888,1,0,531624.6742,531625.7213,2,1,80,4,16
19,99,731.3346579,1,0,531627.5565,531628.6035,2,1,91,16,0
19,100,453.1900537,0,0,531630.5094,531631.5564,2,0,78,4,4
19,101,686.8607168,1,0,531633.1329,531634.1799,2,1,92,8,0
19,102,646.2568031,1,0,531635.9563,531637.0033,2,1,99,4,0
19,103,677.0203068,1,0,531638.8386,531639.8856,2,1,89,4,0
19,104,443.8720377,0,0,531641.6268,531642.6738,2,0,76,4,4
19,105,669.0361857,0,0,531644.2385,531645.2855,2,0,61,16,4
19,106,737.7030916,1,0,531647.1208,531648.1678,2,1,92,4,4
19,107,458.4736632,1,0,531650.003,531651.0501,2,1,95,4,8
19,108,698.0604291,0,0,531652.7206,531653.7676,2,0,80,16,8
19,109,460.3900062,1,0,531655.6382,531656.6852,2,1,97,8,16
19,110,431.7511104,0,0,531658.2617,531659.3087,2,0,78,0,16
19,111,855.4376954,0,0,531660.8381,531661.8851,2,0,92,16,16
19,112,408.8485396,0,0,531663.9086,531664.9557,2,0,74,0,0
19,113,616.4680243,1,0,531666.532,531667.5791,2,1,97,4,8
19,114,492.1386288,0,0,531669.2614,531670.3084,2,0,84,8,4
19,115,677.8464363,0,0,531671.8496,531672.8966,2,0,92,8,16
19,116,533.660293,1,0,531674.6377,531675.6848,2,1,86,16,16
19,117,606.4786338,1,0,531677.3318,531678.3788,2,1,83,0,4
19,118,664.1698754,0,0,531680.1552,531681.2023,2,0,61,4,16
19,119,551.5648962,0,0,531682.9669,531684.014,2,0,64,16,8
19,120,802.0052933,1,0,531685.7433,531686.7904,2,1,91,16,0
19,121,725.4878484,1,0,531688.7668,531689.8138,2,1,70,4,4
19,122,542.7465616,1,0,531691.6726,531692.7197,2,1,80,8,4
19,123,414.9355658,0,0,531694.2843,531695.3314,2,0,69,0,8
19,124,532.410705,0,0,531696.849,531697.896,2,0,74,0,4
19,125,592.9568281,1,0,531699.6254,531700.6724,2,1,61,8,8
19,126,768.244472,1,0,531702.2841,531703.3312,2,1,81,8,16
19,127,554.7212033,0,0,531705.1547,531706.2017,2,0,67,16,16
19,128,512.7106368,0,0,531707.8134,531708.8605,2,0,98,4,16
19,129,583.249615,0,0,531710.4839,531711.531,2,0,64,8,8
19,130,499.4379018,1,0,531713.2368,531714.2839,2,1,64,0,0
19,131,698.7456623,0,0,531715.8603,531716.9073,2,0,100,8,0
19,132,493.51025,0,0,531718.6955,531719.7425,2,0,88,16,0
19,133,484.1163965,1,0,531721.4131,531722.4601,2,1,84,8,8
19,134,387.4038218,0,0,531723.9777,531725.0248,2,0,87,0,4
19,135,421.4572145,1,0,531726.4247,531727.4717,2,1,86,4,8
19,136,571.6214395,0,0,531728.9894,531730.0364,2,0,84,16,4
19,137,418.1534668,0,0,531731.7658,531732.8128,2,0,85,8,0
19,138,539.9347959,0,0,531734.3422,531735.3892,2,0,65,8,8
19,139,443.8115986,0,0,531737.0833,531738.1303,2,0,64,16,16
19,140,814.5184974,1,0,531739.7774,531740.8244,2,1,99,16,0
19,141,472.6676135,1,0,531742.7774,531743.8243,2,1,68,0,0
19,142,417.2969254,0,0,531745.4596,531746.5066,2,0,77,4,8
19,143,709.1523519,1,0,531747.9889,531749.0359,2,1,94,16,8
19,144,535.6020436,0,0,531750.9183,531751.9653,2,0,62,0,16
19,145,725.8793551,1,0,531753.577,531754.6241,2,1,78,16,16
19,146,547.2598613,0,0,531756.4358,531757.4828,2,0,73,8,4
19,147,633.7539928,1,0,531759.1063,531760.1533,2,1,96,16,8
19,148,635.8300953,0,0,531761.8592,531762.9062,2,0,69,0,0
19,149,742.9501298,1,0,531764.6238,531765.6708,2,1,73,0,8
19,150,415.2527748,0,0,531767.4355,531768.4825,2,0,85,16,4
19,151,435.8020701,0,0,531770.012,531771.059,2,0,64,0,8
19,152,464.1961299,0,0,531772.6707,531773.7177,2,0,73,16,8
19,153,397.1560755,1,0,531775.2118,531776.2588,2,1,66,0,16
19,154,384.747966,1,0,531777.6942,531778.7411,2,1,66,4,0
19,155,600.4732198,1,0,531780.2823,531781.3293,2,1,69,16,4
19,156,570.2886996,1,0,531782.9763,531784.0233,2,1,98,4,16
19,157,806.3010891,1,0,531785.7174,531786.7645,2,1,82,4,8
19,158,744.6147073,1,0,531788.682,531789.7291,2,1,91,8,16
19,159,621.6615526,0,0,531791.529,531792.5761,2,0,66,8,0
19,160,578.4202613,0,0,531794.2584,531795.3054,2,0,82,0,16
19,161,578.4295003,1,0,531829.9869,531831.034,3,1,69,0,0
19,162,484.387795,1,0,531832.6339,531833.681,3,1,75,4,8
19,163,368.8778891,0,0,531835.2456,531836.2927,3,0,64,8,8
19,164,431.1790561,1,0,531837.7162,531838.7632,3,1,65,0,8
19,165,608.5608957,0,0,531840.2338,531841.2808,3,0,84,8,0
19,166,593.2474748,1,0,531843.0572,531844.1043,3,1,82,16,0
19,167,427.6123791,1,0,531845.8337,531846.8807,3,1,62,0,16
19,168,730.9531601,0,0,531848.3394,531849.3866,3,0,90,8,4
19,169,584.4630167,0,0,531851.3158,531852.3629,3,0,94,4,16
19,170,623.4862746,1,0,531854.0099,531855.0569,3,1,98,4,8
19,171,478.3542786,0,0,531856.8098,531857.8569,3,0,94,4,16
19,172,653.3046955,0,0,531859.5392,531860.5862,3,0,77,16,4
19,173,421.5207333,0,0,531862.2568,531863.3038,3,0,94,8,4
19,174,468.6778628,1,0,531864.8567,531865.9037,3,1,74,8,0
19,175,457.5512932,0,0,531867.5507,531868.5978,3,0,87,16,8
19,176,419.433467,0,0,531870.1977,531871.2448,3,0,95,16,0
19,177,634.9223538,0,0,531872.7624,531873.8094,3,0,62,16,16
19,178,553.0885776,1,0,531875.48,531876.527,3,1,92,0,0
19,179,571.9063117,0,0,531878.2094,531879.2564,3,0,92,4,4
19,180,638.1872203,1,0,531880.974,531882.021,3,1,72,8,16
19,181,455.2857892,1,0,531883.868,531884.915,3,1,71,8,8
19,182,619.4291554,1,0,531886.3856,531887.4326,3,1,85,16,16
19,183,388.2403452,0,1,531889.2208,531890.2679,3,1,89,0,8
19,184,699.5198218,1,0,531891.6796,531892.7266,3,1,91,0,4
19,185,625.1608612,1,0,531894.5148,531895.5619,3,1,64,4,4
19,186,449.9548293,0,0,531897.3971,531898.4441,3,0,67,0,4
19,187,601.3628679,1,0,531900.0676,531901.1146,3,1,71,0,16
19,188,454.6621501,1,0,531902.8323,531903.8793,3,1,86,0,4
19,189,590.6793902,0,0,531905.5263,531906.5733,3,0,83,8,16
19,190,393.212905,1,0,531908.3498,531909.3968,3,1,84,8,4
19,191,641.6907635,0,0,531910.8203,531911.8673,3,0,96,8,0
19,192,790.3147538,0,0,531913.6555,531914.7026,3,0,69,16,8
19,193,544.1797767,0,0,531916.6319,531917.679,3,0,92,16,4
19,194,555.2705447,1,0,531919.2907,531920.3377,3,1,77,4,8
19,195,640.9982161,0,0,531922.0318,531923.0788,3,0,71,16,8
19,196,563.4271289,1,0,531924.8435,531925.8905,3,1,93,16,4
19,197,438.7597365,1,0,531927.6081,531928.6552,3,1,95,4,4
19,198,751.3977456,0,0,531930.2434,531931.2904,3,0,69,4,16
19,199,617.2433386,0,0,531933.1727,531934.2197,3,0,79,16,16
19,200,746.7127526,0,0,531935.8432,531936.8903,3,0,98,4,4
19,201,439.144699,0,0,531938.7137,531939.7608,3,0,96,8,0
19,202,549.865672,0,0,531941.2549,531942.302,3,0,70,0,0
19,203,607.553064,0,1,531943.9371,531944.9842,3,1,91,16,8
19,204,657.3125394,0,0,531946.7135,531947.7606,3,0,91,16,0
19,205,575.3944565,0,0,531949.6194,531950.6664,3,0,81,16,0
19,206,377.7331803,0,0,531952.337,531953.384,3,0,84,0,16
19,207,588.6467885,0,0,531954.831,531955.878,3,0,93,4,0
19,208,650.1229808,0,0,531957.5486,531958.5956,3,0,68,16,4
19,209,484.2022432,1,0,531960.4426,531961.4897,3,1,77,0,16
19,210,784.8663804,1,0,531963.1367,531964.1837,3,1,81,8,16
19,211,549.2878434,1,0,531966.0543,531967.1013,3,1,68,0,16
19,212,577.2615243,0,0,531968.7483,531969.7953,3,0,93,16,16
19,213,524.9131763,0,0,531971.5718,531972.6188,3,0,88,8,8
19,214,681.1944545,0,0,531974.2305,531975.2776,3,0,93,16,16
19,215,541.3514577,0,0,531977.0422,531978.0893,3,0,62,4,4
19,216,666.3283599,1,0,531979.7833,531980.8304,3,1,98,0,4
19,217,684.869306,1,0,531982.6068,531983.6538,3,1,90,0,8
19,218,492.4643071,1,0,531985.3479,531986.395,3,1,67,4,0
19,219,569.7485972,1,0,531987.9949,531989.0419,3,1,64,16,0
19,220,533.752299,0,0,531990.6537,531991.7007,3,0,78,4,0
19,221,756.6120618,1,0,531993.4418,531994.4889,3,1,99,8,16
19,222,551.3165954,1,0,531996.3712,531997.4182,3,1,68,4,8
19,223,683.5931556,1,0,531999.1358,532000.1829,3,1,83,0,8
19,224,733.8938882,1,1,532001.9005,532002.9475,3,0,89,4,16
19,225,583.5433414,1,0,532004.8769,532005.9239,3,1,87,8,8
19,226,527.898945,0,0,532007.5357,532008.5827,3,0,78,8,4
19,227,576.2340595,1,0,532010.2532,532011.3002,3,1,75,16,8
19,228,689.614738,1,0,532013.0649,532014.1119,3,1,99,16,4
19,229,585.997092,1,0,532015.8413,532016.8883,3,1,68,0,0
19,230,443.1991235,1,0,532018.5471,532019.5941,3,1,76,0,4
19,231,632.8974514,0,0,532021.1235,532022.1706,3,0,80,4,8
19,232,833.25,0,0,532023.8411,532024.8881,3,0,62,4,0
19,233,517.0795757,0,0,532026.8293,532027.8763,3,0,94,0,0
19,234,586.7697117,1,0,532029.4174,532030.4645,3,1,70,8,8
19,235,507.7800379,0,0,532032.2056,532033.2526,3,0,85,4,16
19,236,528.5837932,1,0,532034.8055,532035.8526,3,1,87,0,8
19,237,607.1958189,0,0,532037.429,532038.476,3,0,79,8,4
19,238,714.7758834,1,0,532040.2054,532041.2525,3,1,73,4,0
19,239,501.7904072,0,0,532043.1583,532044.2054,3,0,66,8,0
19,240,549.6762706,1,0,532045.8994,532046.9465,3,1,95,8,16
19,241,589.4940909,1,0,532067.7577,532068.8047,4,1,74,16,0
19,242,400.1453087,0,0,532070.487,532071.5341,4,0,76,8,8
19,243,647.8459281,1,0,532073.1223,532074.1693,4,1,87,4,4
19,244,569.7293491,0,0,532075.9693,532077.0163,4,0,91,4,4
19,245,439.6536193,0,0,532078.7692,532079.8162,4,0,61,8,8
19,246,562.1563679,1,0,532081.4397,532082.4868,4,1,73,8,4
19,247,596.6101215,0,0,532084.0985,532085.1455,4,0,93,8,16
19,248,498.2645361,0,0,532086.9337,532087.9807,4,0,96,16,0
19,249,484.1991634,1,0,532089.6278,532090.6748,4,1,75,16,8
19,250,565.2018058,1,0,532092.2748,532093.3218,4,1,81,0,4
19,251,441.6866059,1,0,532094.957,532096.0041,4,1,96,0,8
19,252,711.2057417,0,0,532097.5687,532098.6158,4,0,80,8,16
19,253,582.8692721,0,0,532100.5096,532101.5569,4,0,97,16,4
19,254,439.5870208,0,0,532103.1804,532104.2274,4,0,87,16,16
19,255,429.0425144,1,0,532105.7097,532106.7568,4,1,87,0,4
19,256,550.2899006,1,0,532108.3685,532109.4155,4,1,96,4,8
19,257,770.9969534,0,0,532111.1567,532112.2037,4,0,92,4,4
19,258,395.6631911,0,0,532114.086,532115.133,4,0,96,8,4
19,259,512.2956473,0,0,532116.6036,532117.6506,4,0,79,0,8
19,260,540.538032,1,0,532119.2623,532120.3094,4,1,69,0,16
19,261,956.170433,0,0,532122.0505,532123.0975,4,0,61,16,0
19,262,544.7787783,1,0,532125.2269,532126.274,4,1,94,16,16
19,263,438.6569515,0,0,532127.968,532129.015,4,0,86,4,4
19,264,543.3039871,0,1,532130.6032,532131.6503,4,1,90,4,8
19,265,875.3595018,1,0,532133.2973,532134.3443,4,1,90,8,16
19,266,461.3797447,0,0,532136.2502,532137.2972,4,0,87,8,4
19,267,635.7985283,0,0,532138.8148,532139.8619,4,0,99,0,0
19,268,412.4891295,1,0,532141.5912,532142.6383,4,1,76,0,16
19,269,623.0547318,0,0,532144.0735,532145.1205,4,0,86,16,4
19,270,516.2946371,1,0,532146.7793,532147.8264,4,1,97,16,8
19,271,654.6801663,1,0,532149.544,532150.591,4,1,93,0,16
19,272,781.9537545,0,0,532152.3557,532153.4027,4,0,74,0,4
19,273,590.2763346,1,0,532155.2262,532156.2732,4,1,89,0,16
19,274,629.6884045,0,0,532157.9438,532158.9908,4,0,82,8,8
19,275,544.3418459,1,0,532160.7672,532161.8143,4,1,99,16,4
19,276,666.9650878,0,0,532163.4025,532164.4495,4,0,85,4,0
19,277,959.2293445,0,0,532166.2612,532167.3082,4,0,92,4,8
19,278,573.0900712,1,0,532169.3553,532170.4023,4,1,100,4,0
19,279,742.0774198,0,0,532172.0493,532173.0963,4,0,78,16,16
19,280,633.2774094,0,0,532174.9551,532176.0021,4,0,100,16,8
19,281,465.5192458,0,0,532177.755,532178.8021,4,0,97,8,16
19,282,386.3324714,1,0,532180.3079,532181.355,4,1,98,4,0
19,283,450.0171932,1,0,532182.7902,532183.8373,4,1,77,0,0
19,284,598.1214842,0,0,532185.3431,532186.3901,4,0,62,16,0
19,285,574.4855601,1,0,532188.1077,532189.1548,4,1,86,16,0
19,286,468.479607,0,0,532190.8488,532191.8959,4,0,78,4,8
19,287,533.3665666,1,0,532193.4958,532194.5429,4,1,94,0,0
19,288,604.6904833,1,0,532196.2134,532197.2605,4,1,69,4,0
19,289,540.1711628,1,0,532198.931,532199.978,4,1,97,16,8
19,290,547.8908147,0,0,532201.7074,532202.7544,4,0,94,0,4
19,291,585.679113,1,0,532204.3544,532205.4014,4,1,69,4,16
19,292,610.7547967,0,0,532207.1544,532208.2014,4,0,84,4,16
19,293,470.8371171,0,0,532209.9425,532210.9895,4,0,79,8,4
19,294,495.4647043,1,0,532212.4836,532213.5306,4,1,76,16,8
19,295,447.6681524,1,0,532215.1306,532216.1776,4,1,94,16,16
19,296,564.6401456,0,0,532217.7895,532218.8364,4,0,63,0,0
19,297,606.937124,0,0,532220.6011,532221.6481,4,0,69,4,0
19,298,595.2346508,1,0,532223.3539,532224.401,4,1,96,8,0
19,299,553.7765055,0,0,532226.0245,532227.0715,4,0,94,16,16
19,300,647.7774046,0,0,532228.6832,532229.7303,4,0,78,0,8
19,301,392.9665291,1,0,532231.4361,532232.4832,4,1,76,8,4
19,302,681.5578591,1,0,532233.9655,532235.0125,4,1,61,4,16
19,303,652.3226562,0,0,532236.8477,532237.8948,4,0,69,16,4
19,304,428.3830739,1,0,532239.7065,532240.7535,4,1,69,8,0
19,305,816.7928555,1,0,532242.3653,532243.4123,4,1,82,8,8
19,306,650.9991554,0,0,532245.2711,532246.3181,4,0,92,16,4
19,307,453.8171574,0,0,532248.071,532249.118,4,0,87,4,16
19,308,411.4886121,1,0,532250.6004,532251.6474,4,1,76,4,4
19,309,440.199881,1,0,532253.0827,532254.1297,4,1,67,4,16
19,310,502.0687351,0,0,532255.7649,532256.812,4,0,66,8,0
19,311,598.3690149,1,0,532258.3766,532259.4237,4,1,99,0,8
19,312,551.3789594,1,0,532261.1295,532262.1765,4,1,87,8,0
19,313,671.8471815,0,0,532263.753,532264.8,4,0,69,8,8
19,314,707.8858255,1,0,532266.4941,532267.5411,4,1,94,4,8
19,315,681.045859,1,0,532269.3999,532270.4469,4,1,80,0,8
19,316,402.561333,0,0,532272.2351,532273.2822,4,0,96,0,16
19,317,535.7321609,0,0,532274.8939,532275.941,4,0,68,0,4
19,318,601.7967205,1,0,532277.588,532278.635,4,1,72,8,16
19,319,550.7795728,1,0,532280.388,532281.4349,4,1,88,0,0
19,320,672.6190312,0,0,532283.176,532284.2231,4,0,100,8,0
19,321,1259.60784,0,0,532305.0108,532306.0579,5,0,92,0,4
19,322,384.3791719,0,0,532308.4343,532309.4813,5,0,76,8,0
19,323,632.5070994,1,0,532311.046,532312.093,5,1,95,4,16
19,324,714.9429572,1,0,532313.7635,532314.8106,5,1,64,4,16
19,325,604.376739,0,0,532316.6341,532317.6811,5,0,82,0,0
19,326,762.3310639,1,0,532319.3163,532320.3634,5,1,76,4,8
19,327,569.6608258,1,0,532322.281,532323.328,5,1,88,16,16
19,328,803.1043611,1,0,532325.0103,532326.0574,5,1,61,16,0
19,329,576.4881348,0,0,532328.022,532329.0691,5,0,69,0,16
19,330,516.3697049,0,0,532330.822,532331.869,5,0,72,0,4
19,331,488.8302616,0,0,532333.4925,532334.5395,5,0,78,8,16
19,332,783.2364494,0,0,532336.0453,532337.0924,5,0,82,4,4
19,333,483.0589046,0,0,532338.9982,532340.0453,5,0,96,16,16
19,334,512.9273707,0,0,532341.5864,532342.6334,5,0,95,0,16
19,335,528.3820729,0,0,532344.151,532345.1981,5,0,77,4,8
19,336,395.3313533,1,0,532346.751,532347.798,5,1,76,8,4
19,337,598.1969368,0,1,532349.2333,532350.2803,5,1,91,4,4
19,338,590.4703556,0,0,532351.9509,532352.9979,5,0,80,0,0
19,339,544.8761737,1,0,532354.6685,532355.7155,5,1,75,4,4
19,340,654.2986686,0,0,532357.2919,532358.3389,5,0,64,0,8
19,341,675.890057,0,0,532360.1154,532361.1624,5,0,97,8,16
19,342,662.636955,0,0,532362.9506,532363.9976,5,0,62,16,4
19,343,719.1321184,0,0,532365.8211,532366.8681,5,0,82,4,16
19,344,443.1848798,1,0,532368.774,532369.821,5,1,75,0,8
19,345,597.2757217,0,0,532371.3269,532372.3739,5,0,79,8,4
19,346,631.7979988,0,0,532374.1386,532375.1856,5,0,83,0,4
19,347,593.4576642,0,0,532376.9267,532377.9737,5,0,87,0,4
19,348,864.1266826,1,0,532379.7502,532380.7972,5,1,96,8,8
19,349,506.4484528,1,0,532382.8207,532383.8677,5,1,75,16,0
19,350,639.8983784,0,0,532385.5383,532386.5853,5,0,81,4,4
19,351,598.8271203,1,0,532388.4324,532389.4794,5,1,79,0,0
19,352,534.7424224,1,0,532391.2794,532392.3264,5,1,69,0,16
19,353,689.0084223,1,0,532393.9851,532395.0322,5,1,71,16,8
19,354,615.374346,0,0,532396.9027,532397.9497,5,0,98,0,16
19,355,681.4966501,1,0,532399.7615,532400.8085,5,1,70,8,8
19,356,834.1254047,1,0,532402.632,532403.679,5,1,91,8,8
19,357,554.9464064,1,0,532405.5732,532406.6202,5,1,70,16,16
19,358,522.5437325,1,0,532408.3495,532409.3965,5,1,81,0,8
19,359,670.007446,1,0,532411.1259,532412.1729,5,1,81,8,4
19,360,621.4267255,0,0,532413.9847,532415.0317,5,0,91,8,0
19,361,679.1183521,0,0,532416.7258,532417.7728,5,0,100,8,4
19,362,743.2192184,1,0,532419.6198,532420.6668,5,1,70,4,16
19,363,802.1819911,0,0,532422.5727,532423.6197,5,0,62,16,0
19,364,559.8550624,1,0,532425.455,532426.5021,5,1,95,0,4
19,365,656.2346446,0,0,532428.2196,532429.2666,5,0,97,16,16
19,366,521.5632332,0,0,532430.9372,532431.9842,5,0,66,8,8
19,367,667.7850578,0,0,532433.6901,532434.7371,5,0,84,4,0
19,368,527.2479736,1,0,532436.4665,532437.5135,5,1,69,16,16
19,369,656.3120221,1,0,532439.2193,532440.2664,5,1,61,0,8
19,370,686.6763197,0,0,532442.1251,532443.1722,5,0,93,8,0
19,371,467.0818084,1,0,532444.8898,532445.9368,5,1,84,16,4
19,372,439.4907801,1,0,532447.4191,532448.4662,5,1,75,4,0
19,373,494.8818713,1,0,532450.0309,532451.0779,5,1,68,4,0
19,374,586.1776394,0,0,532452.6425,532453.6896,5,0,83,16,8
19,375,363.3794707,1,0,532455.4425,532456.4895,5,1,77,4,16
19,376,748.0651257,1,0,532457.9365,532458.9836,5,1,81,4,4
19,377,584.6870649,1,0,532460.76,532461.807,5,1,84,4,0
19,378,370.0974502,1,0,532463.4305,532464.4775,5,1,76,4,0
19,379,572.8386908,0,0,532465.9128,532466.9599,5,0,92,8,16
19,380,593.3852912,1,0,532468.5951,532469.6421,5,1,71,16,8
19,381,547.9728116,1,0,532471.3598,532472.4068,5,1,68,16,8
19,382,608.5154702,0,0,532474.1361,532475.1832,5,0,100,16,0
19,383,487.678069,0,0,532476.842,532477.889,5,0,80,0,8
19,384,507.3608138,1,0,532479.5713,532480.6183,5,1,64,4,8
19,385,679.6996455,1,0,532482.2889,532483.3359,5,1,99,16,4
19,386,558.1238864,0,0,532485.0653,532486.1123,5,0,65,8,16
19,387,510.9829253,1,0,532487.8535,532488.9005,5,1,70,8,16
19,388,465.6586023,1,0,532490.4769,532491.524,5,1,82,0,0
19,389,432.7485479,1,0,532493.0416,532494.0886,5,1,63,16,4
19,390,669.5058398,1,0,532495.665,532496.7121,5,1,81,8,0
19,391,556.7780577,0,0,532498.5826,532499.6297,5,0,93,16,8
19,392,477.5570214,1,0,532501.312,532502.359,5,1,65,4,8
19,393,459.982716,1,1,532503.8884,532504.9354,5,0,91,0,16
19,394,456.1330916,0,0,532506.4412,532507.4883,5,0,65,8,0
19,395,454.1713229,0,0,532508.9941,532510.0411,5,0,85,0,0
19,396,583.8016511,0,0,532511.6646,532512.7117,5,0,78,16,0
19,397,677.2428151,0,0,532514.441,532515.4881,5,0,98,8,8
19,398,546.8675845,0,0,532517.3704,532518.4175,5,0,84,16,4
19,399,482.1835001,0,0,532519.9821,532521.0291,5,0,78,4,8
19,400,600.1363776,1,0,532522.6761,532523.7232,5,1,90,8,4
19,401,552.5269173,1,0,532549.4284,532550.4755,6,1,68,8,0
19,402,519.7435158,1,0,532552.0754,532553.1225,6,1,99,0,0
19,403,506.9234965,0,0,532554.6871,532555.7342,6,0,99,16,8
19,404,537.678531,0,0,532557.3224,532558.3694,6,0,70,4,0
19,405,572.867178,1,0,532559.9223,532560.9694,6,1,65,8,16
19,406,485.2651245,0,0,532562.6987,532563.7457,6,0,97,8,0
19,407,566.2904795,1,0,532565.3457,532566.3927,6,1,68,16,0
19,408,835.6225236,0,0,532568.0633,532569.1103,6,0,65,8,4
19,409,1113.380241,1,0,532570.9926,532572.0397,6,1,93,0,4
19,410,571.668405,1,0,532574.2514,532575.2984,6,1,98,4,0
19,411,622.9588761,1,0,532576.9219,532577.9689,6,1,63,16,16
19,412,739.1617143,1,0,532579.616,532580.663,6,1,94,8,4
19,413,739.3322526,1,0,532582.5218,532583.5688,6,1,91,4,16
19,414,696.1625642,1,0,532585.3217,532586.3688,6,1,66,0,8
19,415,500.6155019,1,0,532588.1922,532589.2392,6,1,94,0,0
19,416,586.817832,0,0,532590.7452,532591.7921,6,0,83,8,8
19,417,499.2323318,0,0,532593.4156,532594.4627,6,0,94,8,16
19,418,492.3792303,0,0,532596.0626,532597.1096,6,0,67,16,4
19,419,584.2154858,1,0,532598.6155,532599.6625,6,1,65,0,0
19,420,475.1244438,0,0,532601.4037,532602.4507,6,0,77,8,0
19,421,442.3291084,1,0,532603.9565,532605.0036,6,1,76,0,4
19,422,511.519178,0,0,532606.5682,532607.6153,6,0,77,8,16
19,423,928.0004211,0,0,532609.2858,532610.3329,6,0,94,16,4
19,424,461.5348845,0,0,532612.3563,532613.4034,6,0,88,0,8
19,425,648.3317506,0,0,532614.9563,532616.0033,6,0,83,16,8
19,426,762.4892835,0,0,532617.8503,532618.8974,6,0,93,16,16
19,427,490.7589235,1,0,532620.7091,532621.7561,6,1,83,0,16
19,428,589.2188427,0,0,532623.3914,532624.4384,6,0,89,16,16
19,429,439.9523501,0,0,532626.0737,532627.1207,6,0,87,8,0
19,430,441.6604285,0,0,532628.7089,532629.7559,6,0,99,4,4
19,431,421.3987003,0,0,532631.3912,532632.4382,6,0,86,4,4
19,432,589.6650142,1,0,532633.9558,532635.0029,6,1,66,16,4
19,433,415.2677883,0,0,532636.7205,532637.7675,6,0,67,8,4
19,434,434.0027556,0,0,532639.3086,532640.3557,6,0,64,8,16
19,435,450.3990759,0,0,532641.9791,532643.0262,6,0,84,4,0
19,436,491.1284874,0,0,532644.5085,532645.5555,6,0,66,16,0
19,437,613.2493532,0,0,532647.1673,532648.2143,6,0,100,8,4
19,438,539.0709401,0,1,532649.9554,532651.0025,6,1,80,4,0
19,439,788.7695145,0,0,532652.7318,532653.7789,6,0,70,8,0
19,440,433.0211013,0,0,532655.7435,532656.7906,6,0,79,16,8
19,441,501.0185575,1,0,532658.2493,532659.2964,6,1,66,4,0
19,442,534.3089547,1,0,532660.9552,532662.0022,6,1,98,4,8
19,443,440.4851382,0,0,532663.5551,532664.6021,6,0,85,8,8
19,444,457.6548481,0,0,532666.0609,532667.108,6,0,79,4,16
19,445,555.432229,0,0,532668.6491,532669.6961,6,0,85,16,16
19,446,486.0439035,0,0,532671.3314,532672.3784,6,0,97,0,8
19,447,561.7687107,0,0,532674.0607,532675.1078,6,0,93,4,8
19,448,689.1000434,1,0,532676.8371,532677.8842,6,1,88,16,8
19,449,413.713695,1,0,532679.7077,532680.7547,6,1,67,4,16
19,450,516.1537409,1,0,532682.2252,532683.2723,6,1,77,16,0
19,451,780.1251829,1,0,532684.8722,532685.9193,6,1,92,16,0
19,452,742.4088725,0,0,532687.7898,532688.8368,6,0,70,8,8
19,453,759.6082245,1,0,532690.6486,532691.6956,6,1,88,16,4
19,454,567.9608316,0,0,532693.5544,532694.6014,6,0,61,0,4
19,455,536.6872527,0,0,532696.1896,532697.2366,6,0,61,0,0
19,456,722.2884254,1,0,532698.966,532700.013,6,1,82,4,16
19,457,402.6991496,0,0,532701.9307,532702.9777,6,0,67,0,16
19,458,630.2581489,1,0,532704.46,532705.507,6,1,94,16,0
19,459,417.1852863,1,0,532707.2129,532708.2599,6,1,94,0,4
19,460,553.0681745,0,0,532709.6952,532710.7422,6,0,97,0,16
19,461,828.390619,1,0,532712.4128,532713.4598,6,1,88,16,8
19,462,781.0875891,1,0,532715.448,532716.495,6,1,89,8,16
19,463,622.2209029,1,0,532718.3538,532719.4008,6,1,90,4,4
19,464,595.1799861,1,0,532721.0361,532722.0831,6,1,65,4,8
19,465,465.1300488,1,0,532723.7889,532724.836,6,1,97,0,16
19,466,447.8671779,0,0,532726.4712,532727.5183,6,0,99,4,4
19,467,527.6702774,1,0,532729.1182,532730.1653,6,1,90,16,4
19,468,584.3013324,0,0,532731.8476,532732.8947,6,0,82,0,8
19,469,493.2049749,0,0,532734.6357,532735.6828,6,0,99,8,4
19,470,497.8934325,1,0,532737.271,532738.318,6,1,65,4,8
19,471,433.0068578,0,0,532739.965,532741.0121,6,0,77,0,0
19,472,602.6959929,0,1,532742.6003,532743.6473,6,1,82,4,8
19,473,409.594212,1,0,532745.3414,532746.3884,6,1,63,0,16
19,474,490.6750016,0,0,532747.8472,532748.8942,6,0,76,0,4
19,475,456.5249834,1,0,532750.4353,532751.4824,6,1,87,8,8
19,476,631.6559475,1,0,532753.0942,532754.1412,6,1,100,8,8
19,477,482.931867,1,0,532755.9529,532756.9999,6,1,85,16,16
19,478,609.4605529,0,0,532758.6234,532759.6704,6,0,89,0,8
19,479,421.8968417,1,0,532761.388,532762.4351,6,1,99,4,4
19,480,511.2262217,1,0,532764.0586,532765.1056,6,1,89,4,16
19,481,1635.389313,1,0,532799.7754,532800.8224,7,1,71,8,16
19,482,410.1485579,1,0,532803.5635,532804.6105,7,1,76,8,4
19,483,384.3660831,1,0,532806.1281,532807.1752,7,1,64,0,16
19,484,468.7814176,1,0,532808.634,532809.681,7,1,97,0,4
19,485,481.1067601,1,1,532811.2104,532812.2574,7,0,73,0,16
19,486,601.5896108,1,0,532813.775,532814.822,7,1,98,16,0
19,487,484.2738461,1,0,532816.5043,532817.5514,7,1,75,8,4
19,488,681.4539193,1,0,532819.1161,532820.1631,7,1,92,16,0
19,489,470.4918057,1,0,532821.8572,532822.9042,7,1,68,8,8
19,490,650.0463734,0,0,532824.5865,532825.6335,7,0,71,4,8
19,491,570.7545041,1,0,532827.4806,532828.5276,7,1,71,0,0
19,492,538.0785069,1,0,532830.1393,532831.1864,7,1,82,16,4
19,493,482.7563242,0,0,532832.8216,532833.8686,7,0,93,0,8
19,494,514.821001,1,0,532835.5627,532836.6097,7,1,65,8,4
19,495,603.8759027,0,0,532838.2215,532839.2685,7,0,91,0,0
19,496,512.7125616,1,0,532840.9155,532841.9626,7,1,91,0,8
19,497,588.32496,1,0,532843.539,532844.586,7,1,97,8,8
19,498,374.9918627,1,0,532846.2213,532847.2683,7,1,77,8,8
19,499,467.8879197,1,0,532848.7153,532849.7624,7,1,80,4,0
19,500,419.5516505,0,0,532851.2917,532852.3388,7,0,86,4,4
19,501,611.326466,0,0,532853.8329,532854.8799,7,0,70,0,4
19,502,443.8381611,0,0,532856.6563,532857.7034,7,0,75,0,16
19,503,557.67656,1,0,532859.2916,532860.3386,7,1,89,0,0
19,504,522.1899521,0,0,532861.915,532862.962,7,0,85,16,8
19,505,434.8646865,1,0,532864.5973,532865.6443,7,1,94,0,0
19,506,510.1090607,1,0,532867.1502,532868.1972,7,1,67,8,4
19,507,578.1584868,0,0,532869.9031,532870.9501,7,0,96,16,4
19,508,387.5728203,1,0,532872.6677,532873.7147,7,1,88,0,8
19,509,515.814204,0,0,532875.1265,532876.1735,7,0,66,0,8
19,510,567.0049699,0,0,532877.7853,532878.8323,7,0,95,4,0
19,511,537.1984829,1,0,532880.444,532881.491,7,1,75,4,8
19,512,753.6547803,0,0,532883.2204,532884.2674,7,0,100,16,4
19,513,481.2561255,1,0,532886.0438,532887.0909,7,1,94,8,8
19,514,530.6733694,1,0,532888.7614,532889.8085,7,1,98,8,4
19,515,673.0220868,1,0,532891.4202,532892.4672,7,1,76,16,4
19,516,526.5042261,1,0,532894.2554,532895.3025,7,1,83,4,0
19,517,685.23887,1,0,532896.9848,532898.0318,7,1,61,16,8
19,518,581.6158344,0,0,532899.7494,532900.7964,7,0,63,16,16
19,519,597.673003,1,0,532902.3964,532903.4434,7,1,72,4,0
19,520,643.3384028,1,0,532905.2316,532906.2787,7,1,69,16,8
19,521,580.1733802,0,0,532908.0668,532909.1139,7,0,94,16,16
19,522,581.0903606,0,0,532910.7138,532911.7609,7,0,65,4,4
19,523,561.8676461,1,0,532913.502,532914.5491,7,1,96,16,4
19,524,453.8398703,0,0,532916.1961,532917.2431,7,0,98,16,0
19,525,760.5117314,0,0,532918.8195,532919.8666,7,0,74,4,16
19,526,435.2315557,1,0,532921.6665,532922.7136,7,1,64,16,16
19,527,445.5196769,0,0,532924.1723,532925.2194,7,0,65,4,8
19,528,699.3419691,0,0,532926.8664,532927.9134,7,0,91,16,0
19,529,541.5485584,0,0,532929.7134,532930.7604,7,0,76,0,4
19,530,479.1457615,0,0,532932.3957,532933.4427,7,0,84,4,8
19,531,483.107025,1,0,532934.9368,532935.9838,7,1,72,0,8
19,532,590.0857782,0,0,532937.5838,532938.6308,7,0,90,0,4
19,533,510.3977825,0,0,532940.2543,532941.3013,7,0,73,4,4
19,534,616.1762227,0,0,532942.8895,532943.9366,7,0,99,8,0
19,535,706.1046043,0,0,532945.7365,532946.7836,7,0,90,4,16
19,536,419.4454008,0,0,532948.5953,532949.6423,7,0,86,8,0
19,537,793.8136774,1,0,532951.207,532952.254,7,1,99,8,16
19,538,609.858604,0,0,532954.0657,532955.1128,7,0,84,16,8
19,539,688.4163501,0,0,532956.8892,532957.9362,7,0,69,8,16
19,540,582.6402195,0,0,532959.701,532960.7479,7,0,83,8,0
19,541,680.2566861,1,0,532962.3714,532963.4185,7,1,75,8,16
19,542,602.3680049,1,0,532965.1831,532966.2301,7,1,79,4,16
19,543,504.4454932,1,0,532967.9713,532969.0183,7,1,81,0,16
19,544,669.5735933,1,0,532970.7242,532971.7712,7,1,98,4,16
19,545,474.9589099,1,0,532973.5476,532974.5947,7,1,73,8,0
19,546,551.6873143,1,0,532976.1829,532977.2299,7,1,72,4,4
19,547,659.1041548,1,0,532978.7946,532979.8416,7,1,69,8,16
19,548,543.1361436,0,0,532981.6063,532982.6533,7,0,72,8,8
19,549,587.359474,1,0,532984.3121,532985.3591,7,1,61,16,0
19,550,488.1334796,1,1,532987.1002,532988.1473,7,0,100,0,4
19,551,559.2341181,0,0,532989.8413,532990.8884,7,0,74,4,16
19,552,429.0001687,0,0,532992.4766,532993.5236,7,0,86,8,0
19,553,414.6487687,0,0,532995.0177,532996.0647,7,0,75,16,16
19,554,593.6666988,1,0,532997.6059,532998.6529,7,1,89,16,8
19,555,857.4695272,0,0,533000.2999,533001.3469,7,0,65,0,16
19,556,401.3841178,0,0,533003.2881,533004.3351,7,0,64,4,8
19,557,588.4023374,0,0,533005.7821,533006.8292,7,0,92,4,0
19,558,599.158188,0,0,533008.6291,533009.6762,7,0,91,4,4
19,559,470.4309816,0,0,533011.382,533012.429,7,0,96,16,16
19,560,538.6409371,0,0,533014.0996,533015.1466,7,0,81,0,0
19,561,1741.515375,0,0,533049.8987,533050.9457,8,0,70,16,8
19,562,588.6394742,0,0,533053.8516,533054.8986,8,0,79,8,16
19,563,430.4387732,1,0,533056.6986,533057.7456,8,1,65,4,0
19,564,491.4368424,1,0,533059.2397,533060.2867,8,1,84,4,0
19,565,561.2913574,0,0,533061.8867,533062.9337,8,0,96,16,4
19,566,412.9199025,1,0,533064.5102,533065.5572,8,1,74,4,4
19,567,561.3856731,0,0,533067.0748,533068.1218,8,0,89,4,16
19,568,426.0398075,0,0,533069.7571,533070.8041,8,0,80,16,16
19,569,470.4198177,1,0,533072.3335,533073.3805,8,1,98,0,8
19,570,716.584052,1,0,533075.0393,533076.0863,8,1,83,16,16
19,571,556.7110741,1,0,533077.9333,533078.9804,8,1,66,0,16
19,572,487.5937622,1,0,533080.5803,533081.6274,8,1,73,4,8
19,573,455.7743066,0,0,533083.1803,533084.2273,8,0,77,4,0
19,574,635.7788953,0,0,533085.792,533086.8391,8,0,94,16,8
19,575,574.3077074,0,0,533088.6507,533089.6977,8,0,61,8,16
19,576,657.9638959,1,0,533091.4389,533092.4859,8,1,74,16,0
19,577,539.6995838,0,0,533094.2271,533095.2741,8,0,68,4,0
19,578,451.7021738,1,0,533097.027,533098.074,8,1,69,8,0
19,579,455.0806042,0,0,533099.5916,533100.6387,8,0,76,0,16
19,580,622.9992971,1,0,533102.2269,533103.274,8,1,92,16,8
19,581,680.16468,1,0,533104.9327,533105.9797,8,1,61,16,0
19,582,618.1337568,0,0,533107.8385,533108.8855,8,0,92,16,8
19,583,748.9736371,1,0,533110.6267,533111.6737,8,1,90,8,16
19,584,793.9588083,0,0,533113.4737,533114.5207,8,0,98,8,0
19,585,490.79511,1,0,533116.403,533117.45,8,1,83,0,4
19,586,400.9156185,1,0,533119.0618,533120.1088,8,1,83,4,16
19,587,441.931827,1,0,533121.7087,533122.7558,8,1,92,0,16
19,588,500.5554478,0,0,533124.391,533125.4381,8,0,94,0,0
19,589,518.007335,1,0,533127.1087,533128.1556,8,1,98,0,16
19,590,380.1295714,1,0,533129.7086,533130.7556,8,1,95,0,4
19,591,620.3780877,1,0,533132.2732,533133.3202,8,1,89,0,4
19,592,425.0007939,0,0,533135.0025,533136.0496,8,0,76,4,8
19,593,570.6798213,0,0,533137.5789,533138.626,8,0,95,4,8
19,594,355.3880352,1,0,533140.3554,533141.4024,8,1,86,4,4
19,595,648.7194079,1,0,533142.8729,533143.92,8,1,81,0,0
19,596,661.20297,1,0,533145.6023,533146.6493,8,1,81,16,4
19,597,643.4038464,0,0,533148.414,533149.461,8,0,61,4,0
19,598,471.3306389,0,0,533151.1551,533152.2021,8,0,87,16,16
19,599,1772.183023,0,0,533153.8844,533154.9315,8,0,99,4,8
19,600,690.6013968,0,0,533157.8608,533158.9078,8,0,69,8,4
19,601,401.2924968,1,0,533160.7902,533161.8372,8,1,66,0,4
19,602,924.1369382,0,0,533163.3783,533164.4254,8,0,91,16,4
19,603,584.3536874,0,0,533166.543,533167.59,8,0,93,16,4
19,604,499.6557905,0,0,533169.2958,533170.3429,8,0,71,16,0
19,605,630.5961459,0,0,533171.8958,533172.9428,8,0,100,8,4
19,606,580.7997141,1,0,533174.6604,533175.7074,8,1,96,0,8
19,607,485.6042764,1,0,533177.4956,533178.5427,8,1,85,8,0
19,608,596.8172314,0,0,533180.2015,533181.2485,8,0,61,0,0
19,609,613.5384601,0,0,533182.9308,533183.9778,8,0,99,8,8
19,610,457.7102826,0,0,533185.6837,533186.7307,8,0,95,8,4
19,611,389.7532475,0,0,533188.3424,533189.3895,8,0,96,0,0
19,612,519.4417052,0,1,533190.9188,533191.9659,8,1,89,4,4
19,613,554.1972695,1,0,533193.6011,533194.6482,8,1,90,0,0
19,614,609.3288957,1,0,533196.3658,533197.4128,8,1,73,8,8
19,615,547.7984237,1,0,533199.0245,533200.0716,8,1,80,0,8
19,616,633.9526335,1,0,533201.7892,533202.8362,8,1,97,8,8
19,617,405.0158536,1,0,533204.5303,533205.5773,8,1,87,4,16
19,618,420.2773047,1,0,533207.142,533208.189,8,1,97,16,4
19,619,595.5768825,1,0,533209.7537,533210.8007,8,1,74,16,0
19,620,725.8427837,1,0,533212.4124,533213.4595,8,1,71,8,16
19,621,708.5914618,0,0,533215.2124,533216.2594,8,0,88,4,16
19,622,534.3208885,0,0,533218.0946,533219.1417,8,0,83,4,4
19,623,626.2148884,0,0,533220.7299,533221.7769,8,0,64,4,8
19,624,587.8237388,1,0,533223.4123,533224.4592,8,1,100,0,4
19,625,670.6526431,0,0,533226.2474,533227.2944,8,0,97,8,0
19,626,781.2766056,0,0,533229.1767,533230.2238,8,0,91,16,16
19,627,473.7524376,0,0,533232.2002,533233.2473,8,0,64,16,0
19,628,438.6226899,1,0,533234.8825,533235.9295,8,1,63,0,16
19,629,393.5439728,1,0,533237.4824,533238.5294,8,1,63,0,8
19,630,436.0130294,0,0,533240.0471,533241.0941,8,0,77,4,16
19,631,562.8373665,1,0,533242.6352,533243.6823,8,1,98,4,4
19,632,613.8545143,0,0,533245.3881,533246.4352,8,0,62,8,0
19,633,538.364919,0,0,533248.2116,533249.2586,8,0,84,16,16
19,634,542.5806427,1,0,533250.9174,533251.9644,8,1,87,8,4
19,635,598.358621,0,0,533253.5997,533254.6467,8,0,92,8,16
19,636,583.2465354,1,0,533256.3996,533257.4466,8,1,79,8,8
19,637,425.0596931,1,0,533259.0819,533260.1289,8,1,96,0,8
19,638,577.1402612,0,0,533261.7407,533262.7877,8,0,70,8,8
19,639,507.5652289,0,0,533264.4582,533265.5053,8,0,75,16,8
19,640,479.6573765,0,0,533267.2111,533268.2581,8,0,69,8,4
19,641,503.9442721,0,0,533300.5868,533301.6338,9,0,68,8,0
19,642,701.2998881,0,0,533303.2102,533304.2573,9,0,82,16,0
19,643,459.3009475,0,0,533306.0572,533307.1043,9,0,94,16,0
19,644,492.2741357,0,0,533308.6454,533309.6924,9,0,82,4,0
19,645,425.8511758,1,0,533311.2336,533312.2806,9,1,65,16,16
19,646,364.5555309,0,0,533313.7629,533314.81,9,0,64,4,0
19,647,573.5828232,0,0,533316.2099,533317.257,9,0,79,8,4
19,648,446.4632199,1,0,533318.8569,533319.9039,9,1,96,4,16
19,649,398.0561175,0,0,533321.3745,533322.4215,9,0,65,4,8
19,650,355.513148,0,0,533323.998,533325.045,9,0,64,0,0
19,651,391.6060718,0,0,533326.4097,533327.4567,9,0,66,16,8
19,652,630.2450602,1,0,533328.9743,533330.0214,9,1,62,8,16
19,653,558.3598684,0,0,533331.6801,533332.7272,9,0,83,8,16
19,654,494.1073267,0,0,533334.4683,533335.5153,9,0,85,8,16
19,655,462.5700486,0,0,533337.0329,533338.08,9,0,95,16,4
19,656,543.6862549,0,1,533339.5976,533340.6447,9,1,98,16,8
19,657,635.2018366,0,0,533342.221,533343.2681,9,0,88,4,4
19,658,665.3555599,1,0,533345.021,533346.068,9,1,93,4,4
19,659,464.1618683,1,0,533347.7621,533348.8091,9,1,87,8,8
19,660,631.2117008,0,0,533350.3973,533351.4444,9,0,61,16,4
19,661,523.5919853,0,0,533353.1267,533354.1737,9,0,86,8,4
19,662,428.596343,0,0,533355.8207,533356.8678,9,0,64,0,8
19,663,574.362757,1,0,533358.4089,533359.4559,9,1,69,8,0
19,664,418.2743451,1,0,533361.1971,533362.2441,9,1,75,4,0
19,665,395.1323278,0,1,533363.7499,533364.797,9,1,93,8,16
19,666,696.8297042,0,1,533366.2793,533367.3264,9,1,92,4,8
19,667,635.6637914,0,0,533369.2204,533370.2674,9,0,67,8,8
19,668,495.3665389,0,0,533372.1027,533373.1497,9,0,84,0,16
19,669,487.9132811,1,0,533374.8203,533375.8673,9,1,66,16,16
19,670,831.9734646,1,0,533377.479,533378.5261,9,1,100,16,16
19,671,577.2907813,0,0,533380.4319,533381.4789,9,0,88,8,4
19,672,525.1483883,1,0,533383.0789,533384.1259,9,1,74,16,16
19,673,625.7271409,1,0,533385.7494,533386.7964,9,1,69,4,4
19,674,499.6931319,1,0,533388.4435,533389.4905,9,1,61,0,4
19,675,467.4432881,1,0,533391.1258,533392.1728,9,1,77,0,16
19,676,438.3343529,1,0,533393.7257,533394.7727,9,1,65,16,4
19,677,576.4731212,0,0,533396.2315,533397.2785,9,0,100,16,8
19,678,501.1640734,1,0,533398.9138,533399.9608,9,1,81,0,8
19,679,506.0831235,1,0,533401.5608,533402.6078,9,1,95,4,8
19,680,516.7123216,1,0,533404.2784,533405.3254,9,1,79,16,0
19,681,381.9839356,1,0,533406.996,533408.043,9,1,65,0,4
19,682,536.9309339,1,0,533409.5841,533410.6312,9,1,84,16,0
19,683,740.4028331,0,0,533412.2664,533413.3134,9,0,71,8,4
19,684,567.2736737,0,0,533415.1017,533416.1487,9,0,90,0,0
19,685,377.4202059,0,0,533417.9016,533418.9486,9,0,65,4,16
19,686,445.1239356,1,0,533420.3956,533421.4427,9,1,68,0,4
19,687,455.3477681,0,0,533422.9485,533423.9956,9,0,89,8,8
19,688,407.8765095,1,0,533425.5249,533426.572,9,1,74,0,8
19,689,500.0068762,0,0,533428.019,533429.066,9,0,73,4,0
19,690,601.3482393,0,0,533430.5954,533431.6424,9,0,65,0,0
19,691,638.6972956,0,0,533433.313,533434.36,9,0,100,16,4
19,692,455.513687,1,0,533436.0894,533437.1364,9,1,89,0,16
19,693,552.3679279,0,0,533438.6776,533439.7246,9,0,62,16,16
19,694,457.9974647,1,0,533441.4069,533442.4539,9,1,85,8,0
19,695,494.8749419,1,0,533443.948,533444.995,9,1,87,8,16
19,696,546.8129198,1,0,533446.6068,533447.6539,9,1,84,16,0
19,697,571.4139448,0,0,533449.3714,533450.4184,9,0,62,4,0
19,698,678.2194648,1,0,533452.1596,533453.2066,9,1,100,4,8
19,699,558.4230021,0,0,533455.0654,533456.1124,9,0,63,4,16
19,700,508.3112861,0,0,533457.8183,533458.8653,9,0,98,0,0
19,701,564.2721215,0,0,533460.5123,533461.5593,9,0,80,4,4
19,702,543.0676203,1,0,533463.1473,533464.1946,9,1,80,8,0
19,703,551.4736602,1,0,533465.8181,533466.8651,9,1,70,16,8
19,704,427.0541834,0,0,533468.4415,533469.4886,9,0,95,0,16
19,705,487.0078494,1,0,533471.0885,533472.1356,9,1,61,0,4
19,706,429.0848604,1,0,533473.7826,533474.8296,9,1,94,8,4
19,707,567.5858782,1,0,533476.4649,533477.5119,9,1,69,4,4
19,708,442.5550812,0,0,533479.1119,533480.1589,9,0,68,16,4
19,709,555.0545808,0,0,533481.6765,533482.7235,9,0,91,0,8
19,710,734.6049139,1,0,533484.4058,533485.4529,9,1,71,16,8
19,711,616.6905325,0,1,533487.3117,533488.3587,9,1,100,4,8
19,712,522.8251402,1,0,533490.1587,533491.2057,9,1,99,0,4
19,713,472.2953548,0,0,533492.888,533493.935,9,0,66,4,16
19,714,505.442161,0,0,533495.4291,533496.4761,9,0,97,8,8
19,715,475.5563716,1,0,533498.1349,533499.182,9,1,62,0,0
19,716,471.47192,0,0,533500.7819,533501.829,9,0,78,8,0
19,717,424.8853051,1,0,533503.4996,533504.5465,9,1,74,8,8
19,718,553.3226348,0,0,533506.0171,533507.0641,9,0,92,0,16
19,719,467.844034,1,0,533508.6406,533509.6876,9,1,96,4,16
19,720,532.5342779,0,0,533511.2758,533512.3228,9,0,90,0,8
21,1,527.3626345,1,0,534289.5743,534290.6214,1,1,97,8,0
21,2,647.9367213,1,0,534292.1978,534293.2449,1,1,83,16,0
21,3,510.8600645,0,0,534294.9036,534295.9507,1,0,72,0,8
21,4,541.267863,0,0,534297.5153,534298.5624,1,0,77,4,0
21,5,593.7855942,1,0,534300.2447,534301.2917,1,1,61,16,16
21,6,581.6958487,1,0,534302.9387,534303.9858,1,1,96,0,4
21,7,746.9375128,0,0,534305.6445,534306.6916,1,0,87,4,8
21,8,790.68349,1,0,534308.5268,534309.5738,1,1,82,16,16
21,9,699.693382,0,0,534311.4679,534312.515,1,0,98,0,0
21,10,680.3120628,0,0,534314.2443,534315.2914,1,0,90,4,8
21,11,585.4500026,0,0,534317.1501,534318.1972,1,0,78,8,16
21,12,873.3083641,1,0,534319.8912,534320.9383,1,1,79,8,8
21,13,656.8955673,1,0,534323.0206,534324.0676,1,1,92,16,16
21,14,795.1375054,0,0,534325.8793,534326.9264,1,0,61,16,4
21,15,655.8815762,0,0,534328.7617,534329.8087,1,0,80,16,0
21,16,736.9238697,1,0,534331.5145,534332.5615,1,1,100,0,4
21,17,565.1289901,1,0,534334.3262,534335.3732,1,1,85,16,0
21,18,618.2615064,0,0,534337.079,534338.1261,1,0,72,8,8
21,19,577.8442996,1,0,534339.9496,534340.9966,1,1,98,0,8
21,20,380.7250506,0,0,534342.5966,534343.6436,1,0,92,0,8
21,21,492.097765,0,0,534345.2083,534346.2553,1,0,93,0,0
21,22,442.220876,1,0,534347.82,534348.867,1,1,83,0,16
21,23,572.2665787,1,0,534350.4081,534351.4552,1,1,86,8,8
21,24,514.9364319,1,0,534353.0904,534354.1375,1,1,73,4,16
21,25,524.6755967,0,0,534355.8315,534356.8786,1,0,86,4,0
21,26,608.6763266,0,0,534358.4315,534359.4785,1,0,67,16,16
21,27,443.1340069,0,0,534361.0902,534362.1373,1,0,71,0,8
21,28,750.759035,1,0,534363.6784,534364.7254,1,1,92,16,4
21,29,623.8226739,0,0,534366.6785,534367.7254,1,0,91,4,16
21,30,598.3755016,1,0,534369.4547,534370.5017,1,1,66,4,4
21,31,506.4822716,1,0,534372.2076,534373.2546,1,1,92,8,16
21,32,751.7483884,0,0,534374.7722,534375.8193,1,0,66,16,4
21,33,711.1379305,1,0,534377.678,534378.7251,1,1,82,16,4
21,34,488.8729346,0,0,534380.6192,534381.6662,1,0,84,8,4
21,35,515.8453282,1,0,534383.2191,534384.2661,1,1,76,4,0
21,36,471.4968847,1,0,534385.9484,534386.9955,1,1,75,16,8
21,37,561.522277,0,0,534388.6425,534389.6895,1,0,64,8,0
21,38,683.559606,0,0,534391.3365,534392.3836,1,0,73,0,0
21,39,662.2796521,1,0,534394.2188,534395.2658,1,1,67,8,0
21,40,728.4893426,1,0,534397.0305,534398.0775,1,1,73,8,4
21,41,403.7966196,1,0,534399.8422,534400.8892,1,1,63,0,8
21,42,602.7040193,0,0,534402.3363,534403.3833,1,0,74,0,16
21,43,744.1230523,1,0,534405.1009,534406.1479,1,1,100,4,8
21,44,425.6301495,0,0,534407.9243,534408.9714,1,0,84,4,16
21,45,691.3004308,1,0,534410.5008,534411.5478,1,1,77,8,0
21,46,647.1879694,0,0,534413.3948,534414.4418,1,0,84,16,0
21,47,545.2676228,0,0,534416.1477,534417.1947,1,0,77,16,0
21,48,587.5126313,0,0,534418.8653,534419.9123,1,0,86,8,4
21,49,509.030338,1,0,534421.5358,534422.5828,1,1,93,0,16
21,50,555.2547034,0,0,534424.1945,534425.2416,1,0,71,8,8
21,51,825.2712106,1,0,534426.8886,534427.9356,1,1,89,16,16
21,52,434.5836061,0,0,534429.8062,534430.8532,1,0,86,4,0
21,53,745.0296389,0,0,534432.3238,534433.3708,1,0,94,4,8
21,54,678.2224867,1,0,534435.1825,534436.2295,1,1,80,0,0
21,55,716.8777204,1,0,534438.0177,534439.0648,1,1,88,8,8
21,56,731.4385399,0,0,534440.9824,534442.0294,1,0,86,8,4
21,57,692.8183377,0,0,534443.8999,534444.947,1,0,89,8,16
21,58,696.8073185,1,0,534446.7469,534447.794,1,1,97,16,8
21,59,515.1735686,1,0,534449.6645,534450.7115,1,1,80,16,4
21,60,537.9687347,0,0,534452.3585,534453.4056,1,0,69,4,4
21,61,636.7724255,0,0,534455.135,534456.182,1,0,75,16,8
21,62,597.1940518,1,0,534457.8643,534458.9113,1,1,63,8,16
21,63,523.1665439,0,0,534460.5466,534461.5936,1,0,74,4,16
21,64,656.149895,0,0,534463.1936,534464.2406,1,0,80,4,4
21,65,777.8861835,1,0,534466.0406,534467.0876,1,1,84,4,8
21,66,791.575063,0,0,534469.017,534470.064,1,0,95,16,8
21,67,449.2460556,1,0,534471.9934,534473.0404,1,1,96,4,4
21,68,522.5032537,1,0,534474.5109,534475.558,1,1,66,0,0
21,69,699.6271685,0,0,534477.1109,534478.1579,1,0,83,16,8
21,70,579.9862306,0,0,534479.9814,534481.0284,1,0,64,0,16
21,71,527.8072662,0,0,534482.7697,534483.8166,1,0,74,8,4
21,72,657.821017,0,0,534485.5107,534486.5577,1,0,89,4,4
21,73,527.4153744,1,0,534488.24,534489.287,1,1,64,8,0
21,74,674.4410006,1,0,534490.84,534491.887,1,1,97,4,16
21,75,595.940229,1,0,534493.7575,534494.8046,1,1,70,4,0
21,76,453.5526305,0,0,534496.5339,534497.581,1,0,85,0,4
21,77,509.7217306,1,0,534499.0868,534500.1338,1,1,84,0,4
21,78,430.6300419,1,0,534501.8397,534502.8867,1,1,80,0,4
21,79,441.2969662,0,0,534504.5221,534505.569,1,0,83,0,16
21,80,512.1246661,1,0,534507.0631,534508.1101,1,1,63,8,16
21,81,631.9295981,0,0,534528.2744,534529.3214,2,0,87,8,8
21,82,531.0967702,1,0,534531.0272,534532.0742,2,1,73,0,4
21,83,462.300517,0,0,534533.6389,534534.6859,2,0,63,4,16
21,84,636.5460677,0,0,534536.2035,534537.2506,2,0,80,8,0
21,85,556.4684899,0,0,534539.0505,534540.0976,2,0,96,0,4
21,86,586.7958312,0,0,534541.8034,534542.8504,2,0,94,16,4
21,87,466.6263399,1,0,534544.4975,534545.5445,2,1,74,8,16
21,88,596.7994652,1,0,534547.1092,534548.1562,2,1,81,0,8
21,89,722.3503465,0,0,534549.8738,534550.9208,2,0,80,8,0
21,90,1000.437591,1,0,534552.6855,534553.7325,2,1,70,8,8
21,91,648.2215935,1,0,534555.8619,534556.9089,2,1,73,8,16
21,92,752.0278712,1,0,534558.603,534559.65,2,1,70,4,8
21,93,743.573326,0,0,534561.5323,534562.5794,2,0,62,16,16
21,94,564.4664697,1,0,534564.4264,534565.4734,2,1,84,4,4
21,95,574.8181097,0,0,534567.191,534568.238,2,0,89,8,4
21,96,483.8268469,0,0,534569.9792,534571.0262,2,0,65,4,8
21,97,488.5260834,0,0,534572.5203,534573.5673,2,0,85,4,4
21,98,488.5461015,0,0,534575.0614,534576.1084,2,0,72,8,4
21,99,744.7251336,0,0,534577.6143,534578.6613,2,0,100,0,16
21,100,592.95831,0,0,534580.4848,534581.5318,2,0,82,16,4
21,101,592.6969205,0,0,534583.1671,534584.2142,2,0,77,16,16
21,102,552.6304144,0,0,534585.8494,534586.8964,2,0,72,16,0
21,103,521.105455,0,0,534588.5787,534589.6258,2,0,91,4,0
21,104,484.4943718,0,0,534591.3434,534592.3904,2,0,77,8,0
21,105,640.786044,1,0,534594.0021,534595.0491,2,1,80,16,4
21,106,456.4644863,1,0,534596.8844,534597.9314,2,1,86,16,0
21,107,599.6605062,1,0,534599.5432,534600.5902,2,1,98,4,8
21,108,483.097728,0,0,534602.3078,534603.3548,2,0,75,0,16
21,109,445.9149755,1,0,534604.9077,534605.9548,2,1,100,0,4
21,110,647.1995183,1,0,534607.4724,534608.5194,2,1,88,8,0
21,111,405.7287461,1,0,534610.3429,534611.39,2,1,90,4,8
21,112,645.8960355,1,0,534612.9429,534613.9899,2,1,85,4,0
21,113,494.6943367,1,0,534615.6839,534616.731,2,1,74,4,0
21,114,586.4231876,0,0,534618.3192,534619.3662,2,0,95,4,16
21,115,530.3241507,0,0,534621.0015,534622.0485,2,0,96,0,0
21,116,461.9990913,0,0,534623.6955,534624.7425,2,0,76,0,8
21,117,660.7779135,0,0,534626.3308,534627.3778,2,0,82,16,16
21,118,620.060051,1,0,534629.1895,534630.2365,2,1,66,16,8
21,119,598.8097391,1,0,534631.9188,534632.9659,2,1,92,0,4
21,120,560.7731401,0,0,534634.6247,534635.6717,2,0,92,0,0
21,121,524.8022494,1,0,534637.3187,534638.3657,2,1,83,16,8
21,122,719.219062,0,0,534640.0363,534641.0833,2,0,79,8,4
21,123,761.2773638,1,0,534642.9421,534643.9891,2,1,88,4,4
21,124,713.3826464,1,0,534645.942,534646.989,2,1,66,8,8
21,125,552.562661,1,0,534648.8361,534649.8831,2,1,72,16,0
21,126,746.7242436,0,0,534651.5066,534652.5538,2,0,90,16,4
21,127,512.9015205,1,0,534654.4124,534655.4594,2,1,64,8,16
21,128,755.5063918,0,0,534656.9888,534658.0358,2,0,99,16,8
21,129,487.3380894,1,0,534659.824,534660.8711,2,1,76,8,4
21,130,423.4466426,1,0,534662.5181,534663.5651,2,1,63,0,0
21,131,716.0850827,0,0,534665.1533,534666.2003,2,0,79,16,16
21,132,519.3157645,1,0,534667.965,534669.012,2,1,95,0,8
21,133,483.5712318,0,0,534670.5767,534671.6237,2,0,85,4,16
21,134,502.3435404,0,0,534673.306,534674.3531,2,0,79,0,16
21,135,469.5570591,1,0,534676.0236,534677.0707,2,1,65,8,16
21,136,489.1235452,1,0,534678.6941,534679.7412,2,1,85,4,4
21,137,443.173658,0,0,534681.3882,534682.4352,2,0,75,16,0
21,138,736.5038757,1,0,534683.9058,534684.9528,2,1,61,0,16
21,139,671.7270154,1,0,534686.8704,534687.9175,2,1,98,16,8
21,140,602.0234056,0,0,534689.6351,534690.6821,2,0,93,16,16
21,141,431.5258494,0,0,534692.4468,534693.4938,2,0,64,0,8
21,142,449.2787773,0,0,534695.129,534696.1761,2,0,63,0,8
21,143,663.2505272,0,0,534697.6819,534698.7289,2,0,94,16,0
21,144,576.9411776,0,0,534700.5642,534701.6112,2,0,95,4,0
21,145,411.7095227,0,0,534703.1994,534704.2465,2,0,71,0,4
21,146,462.2839637,1,0,534705.6817,534706.7287,2,1,75,0,16
21,147,587.5884689,1,0,534708.3405,534709.3875,2,1,70,16,4
21,148,559.0381143,1,1,534711.1522,534712.1992,2,0,99,16,8
21,149,781.1683732,1,0,534713.9168,534714.9638,2,1,91,4,0
21,150,509.7667711,1,0,534716.8814,534717.9285,2,1,64,0,0
21,151,566.4748187,1,0,534719.5167,534720.5637,2,1,82,4,16
21,152,741.8906551,0,0,534722.246,534723.2931,2,0,96,4,4
21,153,523.9761199,1,0,534725.1871,534726.2342,2,1,94,8,16
21,154,524.1035426,0,0,534727.8929,534728.94,2,0,97,0,0
21,155,916.7517606,1,0,534730.5752,534731.6223,2,1,61,8,0
21,156,634.6997877,1,0,534733.5751,534734.6222,2,1,88,8,8
21,157,512.9311625,1,0,534736.3751,534737.4221,2,1,64,8,4
21,158,529.5011009,1,0,534739.0574,534740.1044,2,1,83,4,16
21,159,520.6369556,1,0,534741.8102,534742.8573,2,1,92,8,8
21,160,863.643112,0,0,534744.5514,534745.5984,2,0,71,4,8
21,161,506.5754326,0,0,534767.1273,534768.1743,3,0,86,0,8
21,162,631.3779468,0,0,534769.7154,534770.7625,3,0,77,8,0
21,163,523.3443966,1,0,534772.5624,534773.6095,3,1,93,0,0
21,164,615.0162731,1,0,534775.3389,534776.3859,3,1,98,16,0
21,165,471.6239223,1,0,534778.0799,534779.127,3,1,77,16,16
21,166,446.8985546,0,0,534780.7387,534781.7857,3,0,73,8,4
21,167,464.2815337,1,0,534783.3975,534784.4445,3,1,79,4,16
21,168,780.2883491,1,0,534786.1033,534787.1503,3,1,93,16,8
21,169,531.2188034,1,0,534788.9856,534790.0326,3,1,91,0,16
21,170,549.6099992,0,0,534791.6561,534792.7031,3,0,62,16,16
21,171,735.4117372,0,0,534794.2913,534795.3383,3,0,90,0,16
21,172,674.2350457,0,0,534797.1854,534798.2324,3,0,89,16,4
21,173,613.2369767,0,0,534799.9853,534801.0323,3,0,98,0,8
21,174,512.4203173,1,0,534802.7382,534803.7852,3,1,98,4,0
21,175,622.070325,0,0,534805.3263,534806.3734,3,0,96,8,16
21,176,555.1438342,0,0,534808.0674,534809.1145,3,0,78,8,4
21,177,630.7015679,1,0,534810.7968,534811.8438,3,1,75,16,0
21,178,432.790836,0,0,534813.5497,534814.5968,3,0,64,4,8
21,179,535.9938774,1,0,534816.1496,534817.1966,3,1,76,0,8
21,180,568.6113603,0,0,534818.8437,534819.8907,3,0,63,16,8
21,181,703.2254124,0,0,534821.6671,534822.7141,3,0,69,8,8
21,182,605.4283985,1,0,534824.62,534825.667,3,1,93,4,0
21,183,726.3235439,0,0,534827.4081,534828.4552,3,0,96,4,4
21,184,625.6135191,1,0,534830.2787,534831.3257,3,1,100,0,4
21,185,591.4400182,1,0,534833.008,534834.055,3,1,90,0,0
21,186,659.1556818,1,0,534835.7021,534836.7491,3,1,89,4,16
21,187,721.0106773,0,0,534838.5373,534839.5843,3,0,71,0,8
21,188,493.542914,1,0,534841.3607,534842.4078,3,1,86,4,4
21,189,511.9387293,0,0,534843.9725,534845.0195,3,0,87,16,16
21,190,460.4765649,0,0,534846.5488,534847.5959,3,0,94,0,16
21,191,448.6189517,0,0,534849.2076,534850.2546,3,0,95,4,8
21,192,474.3363678,0,0,534851.784,534852.831,3,0,73,16,8
21,193,581.5549525,0,0,534854.3487,534855.3957,3,0,90,4,8
21,194,636.2203894,1,0,534857.1721,534858.2191,3,1,69,0,16
21,195,651.3840599,0,0,534859.8779,534860.925,3,0,91,0,4
21,196,531.5152245,0,0,534862.5955,534863.6425,3,0,99,0,0
21,197,568.4011708,1,0,534865.2778,534866.3248,3,1,96,8,8
21,198,546.5872741,0,0,534868.0895,534869.1365,3,0,77,16,4
21,199,648.4467966,1,0,534870.7835,534871.8306,3,1,95,16,0
21,200,602.6043139,1,0,534873.6423,534874.6894,3,1,100,4,8
21,201,630.0448218,0,0,534876.454,534877.501,3,0,82,4,16
21,202,766.5986997,0,0,534879.1716,534880.2186,3,0,69,16,4
21,203,586.6168237,1,0,534882.1244,534883.1715,3,1,61,8,16
21,204,549.7324172,0,0,534884.8773,534885.9243,3,0,80,0,4
21,205,568.819625,1,0,534887.5243,534888.5713,3,1,88,8,4
21,206,751.4331043,0,0,534890.2654,534891.3125,3,0,98,8,4
21,207,517.4009614,1,0,534893.2536,534894.3006,3,1,84,4,16
21,208,544.8241461,0,0,534896.0182,534897.0653,3,0,86,16,0
21,209,912.9849032,1,0,534898.6299,534899.677,3,1,96,16,8
21,210,704.2093765,1,0,534901.6299,534902.6769,3,1,80,4,4
21,211,684.6309564,1,0,534904.5474,534905.5944,3,1,93,16,16
21,212,762.9396316,1,0,534907.3238,534908.3709,3,1,77,8,0
21,213,653.5001986,0,0,534910.2414,534911.2884,3,0,69,16,4
21,214,743.2041471,0,0,534913.0766,534914.1237,3,0,91,4,4
21,215,805.8945111,1,0,534916.006,534917.053,3,1,65,8,16
21,216,981.7626784,0,0,534918.9471,534919.9941,3,0,73,4,0
21,217,887.1931895,0,0,534922.0176,534923.0646,3,0,82,0,0
21,218,905.3091371,0,0,534925.0175,534926.0645,3,0,88,8,0
21,219,700.5503083,1,0,534927.9821,534929.0292,3,1,80,0,8
21,220,741.2227454,1,0,534930.8644,534931.9115,3,1,78,8,0
21,221,483.2274603,1,0,534933.8526,534934.8996,3,1,86,8,4
21,222,587.4009922,1,0,534936.4172,534937.4643,3,1,64,8,8
21,223,536.4092519,1,0,534939.1113,534940.1583,3,1,82,8,8
21,224,751.3703554,1,0,534941.7112,534942.7583,3,1,81,8,8
21,225,829.5670064,1,0,534944.57,534945.617,3,1,77,8,16
21,226,751.6278953,0,0,534947.5228,534948.5699,3,0,79,0,4
21,227,460.6859845,0,0,534950.511,534951.558,3,0,83,8,16
21,228,589.6734254,1,0,534953.2168,534954.2639,3,1,77,16,0
21,229,626.9936096,0,0,534955.8756,534956.9226,3,0,81,0,4
21,230,675.8576623,0,0,534958.5696,534959.6167,3,0,68,4,0
21,231,966.6644513,1,0,534961.4519,534962.4989,3,1,76,4,0
21,232,1244.426788,1,0,534964.5342,534965.5812,3,1,68,8,0
21,233,733.600489,1,0,534967.887,534968.9341,3,1,65,4,8
21,234,834.4498702,0,0,534970.7811,534971.8281,3,0,90,16,16
21,235,667.9986542,0,0,534973.8517,534974.8987,3,0,71,4,16
21,236,745.7233414,1,0,534976.6398,534977.6868,3,1,78,4,4
21,237,622.1619459,0,0,534979.6162,534980.6632,3,0,74,0,16
21,238,541.8799532,1,0,534982.4985,534983.5455,3,1,79,16,4
21,239,586.2056838,0,0,534985.0984,534986.1454,3,0,85,16,8
21,240,561.7301567,1,0,534987.8396,534988.8866,3,1,63,0,0
21,241,836.2647579,0,0,535001.6274,535002.6742,4,0,80,8,16
21,242,558.9203158,0,0,535004.5685,535005.6155,4,0,67,0,8
21,243,531.0193928,1,0,535007.1802,535008.2272,4,1,62,0,16
21,244,460.8018582,0,0,535009.9095,535010.9566,4,0,73,0,8
21,245,568.8119257,1,0,535012.6154,535013.6624,4,1,87,0,8
21,246,580.8997464,1,0,535015.3682,535016.4153,4,1,93,4,16
21,247,548.0193342,1,0,535018.1093,535019.1564,4,1,64,0,16
21,248,537.8898175,0,0,535020.8505,535021.8975,4,0,75,16,4
21,249,635.6910659,0,0,535023.4504,535024.4975,4,0,89,0,4
21,250,639.4444498,0,0,535026.2268,535027.2738,4,0,71,0,0
21,251,556.3549261,0,0,535028.9797,535030.0267,4,0,83,8,8
21,252,704.0307538,1,0,535031.7561,535032.8031,4,1,96,16,16
21,253,701.7290633,1,0,535034.6854,535035.7324,4,1,80,0,4
21,254,589.9209563,0,0,535037.6383,535038.6853,4,0,90,0,4
21,255,581.8009436,1,0,535040.4383,535041.4853,4,1,63,4,16
21,256,663.8037184,0,0,535043.0734,535044.1205,4,0,96,16,0
21,257,454.603193,1,0,535045.8146,535046.8616,4,1,84,4,0
21,258,499.7177116,1,0,535048.4263,535049.4733,4,1,95,0,4
21,259,744.1673231,0,0,535051.0497,535052.0968,4,0,61,16,4
21,260,741.6211815,1,0,535053.8614,535054.9084,4,1,67,8,0
21,261,805.3024387,0,0,535056.6966,535057.7437,4,0,86,16,4
21,262,659.8409149,0,0,535059.6613,535060.7083,4,0,68,4,16
21,263,665.9521938,1,0,535062.52,535063.5671,4,1,80,8,16
21,264,619.5646044,1,0,535065.3905,535066.4376,4,1,96,16,16
21,265,563.1025478,1,0,535068.2258,535069.2728,4,1,68,4,0
21,266,527.8780994,1,0,535071.0139,535072.061,4,1,84,8,16
21,267,554.3577409,1,0,535073.6727,535074.7197,4,1,92,4,4
21,268,518.6443902,1,0,535076.2962,535077.3432,4,1,81,0,16
21,269,818.8442626,0,0,535078.8961,535079.9431,4,0,69,4,4
21,270,670.8543055,0,0,535081.7901,535082.8372,4,0,75,4,8
21,271,732.114149,0,0,535084.6018,535085.6489,4,0,70,8,4
21,272,431.2140298,0,0,535087.4018,535088.4488,4,0,87,0,0
21,273,810.9017175,0,0,535090.0488,535091.0958,4,0,78,16,16
21,274,628.6597271,0,0,535093.1193,535094.1663,4,0,68,16,0
21,275,663.1873935,0,0,535095.9075,535096.9545,4,0,69,8,16
21,276,516.4270065,0,0,535098.7662,535099.8132,4,0,65,8,8
21,277,962.3601862,1,0,535101.3544,535102.4014,4,1,87,0,4
21,278,547.9585101,0,0,535104.3779,535105.4249,4,0,88,16,16
21,279,544.9330905,0,0,535107.1778,535108.2249,4,0,84,8,16
21,280,502.634187,0,0,535109.86,535110.9071,4,0,98,4,0
21,281,652.0962404,1,0,535112.5306,535113.5776,4,1,100,4,4
21,282,532.2632064,1,0,535115.3423,535116.3893,4,1,65,16,0
21,283,487.0470577,1,0,535118.0716,535119.1186,4,1,85,16,8
