sub_id,Trial,RT,Resp,Error,Fix_onset,Disp_onset,block,tid,tloc,fish_setsize,bird_setsize
9,1,662.879307521507,0,0,1935385.81002137,1935386.85713866,1,0,71,8,0
9,2,503.394216066226,1,0,1935388.58658848,1935389.63367344,1,1,69,8,4
9,3,683.714164886624,1,0,1935391.31608219,1935392.36317062,1,1,91,4,4
9,4,749.709562165663,0,0,1935394.06910125,1935395.1161993,1,0,75,8,16
9,5,708.978767739609,0,0,1935396.92807234,1935397.97509609,1,0,70,4,4
9,6,930.509557249025,1,0,1935399.82221462,1935400.86929996,1,1,88,16,4
9,7,964.277177816257,0,1,1935402.85759677,1935403.90467826,1,1,61,4,4
9,8,693.170345854014,0,0,1935405.9047414,1935406.95182597,1,0,70,16,8
9,9,915.288200834766,1,0,1935408.77541876,1935409.82250719,1,1,79,0,16
9,10,550.553473643959,0,0,1935411.77549922,1935412.82258611,1,0,88,4,8
9,11,541.444527450949,0,0,1935414.43439879,1935415.48148606,1,0,69,16,4
9,12,422.188241267577,0,0,1935417.14036792,1935418.18745557,1,0,67,4,16
9,13,829.583187121898,1,0,1935419.70514838,1935420.75223334,1,1,92,0,8
9,14,465.410117991269,0,0,1935422.65817005,1935423.70525886,1,0,74,8,16
9,15,684.838635846972,1,0,1935425.17589596,1935426.222984,1,1,100,4,8
9,16,498.72540961951,0,0,1935428.03480354,1935429.08189773,1,0,89,16,8
9,17,702.525282045826,0,0,1935430.63487606,1935431.68197065,1,0,89,4,0
9,18,467.913134256378,0,0,1935433.39966953,1935434.44676065,1,0,89,4,16
9,19,548.431953880936,0,1,1935435.98797804,1935437.035063,1,1,93,8,8
9,20,448.605032172054,0,0,1935438.75281309,1935439.79985686,1,0,65,0,4
9,21,750.41365576908,0,0,1935441.29401315,1935442.34110157,1,0,68,8,8
9,22,794.451264897361,0,0,1935444.2588077,1935445.30590036,1,0,80,8,16
9,23,421.275113709271,0,0,1935447.30597581,1935448.35304268,1,0,64,0,16
9,24,621.588009875268,1,0,1935449.97668174,1935451.02371397,1,1,88,0,16
9,25,440.980110317469,0,0,1935452.78852669,1935453.83556237,1,0,89,4,16
9,26,434.843447757885,0,0,1935455.40031742,1935456.44740623,1,0,95,0,8
9,27,342.473604949191,0,0,1935457.97686229,1935459.02394494,1,0,75,0,0
9,28,584.623673465103,0,0,1935460.38869776,1935461.43578311,1,0,68,16,4
9,29,607.267462415621,1,0,1935463.17701581,1935464.2241,1,1,84,4,8
9,30,595.478417817503,0,0,1935466.00062863,1935467.04771166,1,0,98,16,8
9,31,657.76548627764,0,1,1935468.67129414,1935469.71838102,1,1,63,16,0
9,32,625.44878362678,1,0,1935471.41254763,1935472.4596349,1,1,79,8,4
9,33,451.657002791762,1,0,1935474.16556823,1935475.21265742,1,1,61,4,4
9,34,506.957029690966,1,1,1935476.78917611,1935477.83628802,1,0,72,4,8
9,35,636.153392959386,1,0,1935479.45984047,1935480.50693544,1,1,72,8,0
9,36,771.973394555971,1,0,1935482.25992794,1935483.30701136,1,1,100,16,16
9,37,505.004892824218,0,0,1935485.15412373,1935486.20122408,1,0,63,8,4
9,38,449.386117979884,1,1,1935487.88362398,1935488.93070701,1,0,72,8,4
9,39,677.551709813997,0,0,1935490.54257898,1935491.58960696,1,0,80,0,8
9,40,617.78960027732,0,0,1935493.27201263,1935494.31912454,1,0,90,4,16
9,41,661.068836227059,1,0,1935495.98981661,1935497.03682843,1,1,99,16,8
9,42,551.012732088566,0,0,1935498.89570367,1935499.9427944,1,0,62,0,0
9,43,436.700499383733,0,0,1935501.63697063,1935502.68406214,1,0,88,8,0
9,44,438.924803864211,0,0,1935504.19005868,1935505.23707742,1,0,83,8,16
9,45,461.77339181304,0,0,1935506.74300659,1935507.79011118,1,0,70,16,16
9,46,597.039819462225,1,0,1935509.36660601,1935510.41369713,1,1,97,4,16
9,47,450.171823147684,1,0,1935512.02551135,1935513.0725913,1,1,75,0,4
9,48,430.634669493884,0,0,1935514.54322186,1935515.59031375,1,0,65,0,0
9,49,468.862832756713,1,0,1935517.07270333,1935518.1197906,1,1,95,8,8
9,50,464.708334300667,1,0,1935519.67285477,1935520.71987737,1,1,94,0,4
9,51,454.443735070527,0,0,1935522.26110014,1935523.30818664,1,0,97,4,0
9,52,526.030305307359,0,0,1935524.83764847,1935525.88474229,1,0,89,0,0
9,53,419.724875828251,0,0,1935527.59067215,1935528.6377933,1,0,99,0,4
9,54,672.77511395514,0,0,1935530.19079819,1935531.23788238,1,0,72,16,16
9,55,525.14605014585,1,0,1935533.12024408,1935534.1673302,1,1,76,4,4
9,56,455.542798619717,1,0,1935535.79091537,1935536.83798493,1,1,94,8,4
9,57,444.309252779931,1,0,1935538.4380513,1935539.48513703,1,1,62,8,16
9,58,526.816780678928,0,0,1935541.06165533,1935542.10877686,1,0,75,16,0
9,59,571.503818966448,1,0,1935543.69702416,1935544.74411643,1,1,98,4,0
9,60,631.623942172155,1,0,1935546.41474884,1935547.46183573,1,1,100,16,0
9,61,421.864103991538,1,0,1935549.22659917,1935550.27369606,1,1,83,0,0
9,62,541.153111960739,1,0,1935551.80314635,1935552.85023439,1,1,69,16,4
9,63,606.987595558167,0,0,1935554.54440138,1935555.5915206,1,0,75,0,8
9,64,695.3469151631,1,0,1935557.2268621,1935558.27391742,1,1,81,4,0
9,65,523.431819165125,0,0,1935560.02691569,1935561.07400526,1,0,65,8,0
9,66,560.392690822482,1,0,1935562.73291753,1935563.77996169,1,1,88,4,0
9,67,569.656006526202,0,0,1935565.4976652,1935566.54475093,1,0,91,16,4
9,68,459.734638454393,0,0,1935568.32136886,1935569.36838376,1,0,97,16,0
9,69,635.373462224379,1,0,1935570.95665184,1935572.00374181,1,1,70,16,0
9,70,627.204975346103,1,0,1935573.8037927,1935574.85088035,1,1,81,8,8
9,71,693.71352577582,1,0,1935576.6862926,1935577.73332559,1,1,78,16,16
9,72,490.451058605686,1,0,1935579.61573003,1935580.66281922,1,1,65,4,8
9,73,662.435832666233,1,0,1935582.32169415,1935583.36877449,1,1,99,16,8
9,74,488.798421341926,1,0,1935585.20412938,1935586.25121819,1,1,74,16,16
9,75,527.99822576344,1,0,1935587.86302626,1935588.91017935,1,1,91,0,8
9,76,400.270103709772,1,0,1935590.48663491,1935591.53371949,1,1,65,0,4
9,77,428.954315138981,1,0,1935593.02789926,1935594.07497344,1,1,84,0,16
9,78,782.109801424667,1,0,1935595.6867892,1935596.73388032,1,1,70,8,8
9,79,693.003657506779,0,0,1935598.53393083,1935599.58102503,1,0,94,8,0
9,80,473.912750603631,1,0,1935601.39283378,1935602.43993183,1,1,73,0,16
9,81,450.200310442597,1,0,1935615.68737781,1935616.73446161,2,1,76,0,0
9,82,666.202675551176,0,0,1935618.39333962,1935619.44042651,2,0,82,16,0
9,83,534.397047013044,0,0,1935621.15812385,1935622.20521151,2,0,92,8,16
9,84,459.906716132537,0,0,1935623.82879668,1935624.87588934,2,0,62,0,4
9,85,567.808963824064,0,0,1935626.53481046,1935627.58184961,2,0,66,16,0
9,86,598.561570048332,1,0,1935629.18191829,1935630.22899555,2,1,63,0,8
9,87,524.527032859623,1,0,1935631.87609068,1935632.92318103,2,1,82,0,0
9,88,571.411428274587,1,0,1935634.58205518,1935635.62913937,2,1,83,8,0
9,89,567.876331973821,1,0,1935637.26448125,1935638.31157622,2,1,70,16,8
9,90,521.605949150398,0,0,1935639.95868982,1935641.00579942,2,0,62,16,16
9,91,578.367287991568,1,0,1935642.58228154,1935643.62936958,2,1,69,0,4
9,92,619.74096740596,1,0,1935645.37063732,1935646.41769225,2,1,99,8,16
9,93,573.692322243005,0,0,1935648.07661145,1935649.12371258,2,0,95,0,0
9,94,675.394003512338,0,0,1935650.85311043,1935651.9002054,2,0,85,16,4
9,95,702.196525409818,0,0,1935653.65319712,1935654.70028632,2,0,89,16,8
9,96,652.592380996794,1,0,1935656.47680955,1935657.52390452,2,1,98,0,8
9,97,406.036049127579,0,0,1935659.26513107,1935660.31221025,2,0,95,4,16
9,98,722.229508915916,1,0,1935661.72402378,1935662.77109912,2,1,83,16,4
9,99,536.353803472593,1,0,1935664.68881833,1935665.73590483,2,1,73,4,0
9,100,595.461864490062,1,0,1935667.39478361,1935668.44187165,2,1,67,16,16
9,101,675.554532324895,1,0,1935670.10073734,1935671.14782884,2,1,80,4,8
9,102,569.046613294631,0,0,1935672.88906117,1935673.93614035,2,0,96,8,8
9,103,499.217389617115,0,0,1935675.65384116,1935676.70093305,2,0,84,8,0
9,104,585.875566583127,1,0,1935678.24215968,1935679.28928929,2,1,64,8,0
9,105,563.347266055644,1,0,1935680.92459037,1935681.97168033,2,1,66,4,0
9,106,629.566710907966,0,0,1935683.58348454,1935684.63057643,2,0,91,4,8
9,107,597.60032244958,1,0,1935686.28944751,1935687.33653786,2,1,83,8,4
9,108,512.712966185063,0,0,1935689.05424714,1935690.10131555,2,0,73,8,8
9,109,703.558132518083,1,0,1935691.65430697,1935692.70140348,2,1,88,4,0
9,110,578.861577901989,0,0,1935694.47792478,1935695.52501513,2,0,95,16,4
9,111,661.452642409131,1,0,1935697.31330816,1935698.3603912,2,1,85,4,4
9,112,559.449921362102,1,0,1935700.21927028,1935701.26636602,2,1,72,4,8
9,113,592.846054816619,0,0,1935702.83111838,1935703.87820219,2,0,83,0,0
9,114,635.925496229902,0,0,1935705.50176388,1935706.54888618,2,0,77,4,8
9,115,702.882910845801,1,0,1935708.3489159,1935709.39600779,2,1,84,0,8
9,116,658.356786239892,1,0,1935711.17253063,1935712.2196206,2,1,68,8,0
9,117,594.246157677844,1,0,1935713.925557,1935714.97264389,2,1,91,8,16
9,118,734.620632370934,0,0,1935716.74916404,1935717.79625401,2,0,92,8,8
9,119,479.654443450272,1,0,1935719.56102554,1935720.60809741,2,1,73,0,0
9,120,759.686210658401,0,0,1935722.25521524,1935723.30229905,2,0,100,16,16
9,121,673.466504085809,0,0,1935725.20824385,1935726.25532303,2,0,69,16,8
9,122,686.302257468924,0,0,1935728.055377,1935729.10246812,2,0,63,4,16
9,123,707.360006868839,0,0,1935730.97311739,1935732.02020235,2,0,99,16,16
9,124,667.602008674294,0,0,1935733.89084584,1935734.93793735,2,0,90,8,4
9,125,523.658175952733,1,0,1935736.64392495,1935737.69095256,2,1,76,8,16
9,126,539.334941189736,0,0,1935739.33806462,1935740.38515612,2,0,83,0,4
9,127,481.173114385456,0,0,1935742.07932312,1935743.12641347,2,0,91,16,0
9,128,745.259028626606,0,0,1935744.64410204,1935745.69120932,2,0,78,8,8
9,129,591.399756493047,1,0,1935747.55006762,1935748.59715874,2,1,82,0,16
9,130,566.311080707237,1,0,1935750.25603521,1935751.30312171,2,1,71,4,16
9,131,470.066990703344,1,0,1935752.99729063,1935754.04437559,2,1,85,16,8
9,132,407.927362248302,1,0,1935755.69148765,1935756.73858262,2,1,95,4,0
9,133,778.286369284615,1,0,1935758.17391187,1935759.22099953,2,1,61,0,16
9,134,641.472783405334,0,0,1935761.13870411,1935762.18579639,2,0,70,8,4
9,135,544.926499249414,1,0,1935763.90349374,1935764.9505787,2,1,79,8,0
9,136,630.560680059716,1,0,1935766.59771694,1935767.64477726,2,1,77,0,16
9,137,682.604322442785,0,0,1935769.31542083,1935770.36252735,2,0,86,8,4
9,138,452.706791227683,1,0,1935772.22138487,1935773.26849178,2,1,87,8,8
9,139,574.72786703147,0,0,1935774.92735593,1935775.97443203,2,0,67,16,4
9,140,626.973998732865,1,0,1935777.73918739,1935778.78632548,2,1,94,0,16
9,141,615.539503516629,0,0,1935780.46868457,1935781.51576221,2,0,86,0,8
9,142,565.296708373353,0,0,1935783.31582619,1935784.362915,2,0,61,4,8
9,143,729.941431898624,0,0,1935785.96296982,1935787.01005132,2,0,99,8,4
9,144,603.51370787248,0,0,1935788.79833857,1935789.84543123,2,0,72,4,0
9,145,482.601319439709,0,0,1935791.65727617,1935792.70433418,2,0,64,0,4
9,146,683.619849151,1,0,1935794.30438554,1935795.35147627,2,1,88,4,4
9,147,707.790008047596,0,0,1935797.0691817,1935798.11625627,2,0,71,16,0
9,148,415.79557931982,0,0,1935799.97514306,1935801.02222378,2,0,96,4,16
9,149,556.567333638668,0,1,1935802.56352008,1935803.61054383,2,1,61,16,4
9,150,522.204948356375,1,0,1935805.25764512,1935806.30473547,2,1,84,8,16
9,151,545.380752999336,1,0,1935807.86949013,1935808.91657779,2,1,70,0,4
9,152,572.917010635138,1,0,1935810.61075248,1935811.65784014,2,1,69,4,16
9,153,547.161582391709,1,0,1935813.32846446,1935814.37555866,2,1,80,16,0
9,154,617.045085644349,0,0,1935816.06973412,1935817.11681793,2,0,75,16,8
9,155,429.515588097274,0,0,1935818.79922321,1935819.84630779,2,0,96,4,4
9,156,617.124772630632,1,0,1935821.48165313,1935822.52874233,2,1,61,4,4
9,157,593.271051766351,0,0,1935824.29350231,1935825.34059227,2,0,98,0,16
9,158,496.527667390183,1,0,1935827.07005364,1935828.11714168,2,1,95,16,16
9,159,578.282596543431,0,0,1935829.71718495,1935830.7642753,2,0,90,0,8
9,160,764.932073419914,0,0,1935832.35255224,1935833.39964875,2,0,83,4,4
9,161,427.691643126309,1,0,1935840.10572605,1935841.15281717,3,1,93,0,16
9,162,512.323385570198,0,0,1935842.64698154,1935843.69406727,3,0,68,4,4
9,163,526.952671818435,1,0,1935845.32940915,1935846.37649873,3,1,70,8,8
9,164,411.605664296076,1,0,1935847.96478029,1935849.01187449,3,1,86,16,0
9,165,575.5555331707,0,0,1935850.47073448,1935851.51783292,3,0,72,16,8
9,166,480.06442678161,0,0,1935853.15316941,1935854.20025706,3,0,64,16,8
9,167,682.601627428085,0,0,1935855.82383453,1935856.87091642,3,0,93,16,0
9,168,504.8497535754,0,0,1935858.69451614,1935859.74159571,3,0,91,0,16
9,169,483.726945472881,0,0,1935861.35347961,1935862.40049836,3,0,81,4,16
9,170,666.004420723766,1,0,1935864.07114077,1935865.11822342,3,1,87,8,0
9,171,631.536556174979,1,0,1935866.90651953,1935867.95362528,3,1,84,4,8
9,172,567.100250627846,0,0,1935869.68306471,1935870.7301539,3,0,75,16,16
9,173,497.517402051017,1,0,1935872.40079247,1935873.44787435,3,1,95,4,0
9,174,557.482770876959,1,0,1935875.11852369,1935876.16560403,3,1,81,0,4
9,175,472.72322117351,0,0,1935877.8715312,1935878.91862963,3,0,71,0,4
9,176,548.512410605326,0,0,1935880.51867868,1935881.5657671,3,0,94,16,0
9,177,558.715800754726,1,0,1935883.1422908,1935884.18937345,3,1,85,4,8
9,178,526.081890333444,1,0,1935885.76591292,1935886.81299095,3,1,97,16,4
9,179,453.128323424608,0,0,1935888.47185626,1935889.51894276,3,0,85,0,8
9,180,566.825388465077,1,0,1935891.06021327,1935892.10731055,3,1,68,4,0
9,181,464.714493369684,1,0,1935893.7662078,1935894.81322193,3,1,75,16,16
9,182,558.120651170611,0,0,1935896.34267221,1935897.3897591,3,0,97,0,16
9,183,685.495764017105,0,0,1935898.95451415,1935900.00160065,3,0,95,8,16
9,184,592.638945905492,1,0,1935901.82519653,1935902.87227764,3,1,92,16,8
9,185,536.268342286348,0,1,1935904.60173862,1935905.64882204,3,1,73,16,16
9,186,496.918787714094,0,0,1935907.35474921,1935908.40185611,3,0,71,4,4
9,187,514.265128411353,1,0,1935910.01366956,1935911.06074605,3,1,95,4,0
9,188,420.890537556261,0,0,1935912.61381754,1935913.66082628,3,0,96,8,4
9,189,612.859405111521,0,0,1935915.16675391,1935916.21384272,3,0,99,4,16
9,190,555.35701662302,1,0,1935917.94330601,1935918.99039675,3,1,98,16,4
9,191,417.961754603311,0,0,1935920.62573362,1935921.67284014,3,0,94,16,8
9,192,579.307747539133,1,0,1935923.29640453,1935924.34349488,3,1,78,8,4
9,193,504.93752444163,0,0,1935926.03769113,1935927.08474876,3,0,90,0,16
9,194,525.960242375731,0,0,1935928.63773709,1935929.6848286,3,0,93,0,8
9,195,784.396469593048,1,0,1935931.32017279,1935932.36725813,3,1,83,16,16
9,196,724.483455298468,1,0,1935934.17908305,1935935.22616994,3,1,79,4,16
9,197,590.267971158028,0,0,1935937.13210627,1935938.17921009,3,0,76,8,4
9,198,567.421692889184,1,0,1935939.77923681,1935940.82632716,3,1,86,4,8
9,199,672.961820149794,0,0,1935942.42638198,1935943.4734627,3,0,91,8,8
9,200,644.823098788038,1,0,1935945.21470657,1935946.26178345,3,1,97,8,0
9,201,786.438687471673,0,0,1935947.95595198,1935949.00304387,3,0,90,8,16
9,202,584.775733062997,1,0,1935950.92074653,1935951.96783919,3,1,83,8,4
9,203,570.052131311968,1,0,1935953.74435973,1935954.79144238,3,1,64,4,4
9,204,506.259095622227,0,0,1935956.4620871,1935957.50917476,3,0,82,0,0
9,205,574.002215638757,1,0,1935959.10922265,1935960.15631223,3,1,94,8,4
9,206,655.183552997187,0,0,1935961.92107144,1935962.96816179,3,0,61,4,8
9,207,635.84041967988,0,0,1935964.80351707,1935965.8505951,3,0,76,16,4
9,208,626.019295537844,0,0,1935967.67418019,1935968.72127208,3,0,91,8,16
9,209,524.501625448465,1,0,1935970.49777607,1935971.54487257,3,1,96,4,4
9,210,809.127131476998,1,0,1935973.13316799,1935974.1802568,3,1,63,8,8
9,211,554.759942227975,1,0,1935976.13329387,1935977.18035419,3,1,65,16,0
9,212,677.331126993522,1,0,1935978.7686242,1935979.81571378,3,1,73,4,16
9,213,510.129108093679,1,0,1935981.65107098,1935982.69816364,3,1,71,16,8
9,214,627.041366882622,1,0,1935984.25113928,1935985.29822886,3,1,67,4,0
9,215,481.831782497466,0,0,1935987.11010151,1935988.15715452,3,0,68,0,0
9,216,543.600308708847,0,0,1935989.74541991,1935990.79251026,3,0,68,4,4
9,217,616.572738625109,1,0,1935992.45138403,1935993.49846515,3,1,96,8,0
9,218,575.216382509097,0,0,1935995.18087158,1935996.22796078,3,0,71,8,0
9,219,659.783066716045,1,0,1935997.92214009,1935998.96921928,3,1,70,4,0
9,220,407.38726221025,1,0,1936000.66339205,1936001.7104797,3,1,85,0,8
9,221,485.598625615239,0,0,1936003.21640155,1936004.2634869,3,0,90,0,0
9,222,385.821748990566,0,0,1936005.93418513,1936006.98122505,3,0,87,16,16
9,223,524.234077660367,1,0,1936008.5106788,1936009.55776954,3,1,74,8,0
9,224,672.84171236679,0,0,1936011.20487082,1936012.25201699,3,0,100,0,4
9,225,610.945764230564,0,0,1936014.00499062,1936015.05205325,3,0,94,16,4
9,226,657.287364592776,1,0,1936016.78150461,1936017.82859265,3,1,92,0,8
9,227,491.075850324705,0,0,1936019.53453406,1936020.58162326,3,0,92,8,16
9,228,636.186884483323,0,0,1936022.14637177,1936023.1934625,3,0,70,0,4
9,229,610.316738020629,1,0,1936024.85236168,1936025.89942547,3,1,63,4,16
9,230,466.938028112054,1,0,1936027.58186078,1936028.62892187,3,1,92,0,0
9,231,604.426835197955,0,0,1936030.21723653,1936031.26429147,3,0,100,0,0
9,232,520.332498243079,0,0,1936033.07611023,1936034.12319943,3,0,85,0,4
9,233,630.173409357667,1,0,1936035.75853553,1936036.80562203,3,1,90,16,4
9,234,602.00543096289,1,0,1936038.55862184,1936039.60574414,3,1,82,8,8
9,235,663.347420282662,0,0,1936041.28811747,1936042.33520012,3,0,87,0,8
9,236,552.310050465167,1,0,1936044.13525602,1936045.18234675,3,1,74,8,16
9,237,588.522943202406,0,0,1936046.85298301,1936047.90006681,3,0,61,0,16
9,238,531.757754739374,0,0,1936049.57071808,1936050.61779072,3,0,80,8,8
9,239,504.251139005646,1,0,1936052.20608614,1936053.25317303,3,1,95,4,8
9,240,491.860015783459,0,0,1936054.94734541,1936055.99443114,3,0,96,16,0
9,241,623.363065067679,1,0,1936060.87692797,1936061.92401832,4,1,79,4,0
9,242,487.125380896032,1,0,1936063.67700811,1936064.7240923,4,1,95,16,4
9,243,662.710694829002,0,0,1936066.31237771,1936067.35947538,4,0,83,4,4
9,244,618.164552375674,1,0,1936069.0301124,1936070.07719621,4,1,80,8,0
9,245,461.718342499807,1,0,1936071.7243048,1936072.77144751,4,1,84,8,0
9,246,522.787394234911,1,0,1936074.41851453,1936075.46559179,4,1,93,16,8
9,247,593.568626558408,1,0,1936077.17152358,1936078.21860238,4,1,89,4,8
9,248,597.215361427516,0,0,1936079.85395773,1936080.90107349,4,0,71,8,8
9,249,607.244749553502,1,0,1936082.66580306,1936083.71288224,4,1,77,4,4
9,250,523.116535972804,0,0,1936085.46588705,1936086.51297702,4,0,65,4,8
9,251,583.090374013409,0,0,1936088.12479239,1936089.17189083,4,0,94,16,8
9,252,560.141696361825,0,0,1936090.83074997,1936091.87783917,4,0,66,4,0
9,253,528.197250794619,0,0,1936093.47788937,1936094.5249724,4,0,65,16,0
9,254,561.559507623315,1,0,1936096.1603189,1936097.20740001,4,1,81,0,4
9,255,502.99347168766,0,0,1936098.8780482,1936099.92514394,4,0,62,16,4
9,256,505.361366551369,1,0,1936101.50165108,1936102.54873835,4,1,86,16,8
9,257,521.153619978577,1,0,1936104.20764716,1936105.25470633,4,1,93,0,4
9,258,589.169292477891,0,0,1936106.85475768,1936107.90183532,4,0,70,0,0
9,259,512.634048936889,0,0,1936109.63132403,1936110.67838858,4,0,66,8,0
9,260,559.767514234409,0,0,1936112.39619411,1936113.44318167,4,0,83,4,8
9,261,444.660722045228,1,0,1936115.20794127,1936116.25503778,4,1,97,8,16
9,262,581.637531286106,0,0,1936117.85508682,1936118.90216601,4,0,82,8,4
9,263,546.142975799739,0,0,1936120.53753406,1936121.58459978,4,0,81,0,4
9,264,453.296551248059,1,0,1936123.29053272,1936124.33761922,4,1,95,0,8
9,265,580.62662393786,0,0,1936125.91414407,1936126.96122518,4,0,91,8,8
9,266,441.183754941449,0,0,1936128.74951667,1936129.7965997,4,0,98,0,4
9,267,623.839261708781,0,0,1936131.3378371,1936132.38491475,4,0,66,16,16
9,268,429.929035948589,0,0,1936134.04378044,1936135.09087887,4,0,97,8,4
9,269,482.488141162321,0,0,1936136.67916351,1936137.72625425,4,0,94,16,16
9,270,541.823713807389,1,0,1936139.40865529,1936140.45574333,4,1,77,8,4
9,271,496.341346064582,1,0,1936142.09108637,1936143.13816786,4,1,68,4,16
9,272,605.875058565289,1,0,1936144.77351937,1936145.82067208,4,1,62,16,0
9,273,434.948927024379,1,0,1936147.52655344,1936148.57366457,4,1,77,4,4
9,274,638.547080103308,0,0,1936150.20897874,1936151.25606832,4,0,81,16,0
9,275,582.680390682071,1,0,1936153.02081405,1936154.06791441,4,1,98,0,0
9,276,432.606054702774,1,0,1936155.83271366,1936156.87975743,4,1,94,4,16
9,277,678.857112303376,0,0,1936158.49161323,1936159.53865815,4,0,100,0,16
9,278,580.030319280922,1,0,1936161.25635896,1936162.30351476,4,1,64,4,4
9,279,567.407834343612,1,0,1936163.92702602,1936164.97411598,4,1,73,0,16
9,280,705.157260177657,0,0,1936166.5741604,1936167.62124305,4,0,88,16,16
9,281,478.962283581495,1,0,1936169.46836851,1936170.51545463,4,1,85,8,0
9,282,432.285382179543,0,0,1936172.09197293,1936173.13906367,4,0,86,0,16
9,283,566.826158203185,1,0,1936174.62151907,1936175.66854128,4,1,100,16,8
9,284,459.265371086076,0,0,1936177.3509508,1936178.39804192,4,0,64,8,0
9,285,562.513440847397,1,0,1936180.06868818,1936181.11577045,4,1,90,4,4
9,286,507.83435581252,1,0,1936182.78644597,1936183.83349667,4,1,77,4,8
9,287,563.557069981471,1,0,1936185.38649078,1936186.43356997,4,1,95,4,8
9,288,475.523042492568,0,0,1936188.18656439,1936189.23365512,4,0,76,0,0
9,289,407.083143014461,0,0,1936190.71605701,1936191.76314736,4,0,77,0,16
9,290,724.256713408977,1,0,1936193.18671529,1936194.23380987,4,1,69,8,4
9,291,399.097897578031,0,0,1936196.13974197,1936197.18682885,4,0,75,0,0
9,292,472.429111367092,1,0,1936198.70452897,1936199.75160161,4,1,73,16,0
9,293,484.514575684443,1,0,1936201.41049194,1936202.45757729,4,1,64,16,8
9,294,441.480174660683,1,0,1936204.0223435,1936205.06940806,4,1,63,4,0
9,295,480.235734488815,1,0,1936206.610647,1936207.65773042,4,1,100,0,0
9,296,464.920832542703,0,0,1936209.30484249,1936210.35193399,4,0,76,16,4
9,297,629.45199245587,0,0,1936211.92844845,1936212.97553456,4,0,62,4,16
9,298,604.996192734689,1,0,1936214.71676457,1936215.76385531,4,1,87,8,8
9,299,527.083173627034,1,0,1936217.52867072,1936218.57569447,4,1,76,0,4
9,300,459.447842556983,1,0,1936220.19927734,1936221.24637,4,1,78,4,0
9,301,546.205339487642,0,0,1936222.74053014,1936223.78761433,4,0,83,16,16
9,302,499.959209235385,0,0,1936225.38766568,1936226.43475334,4,0,62,16,4
9,303,494.507392402738,0,0,1936227.96421709,1936229.01129974,4,0,84,16,0
9,304,448.497628094628,0,0,1936230.52899447,1936231.57608713,4,0,64,4,16
9,305,448.802517028525,0,0,1936233.04671923,1936234.09381651,4,0,85,8,16
9,306,564.567592227831,0,0,1936235.68209345,1936236.7291734,4,0,91,0,8
9,307,537.30350243859,0,0,1936238.48217706,1936239.52926048,4,0,99,0,16
9,308,473.728739423677,0,0,1936241.1646066,1936242.21174083,4,0,69,0,8
9,309,442.066470393911,0,1,1936243.72939014,1936244.77647086,4,1,99,8,8
9,310,480.492118513212,0,0,1936246.25887584,1936247.30596734,4,0,87,16,4
9,311,759.523371933028,1,0,1936248.81188766,1936249.85897993,4,1,67,8,8
9,312,633.601871784776,1,0,1936251.6708037,1936252.71790329,4,1,64,0,8
9,313,637.724418658763,1,0,1936254.48265326,1936255.52973629,4,1,78,8,16
9,314,582.939854357392,1,0,1936257.35330561,1936258.40040866,4,1,92,0,8
9,315,677.743035135791,1,0,1936260.15339422,1936261.20053962,4,1,85,4,0
9,316,637.552726082504,0,0,1936262.94171882,1936263.98880878,4,0,68,8,16
9,317,760.346418479458,0,0,1936265.73003418,1936266.77712068,4,0,61,4,16
9,318,571.531536057591,1,0,1936268.69482488,1936269.74191099,4,1,81,8,4
9,319,722.79540146701,0,0,1936271.31843969,1936272.36552234,4,0,100,16,16
9,320,470.304896589369,0,0,1936274.24795372,1936275.29502098,4,0,96,8,16
9,321,499.541526660323,1,0,1936280.42458844,1936281.47167725,5,1,100,0,0
9,322,489.972167182714,1,0,1936283.04820403,1936284.0953194,5,1,73,16,16
9,323,586.364467162639,0,0,1936285.73063048,1936286.77771236,5,0,96,8,8
9,324,460.683182347566,0,0,1936288.49541972,1936289.54251007,5,0,89,0,16
9,325,422.033102018759,0,0,1936291.11903299,1936292.16611372,5,0,79,0,16
9,326,730.081942630932,0,0,1936293.7779291,1936294.82502021,5,0,81,4,16
9,327,767.097478965297,1,0,1936296.73099119,1936297.77804266,5,1,64,4,8
9,328,574.998109834269,1,0,1936299.5781613,1936300.62519198,5,1,77,16,8
9,329,538.678197888657,0,0,1936302.22528876,1936303.27231983,5,0,90,4,0
9,330,567.760073579848,1,0,1936304.99002295,1936306.03712023,5,1,67,0,0
9,331,511.036845855415,0,0,1936307.80187444,1936308.84895632,5,0,62,8,4
9,332,762.626927345991,0,0,1936310.39020334,1936311.43728445,5,0,89,8,8
9,333,721.766785718501,1,0,1936313.35502715,1936314.40212867,5,1,87,8,16
9,334,524.14669143036,1,0,1936316.31976203,1936317.36685315,5,1,92,4,16
9,335,486.744654364884,0,0,1936318.91984996,1936319.96697303,5,0,82,8,0
9,336,435.067494865507,0,0,1936321.48462695,1936322.53172038,5,0,72,8,8
9,337,584.6498508472,1,0,1936324.02588168,1936325.07303208,5,1,93,16,16
9,338,533.620965667069,1,0,1936326.81420358,1936327.86129008,5,1,66,8,16
9,339,480.696148006245,1,0,1936329.47310507,1936330.52018695,5,1,64,0,4
9,340,572.95281207189,0,0,1936332.0967118,1936333.14384296,5,0,86,16,4
9,341,384.062862256542,0,0,1936334.86149989,1936335.90858369,5,0,85,0,4
9,342,430.720900883898,1,0,1936337.39098558,1936338.43807247,5,1,85,0,0
9,343,554.25987765193,1,0,1936339.88517652,1936340.93225956,5,1,96,16,4
9,344,591.059065889567,0,0,1936342.53230976,1936343.57941166,5,0,61,4,16
9,345,512.929698918015,0,0,1936345.36772085,1936346.41483007,5,0,71,8,0
9,346,503.431557212025,0,0,1936348.097188,1936349.14426257,5,0,82,4,4
9,347,453.013990074396,0,0,1936350.7913831,1936351.83846575,5,0,73,0,0
9,348,450.64186071977,0,0,1936353.37974934,1936354.42678118,5,0,93,8,4
9,349,643.557347124442,0,0,1936355.93271997,1936356.97978491,5,0,99,8,0
9,350,524.600560311228,1,0,1936358.7916237,1936359.8387025,5,1,90,0,8
9,351,612.738527357578,1,0,1936361.43876309,1936362.48584112,5,1,61,0,4
9,352,507.326592225581,0,0,1936364.23882861,1936365.28592435,5,0,65,4,4
9,353,678.324326174334,1,0,1936366.9801052,1936368.02718054,5,1,94,16,8
9,354,505.496102850884,0,0,1936369.75663998,1936370.8037338,5,0,73,0,4
9,355,483.594519086182,0,0,1936372.4155511,1936373.46264068,5,0,92,16,4
9,356,869.146780110896,0,0,1936375.05091954,1936376.09801143,5,0,100,8,4
9,357,512.410001596436,0,0,1936378.16865985,1936379.21576098,5,0,61,16,0
9,358,596.790364710614,0,0,1936380.88639955,1936381.93347527,5,0,99,16,0
9,359,473.210581811145,1,0,1936383.55705312,1936384.60413731,5,1,62,16,4
9,360,460.602340521291,0,1,1936386.13360069,1936387.18068796,5,1,77,4,0
9,361,457.491470966488,1,0,1936388.79250333,1936389.83958444,5,1,85,4,16
9,362,517.847575247288,0,0,1936391.36905551,1936392.41614471,5,0,89,8,4
9,363,449.593226891011,1,0,1936394.05148466,1936395.09856885,5,1,86,16,0
9,364,452.78686308302,0,0,1936396.66331813,1936397.71041772,5,0,65,0,0
9,365,427.740148035809,0,0,1936399.21634651,1936400.26343185,5,0,85,16,4
9,366,745.426486479118,1,0,1936401.86348166,1936402.91056547,5,1,83,0,16
9,367,531.078683678061,1,0,1936404.80474625,1936405.85183583,5,1,64,16,0
9,368,422.796479426324,0,0,1936407.48722506,1936408.53425959,5,0,74,16,16
9,369,459.346212912351,1,0,1936410.0754916,1936411.1225754,5,1,84,4,0
9,370,826.135091949254,1,0,1936412.67556913,1936413.72265486,5,1,61,8,4
9,371,522.895568516105,1,0,1936415.7110121,1936416.75804278,5,1,95,4,0
9,372,591.821288689971,0,0,1936418.31103343,1936419.3581103,5,0,98,16,16
9,373,412.215057527646,0,0,1936421.08757783,1936422.13467011,5,0,94,4,4
9,374,660.360893234611,1,0,1936423.74648356,1936424.79356775,5,1,71,8,0
9,375,522.991423495114,0,0,1936426.54656409,1936427.59365252,5,0,65,8,0
9,376,619.259380968288,1,0,1936429.31135218,1936430.35843752,5,1,67,4,8
9,377,577.836041804403,1,0,1936432.1467294,1936433.19384515,5,1,88,16,8
9,378,476.074691396207,1,0,1936434.80563666,1936435.85272047,5,1,78,4,8
9,379,448.631594423205,1,0,1936437.48814935,1936438.53514654,5,1,75,4,0
9,380,474.09714688547,1,0,1936440.07637739,1936441.12346813,5,1,69,8,16
9,381,552.325833821669,0,0,1936442.68821702,1936443.7353066,5,0,91,0,4
9,382,548.024665098637,0,0,1936445.38241635,1936446.4295067,5,0,69,16,8
9,383,472.73053554818,1,0,1936448.11190929,1936449.1589931,5,1,67,8,16
9,384,416.322205914184,1,0,1936450.70022357,1936451.74731199,5,1,86,0,8
9,385,598.170834593475,0,0,1936453.35912468,1936454.40621118,5,0,73,8,8
9,386,549.608779372647,1,0,1936456.12390852,1936457.17099656,5,1,71,4,8
9,387,428.067364729941,0,0,1936458.91222889,1936459.95933078,5,0,93,4,4
9,388,578.998623881489,1,0,1936461.55936135,1936462.60644977,5,1,100,4,16
9,389,518.57861620374,1,0,1936464.28885929,1936465.33595118,5,1,81,4,4
9,390,418.810208560899,0,0,1936467.06540986,1936468.11249905,5,0,83,0,8
9,391,582.864401862025,0,0,1936469.72431366,1936470.77140093,5,0,79,8,8
9,392,611.445828573778,0,0,1936472.54792762,1936473.59501643,5,0,77,0,8
9,393,553.617377765477,1,0,1936475.32454517,1936476.37156892,5,1,86,0,8
9,394,549.93330151774,0,0,1936478.08926704,1936479.13639396,5,0,94,4,8
9,395,500.910832779482,0,0,1936480.70111437,1936481.74819433,5,0,81,0,16
9,396,734.789245063439,1,0,1936483.39535374,1936484.44245448,5,1,99,16,16
9,397,714.496798114851,1,0,1936486.23068168,1936487.27777665,5,1,80,0,16
9,398,662.692601559684,1,0,1936489.14842399,1936490.19550664,5,1,77,16,8
9,399,491.378814447671,0,0,1936491.93674204,1936492.98382931,5,0,92,8,16
9,400,609.724283218384,1,0,1936494.56036764,1936495.60742719,5,1,90,16,0
9,401,407.450780738145,1,0,1936500.46644178,1936501.51348209,6,1,83,4,8
9,402,498.327744659036,1,0,1936503.11354114,1936504.16062649,6,1,70,0,0
9,403,642.328936606646,0,1,1936505.77244109,1936506.81952567,6,1,99,8,16
9,404,572.955891722813,0,0,1936508.5489932,1936509.59609356,6,0,92,4,4
9,405,641.664494061843,1,0,1936511.24318714,1936512.29028172,6,1,81,0,0
9,406,519.087534630671,1,0,1936514.11386759,1936515.16095832,6,1,64,16,16
9,407,517.125773476437,0,0,1936516.81983364,1936517.86690974,6,0,87,0,4
9,408,382.625418249518,0,0,1936519.51402873,1936520.56111331,6,0,87,4,4
9,409,444.262287579477,0,0,1936522.10233031,1936523.14942643,6,0,76,8,8
9,410,531.904809642583,0,0,1936524.73770683,1936525.7847968,6,0,78,4,0
9,411,562.104997225106,1,0,1936527.50249761,1936528.54957949,6,1,82,8,8
9,412,670.541955623776,0,0,1936530.22022807,1936531.26731264,6,0,91,8,16
9,413,496.381767094135,0,0,1936533.07913025,1936534.12621791,6,0,66,0,4
9,414,517.626607790589,1,0,1936535.64392495,1936536.69100068,6,1,76,8,0
9,415,673.013789812103,0,0,1936538.42046859,1936539.46755355,6,0,81,8,8
9,416,678.89676336199,0,0,1936541.31467285,1936542.36176897,6,0,88,4,16
9,417,687.81476886943,1,0,1936544.16183526,1936545.20890367,6,1,63,8,0
9,418,597.619570558891,1,0,1936547.02072782,1936548.06783357,6,1,68,8,4
9,419,598.471104400232,0,0,1936549.85610543,1936550.90319347,6,0,91,4,16
9,420,946.692161262035,0,0,1936552.67972247,1936553.72680204,6,0,99,0,16
9,421,784.259038511664,1,0,1936555.76215647,1936556.80924105,6,1,89,16,0
9,422,504.627245943993,0,0,1936558.6916605,1936559.73874777,6,0,93,0,16
9,423,782.896661665291,0,0,1936561.36232216,1936562.40940943,6,0,71,4,8
9,424,553.653949173167,0,0,1936564.3506744,1936565.39773357,6,0,74,8,16
9,425,519.397428259254,0,0,1936567.0919021,1936568.13899052,6,0,77,16,4
9,426,428.582827560604,0,0,1936569.70375482,1936570.75084055,6,0,84,4,0
9,427,592.540780780837,1,0,1936572.30382503,1936573.35090999,6,1,67,8,16
9,428,511.084196157753,1,0,1936575.04507506,1936576.09217542,6,1,78,16,16
9,429,479.149759747088,0,0,1936577.7039831,1936578.75107691,6,0,69,16,4
9,430,603.424396831542,1,0,1936580.31581811,1936581.36292347,6,1,82,0,16
9,431,544.608906377107,0,0,1936582.97473115,1936584.0218188,6,0,97,8,0
9,432,869.238400831819,0,0,1936585.57480444,1936586.62189479,6,0,87,0,0
9,433,472.330176271498,0,0,1936588.57489337,1936589.62198564,6,0,73,16,4
9,434,772.98738155514,1,0,1936591.16321034,1936592.21030108,6,1,77,4,0
9,435,452.417685417458,0,0,1936594.1397693,1936595.18685349,6,0,95,8,0
9,436,374.680208973587,0,0,1936596.82223156,1936597.86932268,6,0,85,4,16
9,437,425.796480150893,0,0,1936599.42232641,1936600.46936364,6,0,97,0,8
9,438,641.523213358596,1,0,1936602.01058911,1936603.05767291,6,1,93,4,0
9,439,623.066645115614,0,0,1936604.75183875,1936605.79893218,6,0,89,8,8
9,440,623.599431011826,1,0,1936607.49311534,1936608.54023841,6,1,94,4,8
9,441,460.041067330167,1,0,1936610.3049522,1936611.35204293,6,1,78,16,8
9,442,449.660980142653,0,0,1936612.84619653,1936613.89328457,6,0,87,4,16
9,443,698.646415490657,1,0,1936615.45805194,1936616.50516501,6,1,69,4,4
9,444,439.12113388069,1,0,1936618.32872084,1936619.37580426,6,1,65,8,16
9,445,512.521255528554,1,0,1936620.95231834,1936621.99941561,6,1,85,16,8
9,446,668.030855013058,0,0,1936623.63475788,1936624.68184053,6,0,100,4,8
9,447,503.942400449887,0,0,1936626.38777886,1936627.43491925,6,0,71,0,8
9,448,475.89414473623,1,0,1936629.09373952,1936630.14083449,6,1,77,0,4
9,449,677.662193542346,0,0,1936631.69389751,1936632.74095052,6,0,80,16,16
9,450,585.970266954973,0,0,1936634.61155705,1936635.65863662,6,0,90,4,8
9,451,487.88259900175,1,0,1936637.3058045,1936638.35284827,6,1,72,4,4
9,452,580.284008523449,1,0,1936639.98818014,1936641.03527627,6,1,91,8,0
9,453,613.517303252593,1,0,1936642.69433059,1936643.74123693,6,1,64,0,0
9,454,437.809572089463,1,0,1936645.4236372,1936646.47072986,6,1,66,8,4
9,455,675.923324655741,0,0,1936647.9295914,1936648.97672024,6,0,75,16,0
9,456,522.14874397032,1,0,1936650.69437909,1936651.74147522,6,1,70,16,4
9,457,471.482877153903,1,0,1936653.3768144,1936654.42390514,6,1,66,16,0
9,458,443.215578794479,1,0,1936656.01217822,1936657.05927435,6,1,93,0,8
9,459,785.802346887067,0,0,1936658.54173938,1936659.5887639,6,0,86,0,16
9,460,554.755707504228,0,0,1936661.44772113,1936662.49474296,6,0,89,4,16
9,461,627.697725314647,1,0,1936664.15361057,1936665.20069399,6,1,91,0,16
9,462,766.697119455785,0,0,1936666.95367147,1936668.00080571,6,0,93,0,4
9,463,571.570802247152,1,1,1936669.8126314,1936670.85969018,6,0,89,8,4
9,464,535.603129770607,1,0,1936672.47162682,1936673.51859244,6,1,96,0,0
9,465,480.02516082488,1,0,1936675.08334365,1936676.13043708,6,1,96,0,4
9,466,731.067442568019,0,0,1936677.69518251,1936678.74226785,6,0,65,8,8
9,467,590.374605264515,0,0,1936680.671743,1936681.71882719,6,0,97,16,0
9,468,682.84877249971,1,0,1936683.34239851,1936684.38951349,6,1,90,8,4
9,469,449.85808013007,1,0,1936686.24838642,1936687.295471,6,1,95,16,16
9,470,570.244611706585,0,0,1936688.77785133,1936689.82497402,6,0,90,16,16
9,471,511.448754230514,1,0,1936691.49559064,1936692.54267791,6,1,75,0,8
9,472,512.933163670823,1,0,1936694.22515903,1936695.27226016,6,1,89,16,8
9,473,919.612467288971,1,0,1936696.87223221,1936697.91936298,6,1,87,4,4
9,474,1012.49546301551,0,0,1936699.90759434,1936700.95472126,6,0,65,0,8
9,475,452.262931270525,0,0,1936703.06069832,1936704.10772746,6,0,75,16,4
9,476,577.676668064669,1,0,1936705.73130878,1936706.77840067,6,1,68,4,0
9,477,710.813876707107,1,0,1936708.39025454,1936709.43730216,6,1,97,16,8
9,478,624.930241145194,0,0,1936711.20210025,1936712.24915557,6,0,98,16,0
9,479,736.219760263339,1,0,1936713.93154815,1936714.97863889,6,1,72,16,8
9,480,433.334015775472,1,0,1936716.88458137,1936717.93166479,6,1,86,8,4
9,481,535.690515767783,0,0,1936731.57913064,1936732.62621136,7,0,95,4,4
9,482,401.173992082477,0,0,1936734.27333305,1936735.32041416,7,0,89,0,4
9,483,557.876970851794,0,0,1936736.90875076,1936737.95584265,7,0,91,8,0
9,484,529.38216063194,1,0,1936739.54407801,1936740.59116221,7,1,61,0,16
9,485,463.429108960554,0,0,1936742.29709707,1936743.34418858,7,0,80,0,8
9,486,382.026033941656,0,0,1936744.97953007,1936746.02661773,7,0,76,0,0
9,487,667.5450343173,1,0,1936747.46196084,1936748.50904041,7,1,89,16,16
9,488,439.231617609039,0,0,1936750.20321857,1936751.25030776,7,0,82,8,4
9,489,415.495309978724,0,0,1936752.81505627,1936753.86214585,7,0,67,8,0
9,490,411.375457420945,0,0,1936755.32101162,1936756.36809696,7,0,66,16,16
9,491,585.578761529177,1,0,1936757.9799158,1936759.02700808,7,1,74,16,4
9,492,578.384226188064,1,0,1936760.67411321,1936761.72119932,7,1,93,8,4
9,493,479.033116484061,0,0,1936763.32125029,1936764.36833872,7,0,77,16,16
9,494,470.428853994235,1,0,1936766.03897959,1936767.08606725,7,1,92,8,0
9,495,582.305823452771,0,0,1936768.63904172,1936769.68616018,7,0,89,16,8
9,496,586.773680523038,1,0,1936771.36855352,1936772.41563387,7,1,84,4,16
9,497,447.815862251446,0,0,1936774.1216003,1936775.16864638,7,0,85,4,16
9,498,498.219185741618,1,0,1936776.69811206,1936777.74521011,7,1,76,0,8
9,499,454.161558765918,0,0,1936779.29818921,1936780.34527917,7,0,66,16,4
9,500,542.07586334087,1,0,1936782.00415679,1936783.05125215,7,1,67,0,16
9,501,472.4810810294,0,0,1936784.67482,1936785.72190881,7,0,85,16,8
9,502,393.310779472813,1,0,1936787.3337315,1936788.3808153,7,1,77,8,8
9,503,798.11994289048,1,0,1936789.92203846,1936790.96912804,7,1,90,4,8
9,504,431.89310701564,1,0,1936792.81631894,1936793.86339813,7,1,96,0,16
9,505,482.430011965334,0,0,1936795.45161386,1936796.49870382,7,0,64,0,4
9,506,668.208322254941,0,0,1936798.19286928,1936799.23995424,7,0,70,16,0
9,507,495.963699417189,0,0,1936800.9341347,1936801.98122775,7,0,85,0,0
9,508,459.613375831395,0,0,1936803.58127333,1936804.62834327,7,0,87,16,8
9,509,657.111822394654,0,0,1936806.20487428,1936807.25196271,7,0,71,8,16
9,510,513.717329129577,1,0,1936809.09917594,1936810.14623318,7,1,86,4,0
9,511,505.82832400687,1,0,1936811.80504305,1936812.85214418,7,1,99,16,0
9,512,530.634438619018,1,0,1936814.4521913,1936815.49925509,7,1,99,0,0
9,513,474.042867543176,0,0,1936817.12284873,1936818.16993099,7,0,89,16,16
9,514,355.780935613438,1,0,1936819.6641073,1936820.7111861,7,1,85,0,16
9,515,600.936009315774,1,0,1936822.22888045,1936823.27598273,7,1,91,16,4
9,516,479.049284709618,1,0,1936824.99366815,1936826.04075696,7,1,83,16,8
9,517,484.521504957229,0,0,1936827.72316416,1936828.77024874,7,0,86,4,4
9,518,764.117881190032,1,0,1936830.3114719,1936831.35855416,7,1,100,4,16
9,519,494.205967755988,1,0,1936833.2645032,1936834.31158893,7,1,62,8,8
9,520,599.467383231968,0,0,1936835.84104652,1936836.88813264,7,0,90,4,16
9,521,574.357149656862,0,0,1936838.58230618,1936839.62941616,7,0,80,16,4
9,522,560.464293463156,1,0,1936841.30003278,1936842.34712082,7,1,87,16,16
9,523,518.927005818114,0,0,1936844.02952649,1936845.07666689,7,0,82,4,8
9,524,423.639928922057,0,0,1936846.66490225,1936847.71199029,7,0,72,0,16
9,525,549.660749034956,1,0,1936849.32385263,1936850.37088562,7,1,78,4,0
9,526,419.959317194298,0,0,1936852.04153227,1936853.08868306,7,0,76,8,16
9,527,369.439350441098,0,0,1936854.67689494,1936855.72398182,7,0,66,8,8
9,528,430.41601171717,0,1,1936857.22991445,1936858.27701019,7,1,61,4,0
9,529,498.224575305358,1,0,1936859.91234553,1936860.95943934,7,1,68,0,8
9,530,474.783917423338,0,0,1936862.65360903,1936863.70068514,7,0,97,8,0
9,531,514.498414937407,0,0,1936865.28898594,1936866.3360632,7,0,72,16,0
9,532,581.4196432475,1,0,1936867.90082403,1936868.94791284,7,1,61,0,0
9,533,531.436312245205,1,0,1936870.54795842,1936871.59504916,7,1,82,4,16
9,534,637.712869793177,0,0,1936873.2186324,1936874.26571005,7,0,97,4,8
9,535,657.015582313761,0,0,1936875.99518258,1936877.04226754,7,0,93,4,0
9,536,412.620036397129,0,0,1936878.78350371,1936879.83058329,7,0,83,0,0
9,537,624.827071558684,1,0,1936881.34827609,1936882.39540802,7,1,63,4,8
9,538,517.135012662038,1,0,1936884.17189352,1936885.21897579,7,1,95,8,4
9,539,551.860415842384,0,0,1936886.901383,1936887.94847258,7,0,98,0,8
9,540,414.881682256237,1,0,1936889.66617262,1936890.71331994,7,1,82,4,4
9,541,584.684882313013,0,0,1936892.31331933,1936893.36042584,7,0,82,8,4
9,542,573.666144860908,0,0,1936895.00750865,1936896.05459399,7,0,88,8,8
9,543,444.349288707599,1,0,1936897.70170721,1936898.74878871,7,1,73,16,8
9,544,421.521103708074,1,0,1936900.36061024,1936901.40769674,7,1,93,4,0
9,545,567.659598775208,0,0,1936902.93720284,1936903.98430166,7,0,99,4,4
9,546,489.34968537651,0,0,1936905.57252701,1936906.61961736,7,0,83,16,4
9,547,523.104602238163,1,0,1936908.26672327,1936909.31381747,7,1,78,0,4
9,548,501.345068914816,1,0,1936910.97269355,1936912.01977543,7,1,76,8,4
9,549,454.019123222679,0,0,1936913.71395051,1936914.76108128,7,0,64,8,8
9,550,479.298354592174,0,0,1936916.38461063,1936917.43170098,7,0,77,0,8
9,551,476.677155354992,0,0,1936919.02003874,1936920.06708059,7,0,97,8,16
9,552,520.323259290308,1,0,1936921.70242016,1936922.7494928,7,1,85,8,16
9,553,435.079813702032,1,0,1936924.33778744,1936925.3848724,7,1,87,4,8
9,554,507.790855132043,0,0,1936926.93786459,1936927.98495533,7,0,62,0,4
9,555,472.010273719206,1,0,1936929.54970191,1936930.59680573,7,1,87,8,0
9,556,562.217790866271,1,0,1936932.22037281,1936933.2674597,7,1,67,16,0
9,557,489.845129894093,1,0,1936935.0086924,1936936.05578237,7,1,65,16,0
9,558,467.526633525267,1,0,1936937.59700476,1936938.64408818,7,1,75,8,16
9,559,602.714913897216,1,0,1936940.15001388,1936941.19709923,7,1,71,0,4
9,560,520.99309139885,1,0,1936942.97363555,1936944.02078942,7,1,78,4,4
9,561,685.593544039875,0,0,1936949.16205007,1936950.20914119,8,0,93,8,0
9,562,540.877094725147,1,0,1936951.93860641,1936952.98570407,8,1,99,4,4
9,563,454.004109604284,0,0,1936954.59750251,1936955.64460172,8,0,69,8,8
9,564,411.614903248847,1,0,1936957.13875878,1936958.18584528,8,1,98,8,0
9,565,451.376751065254,1,0,1936959.68000735,1936960.72709616,8,1,67,0,16
9,566,472.291680052876,0,0,1936962.32715251,1936963.37424094,8,0,61,4,16
9,567,629.863130860031,0,0,1936965.02134915,1936966.06843449,8,0,99,4,0
9,568,463.765949709341,1,0,1936967.85672791,1936968.90381633,8,1,64,0,4
9,569,541.469164658338,1,0,1936970.55092686,1936971.59801259,8,1,86,16,8
9,570,584.154406096786,0,0,1936973.29217843,1936974.33927185,8,0,82,16,0
9,571,607.536165043712,1,0,1936975.96284894,1936977.00993352,8,1,93,16,0
9,572,663.489470724016,1,0,1936978.77469234,1936979.82178654,8,1,92,4,16
9,573,566.08395348303,1,0,1936981.51594776,1936982.56304466,8,1,98,16,8
9,574,460.182733135298,0,0,1936984.16309178,1936985.21017905,8,0,75,0,16
9,575,599.546300247312,0,0,1936986.83375613,1936987.88084687,8,0,80,4,0
9,576,517.611594172195,1,0,1936989.6926691,1936990.73975714,8,1,98,0,0
9,577,426.534065278247,0,0,1936992.35156096,1936993.39865593,8,0,85,0,16
9,578,427.430639509112,0,0,1936994.95164465,1936995.99873154,8,0,77,8,0
9,579,433.33748052828,0,0,1936997.59878559,1936998.64587324,8,0,67,0,16
9,580,458.82998011075,0,0,1937000.17541669,1937001.22241618,8,0,70,0,0
9,581,562.886082800105,0,0,1937002.89305475,1937003.94019899,8,0,91,8,4
9,582,420.402792282403,0,0,1937005.52842743,1937006.57552047,8,0,82,16,4
9,583,567.906743614003,0,0,1937008.15204224,1937009.19915376,8,0,79,16,0
9,584,429.069418460131,1,0,1937010.96388718,1937012.01097407,8,1,74,8,8
9,585,428.751825354993,0,0,1937013.61108778,1937014.65811115,8,0,64,16,16
9,586,618.580694776028,0,0,1937016.19933393,1937017.2464185,8,0,91,16,8
9,587,520.690127043054,0,0,1937018.9170613,1937019.96415281,8,0,75,16,4
9,588,552.019404945895,1,0,1937021.63479253,1937022.68187287,8,1,82,0,8
9,589,606.782411457971,1,0,1937024.32905538,1937025.37613456,8,1,80,4,8
9,590,490.861811907962,1,0,1937027.14083218,1937028.18797296,8,1,99,16,4
9,591,526.636619120836,1,0,1937029.83503343,1937030.88212032,8,1,72,0,4
9,592,434.374180389568,1,0,1937032.42334309,1937033.47043229,8,1,97,0,8
9,593,705.995705211535,1,1,1937034.96459744,1937036.01169048,8,0,90,16,4
9,594,609.321614028886,0,0,1937037.8352902,1937038.8823563,8,0,64,16,0
9,595,644.117850111797,0,0,1937040.68241605,1937041.72949754,8,0,99,16,16
9,596,583.291708724573,1,0,1937043.5413344,1937044.58840357,8,1,77,8,16
9,597,637.697471305728,1,0,1937046.31791422,1937047.3649653,8,1,81,8,4
9,598,476.509697269648,1,0,1937049.16501389,1937050.21210231,8,1,86,8,16
9,599,441.87091011554,1,0,1937051.83572521,1937052.88277976,8,1,85,8,0
9,600,468.557943822816,0,0,1937054.48283034,1937055.52990568,8,0,82,8,4
9,601,675.420180661604,0,0,1937057.02407737,1937058.07117619,8,0,100,4,4
9,602,437.060822965577,0,0,1937059.91827739,1937060.96536428,8,0,63,0,0
9,603,627.998379990458,0,0,1937062.518353,1937063.56542872,8,0,99,8,8
9,604,397.499924758449,1,0,1937065.38902382,1937066.4361161,8,1,85,4,0
9,605,490.048004314303,1,0,1937067.97733695,1937069.02442845,8,1,76,16,4
9,606,909.881424158812,1,0,1937070.68330146,1937071.73039027,8,1,80,8,4
9,607,510.572198079899,0,0,1937073.67162367,1937074.71871517,8,0,96,0,0
9,608,596.418877365068,0,0,1937076.36581876,1937077.41290642,8,0,79,0,4
9,609,433.837929507717,1,0,1937079.04824984,1937080.0953502,8,1,66,16,0
9,610,457.82138267532,1,0,1937081.6483316,1937082.69542118,8,1,73,8,16
9,611,452.436933526769,0,0,1937084.23664665,1937085.28372969,8,0,77,16,8
9,612,609.573378460482,0,0,1937086.74260161,1937087.78968118,8,0,81,4,0
9,613,574.538851156831,1,0,1937089.54269023,1937090.58977288,8,1,66,0,16
9,614,419.391884701326,1,0,1937092.18982269,1937093.23691304,8,1,75,0,4
9,615,467.043507378548,0,0,1937094.68401748,1937095.73110283,8,0,82,4,8
9,616,569.343033013865,1,0,1937097.2958548,1937098.34293899,8,1,71,16,16
9,617,411.105984821916,0,0,1937100.00182124,1937101.04889234,8,0,72,0,4
9,618,429.494415177032,1,0,1937102.67248713,1937103.71957094,8,1,71,4,4
9,619,487.436429131776,0,0,1937105.22550665,1937106.27259084,8,0,75,0,8
9,620,550.88069033809,1,0,1937107.90793195,1937108.95505002,8,1,89,8,4
9,621,520.577718270943,0,0,1937110.68448906,1937111.73157749,8,0,81,4,16
9,622,409.380589844659,1,0,1937113.33162268,1937114.3787215,8,1,97,16,16
9,623,564.442865084857,1,0,1937115.89620785,1937116.94349157,8,1,74,16,8
9,624,500.036586541682,0,0,1937118.68472235,1937119.73181578,8,0,86,8,0
9,625,541.824483778328,1,0,1937121.27304856,1937122.32012159,8,1,83,16,16
9,626,626.214085845277,0,0,1937124.00253495,1937125.04961722,8,0,64,8,16
9,627,722.566349664703,1,0,1937126.82614084,1937127.87323273,8,1,100,4,4
9,628,614.157493459061,0,0,1937129.70858223,1937130.75567104,8,0,99,4,8
9,629,389.72563832067,0,0,1937132.49694262,1937133.54404414,8,0,77,8,8
9,630,477.106387028471,1,0,1937135.0734463,1937136.12053627,8,1,74,4,16
9,631,423.038234934211,1,0,1937137.61469949,1937138.66179138,8,1,76,8,16
9,632,407.981641823426,0,0,1937140.12065368,1937141.16774865,8,0,76,0,8
9,633,451.770951040089,0,0,1937142.72073237,1937143.76781617,8,0,87,4,8
9,634,368.771058041602,1,0,1937145.37965387,1937146.42677194,8,1,86,4,0
9,635,494.560131803155,1,1,1937147.96793851,1937149.01503271,8,0,93,8,8
9,636,389.129333663732,1,0,1937150.54448299,1937151.59159298,8,1,95,4,4
9,637,430.836773943156,0,0,1937153.03867971,1937154.08583589,8,0,99,4,8
9,638,376.66198797524,1,0,1937155.5328745,1937156.57995291,8,1,85,4,16
9,639,645.333941793069,1,0,1937158.12118916,1937159.16827912,8,1,83,0,0
9,640,547.545003704727,1,0,1937160.99186191,1937162.03894803,8,1,81,0,8
9,641,681.184586370364,1,0,1937170.29801867,1937171.3451044,9,1,99,4,16
9,642,554.247943917289,0,0,1937173.19221561,1937174.23931944,9,0,62,4,4
9,643,408.471312141046,1,0,1937175.92171856,1937176.96880275,9,1,97,16,16
9,644,464.210579637438,1,0,1937178.40413855,1937179.45122928,9,1,80,0,0
9,645,689.93243901059,0,0,1937181.0512814,1937182.09843681,9,0,90,16,4
9,646,437.822275562212,0,1,1937183.95725045,1937185.00433965,9,1,80,4,8
9,647,725.885098334402,0,0,1937186.46320811,1937187.51029808,9,0,99,8,0
9,648,599.515503272414,1,0,1937189.25151731,1937190.29860843,9,1,70,0,0
9,649,586.019157199189,0,0,1937191.96924584,1937193.01634466,9,0,73,4,8
9,650,670.438016299158,0,0,1937194.69874147,1937195.74582335,9,0,98,16,16
9,651,466.998851858079,0,0,1937197.48706106,1937198.53415257,9,0,82,0,4
9,652,490.163492737338,1,0,1937200.05183806,1937201.09892995,9,1,96,8,8
9,653,633.303911890835,1,0,1937202.60486066,1937203.65194061,9,1,73,4,0
9,654,496.489171404392,1,0,1937205.33434859,1937206.38143778,9,1,78,8,16
9,655,382.783637149259,0,0,1937208.05207558,1937209.09917786,9,0,98,0,0
9,656,515.151693485677,0,0,1937210.56988233,1937211.61691455,9,0,79,16,0
9,657,478.963823290542,0,0,1937213.21693088,1937214.26402815,9,0,98,4,0
9,658,451.230465900153,0,0,1937215.88760755,1937216.93469213,9,0,74,16,4
9,659,448.712821351364,1,0,1937218.5700317,1937219.61713283,9,1,76,4,4
9,660,483.94059878774,1,0,1937221.1818771,1937222.22902943,9,1,87,8,16
9,661,438.507506158203,0,0,1937223.817239,1937224.86433166,9,0,64,4,8
9,662,567.764308070764,1,0,1937226.42913676,1937227.47617899,9,1,87,8,4
9,663,508.597348351032,1,0,1937229.18211308,1937230.22920497,9,1,79,0,4
9,664,488.726818468422,1,0,1937231.84102266,1937232.88810377,9,1,78,16,8
9,665,459.937128005549,0,0,1937234.45286459,1937235.49995494,9,0,73,16,8
9,666,430.128060979769,0,0,1937237.01763928,1937238.06472809,9,0,63,0,16
9,667,646.530015626922,1,0,1937239.59418877,1937240.64127642,9,1,81,16,0
9,668,399.760415544733,1,0,1937242.46486575,1937243.51194802,9,1,74,4,4
9,669,574.786766199395,1,0,1937245.06493443,1937246.11202362,9,1,77,16,16
9,670,490.690504200757,1,0,1937247.86502613,1937248.91211917,9,1,81,8,16
9,671,788.03897020407,1,0,1937250.50039495,1937251.54748761,9,1,69,0,8
9,672,588.581072399393,0,0,1937253.52401539,1937254.57109419,9,0,68,8,8
9,673,563.309924909845,1,0,1937256.27703753,1937257.32412518,9,1,92,8,4
9,674,470.107026631013,1,1,1937258.91240982,1937259.95949709,9,0,99,8,16
9,675,652.145056053996,1,0,1937261.63013758,1937262.67722793,9,1,67,0,16
9,676,619.866079650819,0,0,1937264.51257935,1937265.5596878,9,0,82,8,4
9,677,464.105870341882,0,0,1937267.3361914,1937268.38328791,9,0,97,0,4
9,678,469.782119616866,0,0,1937269.87743804,1937270.92457112,9,0,69,16,8
9,679,417.298851767555,1,0,1937272.45398329,1937273.50107749,9,1,76,0,16
9,680,495.351611636579,0,1,1937275.00700627,1937276.05409085,9,1,80,4,16
9,681,467.43462770246,0,0,1937277.57178674,1937278.61886246,9,0,83,16,0
9,682,494.317606557161,1,0,1937280.16010024,1937281.20718328,9,1,81,4,16
9,683,531.11063526012,0,0,1937282.85429188,1937283.90143035,9,0,77,8,0
9,684,440.571666928008,1,0,1937285.59554884,1937286.6426388,9,1,77,4,16
9,685,492.644181242213,1,0,1937288.10152882,1937289.14859954,9,1,84,16,16
9,686,499.642001464963,1,0,1937290.80749487,1937291.85456173,9,1,97,4,8
9,687,517.232407815754,1,0,1937293.44284445,1937294.48992941,9,1,73,8,8
9,688,591.100641759112,0,1,1937296.13703762,1937297.18412681,9,1,72,8,4
9,689,590.202527819201,0,0,1937298.84300059,1937299.89008632,9,0,90,8,0
9,690,486.236121039838,0,0,1937301.60780869,1937302.65487093,9,0,73,4,0
9,691,442.286283010617,1,0,1937304.16080549,1937305.20789353,9,1,73,0,8
9,692,561.216122237965,0,0,1937306.71382232,1937307.76090843,9,0,90,0,16
9,693,484.732078388333,1,0,1937309.49038058,1937310.53745669,9,1,71,0,4
9,694,456.453616265208,0,0,1937312.18456682,1937313.2316641,9,0,69,4,8
9,695,629.228715319186,0,0,1937314.878765,1937315.92586074,9,0,74,8,8
9,696,595.385257154703,1,0,1937317.7023832,1937318.74947086,9,1,62,0,4
9,697,658.843762008473,0,0,1937320.43187498,1937321.4789611,9,0,87,4,0
9,698,454.381371382624,1,0,1937323.30255004,1937324.34963616,9,1,94,0,0
9,699,550.627001328394,0,0,1937325.98502346,1937327.03213075,9,0,62,16,4
9,700,613.978486740962,0,0,1937328.69094101,1937329.73803713,9,0,89,0,0
9,701,541.839882265776,0,0,1937331.39690705,1937332.44400433,9,0,90,8,4
9,702,480.031320359558,1,0,1937334.11463982,1937335.16172632,9,1,73,16,16
9,703,493.304004194215,0,0,1937336.73824039,1937337.78532843,9,0,86,4,4
9,704,488.530103350058,0,0,1937339.49126253,1937340.53835095,9,0,98,4,4
9,705,645.468678092584,1,0,1937342.04427973,1937343.09137239,9,1,68,8,8
9,706,614.109373418614,0,0,1937344.84436681,1937345.89145639,9,0,88,16,0
9,707,593.905852176249,0,0,1937347.67980486,1937348.72683669,9,0,65,16,4
9,708,512.993217678741,1,0,1937350.38577244,1937351.43278965,9,1,84,8,0
9,709,559.190072817728,0,0,1937353.05637521,1937354.10344977,9,0,70,16,8
9,710,624.62843162939,0,0,1937355.84473714,1937356.89183327,9,0,74,4,16
9,711,591.622648760676,1,0,1937358.69182988,1937359.73892678,9,1,82,0,16
9,712,602.470078738406,1,0,1937361.43309146,1937362.48017411,9,1,79,4,0
9,713,518.547049257904,1,0,1937364.19788262,1937365.24495873,9,1,95,0,8
9,714,682.343703694642,0,0,1937366.93913265,1937367.98622416,9,0,91,16,8
9,715,684.087961912155,0,0,1937369.73920703,1937370.78630816,9,0,89,16,0
9,716,708.975687855855,1,0,1937372.63342322,1937373.68050741,9,1,97,8,0
9,717,537.790092872456,0,0,1937375.43353955,1937376.48062759,9,0,77,16,4
9,718,470.724119106308,1,0,1937378.13950907,1937379.18661482,9,1,94,0,8
9,719,434.117411496118,0,0,1937380.76307345,1937381.81015995,9,0,96,0,8
9,720,411.901699379086,0,0,1937383.39845691,1937384.4455692,9,0,93,8,16
