sub_id,Trial,RT,Resp,Error,Fix_onset,Disp_onset,block,tid,tloc,fish_setsize,bird_setsize
27,1,440.517758950591,0,0,605408.247455167,605409.294489494,1,0,66,4,0
27,2,534.881677827798,0,0,605410.765049491,605411.812084972,1,0,78,16,4
27,3,462.120311451145,1,0,605413.423809157,605414.470844639,1,1,75,4,8
27,4,412.31964493636,1,0,605416.094338281,605417.141366832,1,1,76,4,0
27,5,437.761042849161,1,0,605418.753094097,605419.800121879,1,1,78,8,16
27,6,545.017353957519,0,1,605421.270679567,605422.317713893,1,1,61,8,0
27,7,765.698999282904,1,0,605424.000025562,605425.047055653,1,1,70,8,0
27,8,668.428228935227,1,0,605426.882293653,605427.929342608,1,1,99,4,16
27,9,630.595659837127,1,0,605429.635183181,605430.682214042,1,1,91,4,4
27,10,469.015373615548,0,0,605432.41158506,605433.458625161,1,0,77,8,4
27,11,594.033467001282,0,0,605434.999760323,605436.046798114,1,0,99,4,8
27,12,534.58525671158,1,0,605437.834981383,605438.882022254,1,1,90,0,8
27,13,666.238947538659,1,0,605440.458450003,605441.505480864,1,1,94,16,0
27,14,399.467288865708,1,0,605443.317209977,605444.364244303,1,1,78,8,8
27,15,436.168453306891,0,0,605445.846560284,605446.893588451,1,0,86,4,4
27,16,577.543600695208,1,0,605448.364145368,605449.411177,1,1,68,16,8
27,17,407.119572279044,0,0,605451.046432399,605452.093470575,1,0,66,0,4
27,18,567.340941051953,0,0,605453.705196685,605454.752227547,1,0,99,0,0
27,19,642.621886683628,1,0,605456.375725808,605457.422802866,1,1,86,4,16
27,20,637.474553775974,0,0,605459.199176257,605460.246211354,1,0,91,8,16
27,21,617.756392457522,0,0,605461.963814839,605463.010849166,1,0,83,16,16
27,22,698.486481560394,1,0,605464.693160834,605465.740196701,1,1,68,16,8
27,23,423.027760232799,0,0,605467.481336405,605468.528366112,1,0,67,4,8
27,24,702.418872853741,1,0,605470.045977374,605471.09301016,1,1,62,4,0
27,25,410.132288350724,0,0,605472.928260093,605473.975294034,1,0,93,4,4
27,26,601.301942835562,1,0,605475.43408111,605476.481112742,1,1,70,16,16
27,27,570.92879107222,1,0,605478.163433265,605479.210465281,1,1,70,16,4
27,28,588.302531046793,1,0,605480.975125036,605482.022153203,1,1,79,16,0
27,29,703.725050436333,1,0,605483.751526145,605484.798569711,1,1,76,8,16
27,30,529.075674246997,0,0,605486.657342004,605487.704368246,1,0,90,0,8
27,31,542.982827406377,0,0,605489.351388868,605490.398426274,1,0,64,0,16
27,32,601.735025644302,0,0,605492.092510094,605493.139585226,1,0,94,0,0
27,33,625.655052019283,0,0,605494.833613997,605495.880653713,1,0,90,8,8
27,34,868.555959430523,1,0,605497.668841602,605498.715890557,1,1,91,0,16
27,35,551.417354494333,1,0,605500.621712575,605501.668735737,1,1,97,8,0
27,36,388.814993086271,0,1,605503.280476861,605504.327501178,1,1,93,16,4
27,37,547.83027456142,1,0,605505.786286714,605506.833337209,1,1,76,8,8
27,38,553.989288629964,0,0,605508.539174702,605509.586195555,1,0,94,8,4
27,39,391.677958657965,1,0,605511.162631388,605512.209668024,1,1,75,0,0
27,40,575.957170454785,1,0,605513.774343254,605514.821370651,1,1,72,8,4
27,41,479.823579313233,1,0,605516.515447157,605517.562475709,1,1,93,16,8
27,42,632.768003037199,0,0,605519.162440061,605520.209472848,1,0,83,0,4
27,43,423.587110708468,0,0,605522.009426345,605523.056464136,1,0,85,0,4
27,44,519.587504910305,0,0,605524.597602377,605525.644633624,1,0,69,0,4
27,45,515.546169131994,0,0,605527.244599131,605528.291616519,1,0,61,4,0
27,46,479.460174683481,1,0,605529.891585106,605530.938634061,1,1,84,0,16
27,47,477.942652767524,1,0,605532.562178903,605533.609145861,1,1,73,8,0
27,48,566.984465927817,0,0,605535.114994595,605536.162029692,1,0,61,0,16
27,49,507.480051135644,1,0,605537.832588457,605538.879610464,1,1,75,0,16
27,50,721.399061148986,0,0,605540.467806515,605541.514843151,1,0,80,0,0
27,51,631.837163819,0,0,605543.291282757,605544.33829899,1,0,98,8,4
27,52,547.444927156903,0,0,605546.126492654,605547.173530829,1,0,100,16,16
27,53,480.590809485875,0,0,605548.832319753,605549.879339836,1,0,66,0,8
27,54,586.67413983494,0,0,605551.38523823,605552.432241375,1,0,72,8,16
27,55,493.448555003852,0,0,605554.067478681,605555.114512622,1,0,85,4,4
27,56,390.724021708593,0,1,605556.632142362,605557.679207101,1,1,95,16,0
27,57,494.283538544551,0,0,605559.208535464,605560.255565171,1,0,76,16,8
27,58,468.827127013355,0,0,605561.879063048,605562.926092755,1,0,63,4,4
27,59,702.680647256784,0,0,605564.573181515,605565.620141158,1,0,90,8,4
27,60,591.752949403599,1,0,605567.373051474,605568.420126992,1,1,74,16,16
27,61,620.541210751981,1,0,605570.208265606,605571.255300702,1,1,93,16,0
27,62,627.679954399355,0,0,605572.961156289,605574.008182916,1,0,91,0,8
27,63,617.185493232682,1,0,605575.725777932,605576.772805329,1,1,61,16,4
27,64,545.958202099428,1,0,605578.419830955,605579.466929956,1,1,73,16,16
27,65,607.056361390278,0,0,605581.12565459,605582.172682372,1,0,68,8,8
27,66,636.643034988083,1,0,605583.855048321,605584.902049155,1,1,96,8,8
27,67,754.045416135341,1,0,605586.560817291,605587.607844303,1,1,64,0,8
27,68,610.320073086768,0,0,605589.572505906,605590.619536767,1,0,85,4,8
27,69,844.080432434566,1,0,605592.266563548,605593.313586326,1,1,98,4,0
27,70,848.384697455913,0,0,605595.278249468,605596.325279945,1,0,87,0,0
27,71,578.802427859046,0,0,605598.195835168,605599.24286757,1,0,82,4,8
27,72,458.068966749124,1,0,605600.901643405,605601.948673881,1,1,66,4,16
27,73,546.171856345609,0,1,605603.454531085,605604.501550783,1,1,72,8,16
27,74,637.815245660022,1,1,605606.242690872,605607.289801036,1,0,85,16,4
27,75,663.610808900557,0,0,605609.077916938,605610.124952419,1,0,90,0,4
27,76,542.527031851932,0,0,605611.92491092,605612.971935622,1,0,67,4,16
27,77,567.621193709783,1,0,605614.677844334,605615.724846708,1,1,68,16,0
27,78,514.668069896288,0,0,605617.313007342,605618.360040514,1,0,77,16,8
27,79,507.167461677454,1,0,605619.995305922,605621.042332934,1,1,67,4,16
27,80,655.728702899069,0,0,605622.665829271,605623.712854358,1,0,63,8,0
27,81,562.864212784916,0,0,605633.959677648,605635.006727373,2,0,63,4,0
27,82,523.836335400119,1,0,605636.665485499,605637.712581035,2,1,81,8,0
27,83,724.45412306115,1,0,605639.394833034,605640.441861586,2,1,98,0,4
27,84,623.300236649811,1,0,605642.324178567,605643.371205579,2,1,62,4,4
27,85,688.910925760865,1,0,605645.159398473,605646.206432415,2,1,100,8,0
27,86,634.953049826436,0,0,605648.053451034,605649.100529631,2,0,69,0,0
27,87,649.50578508433,0,0,605650.935734524,605651.982765386,2,0,71,4,8
27,88,454.772918252274,0,0,605653.735666078,605654.782693475,2,0,88,0,4
27,89,445.215840591118,0,1,605656.406186732,605657.453212974,2,1,71,16,16
27,90,498.442672775127,1,0,605658.923764117,605659.970804218,2,1,61,0,4
27,91,656.727295485325,0,0,605661.535481373,605662.582516854,2,0,78,8,4
27,92,598.47208391875,0,0,605664.417756778,605665.464787254,2,0,88,8,4
27,93,476.222255616449,0,0,605667.252977839,605668.300017554,2,0,65,0,16
27,94,529.697773512453,0,0,605669.829398658,605670.876432214,2,0,69,8,8
27,95,539.615560905077,1,0,605672.523445522,605673.570477538,2,1,87,0,0
27,96,658.620925853029,0,0,605675.123388316,605676.170472303,2,0,82,8,4
27,97,623.637078795582,0,0,605677.958610917,605679.005638699,2,0,87,4,8
27,98,651.753965765238,0,0,605680.758542086,605681.805566788,2,0,61,8,8
27,99,586.622555041686,0,0,605683.511441623,605684.558446307,2,0,71,8,0
27,100,616.316248080693,0,0,605686.193702477,605687.240734108,2,0,98,8,0
27,101,590.598062146455,1,0,605688.99363403,605690.040669896,2,1,69,16,8
27,102,586.430073715746,1,0,605691.640633479,605692.687653562,2,1,79,0,0
27,103,538.362508174032,1,0,605694.42880058,605695.475832982,2,1,89,0,16
27,104,667.435025796294,0,0,605697.040498588,605698.087531375,2,0,79,0,8
27,105,619.718161178753,0,0,605699.946336775,605700.993340304,2,0,69,16,0
27,106,520.907541038468,0,0,605702.805069802,605703.852102973,2,0,65,4,8
27,107,519.782680901699,0,0,605705.393297419,605706.440359848,2,0,94,16,0
27,108,735.849011456594,1,0,605708.146191182,605709.193149286,2,1,71,0,16
27,109,659.51403870713,1,0,605710.98133602,605712.028372271,2,1,75,16,8
27,110,718.541484908201,1,0,605713.875384347,605714.922416363,2,1,80,16,16
27,111,757.607473642565,0,0,605716.769436523,605717.816459685,2,0,86,8,16
27,112,606.740692164749,1,0,605719.675242373,605720.722275544,2,1,89,16,16
27,113,515.048797708005,1,0,605722.345765721,605723.392802357,2,1,86,0,16
27,114,461.800407618284,1,0,605725.07512365,605726.122147582,2,1,75,0,4
27,115,849.355187732726,0,0,605727.745636605,605728.792665157,2,0,67,8,4
27,116,722.533160471357,1,0,605730.710275495,605731.757303277,2,1,86,4,0
27,117,464.834296610206,1,0,605733.674912075,605734.721942936,2,1,69,4,16
27,118,680.231562466361,0,0,605736.333661347,605737.380698753,2,0,66,4,16
27,119,535.996144055389,1,0,605739.168893187,605740.215925204,2,1,90,0,8
27,120,499.577927053906,0,0,605741.898236872,605742.945270814,2,0,66,0,8
27,121,680.926804663613,1,0,605744.462885155,605745.50993796,2,1,69,0,4
27,122,797.553871525452,0,0,605747.345170954,605748.392197966,2,0,95,8,4
27,123,808.439454529434,1,0,605750.239213506,605751.286242058,2,1,83,4,16
27,124,533.076973748393,1,0,605753.109732159,605754.156766485,2,1,75,8,8
27,125,484.706827905029,1,0,605755.886139427,605756.9331649,2,1,84,8,16
27,126,669.806009624153,1,0,605758.45078694,605759.497808178,2,1,78,16,0
27,127,605.126544716768,0,0,605761.309531516,605762.356567382,2,0,77,8,8
27,128,620.868813944981,1,0,605764.038945265,605765.085902983,2,1,96,16,0
27,129,467.241466860287,1,0,605766.815289399,605767.862313717,2,1,75,4,4
27,130,708.910879446194,1,0,605769.438788816,605770.485790805,2,1,69,16,4
27,131,689.69624908641,0,0,605772.37985992,605773.426881543,2,0,63,0,16
27,132,629.768375540152,1,0,605775.273902857,605776.320935259,2,1,91,16,4
27,133,592.597172013484,0,0,605778.026807014,605779.073883686,2,0,71,4,4
27,134,518.853381508961,0,0,605780.862008827,605781.909033529,2,0,73,0,0
27,135,641.405020374805,0,0,605783.509019824,605784.556028358,2,0,80,16,16
27,136,704.812184325419,0,0,605786.214813047,605787.261849683,2,0,97,4,4
27,137,817.406384740025,0,0,605789.097085373,605790.144127783,2,0,91,4,16
27,138,617.23823309876,0,0,605792.038204212,605793.085233149,2,0,94,8,16
27,139,508.907106821425,0,1,605794.814648052,605795.861641572,2,1,91,16,4
27,140,941.722691408359,0,0,605797.449836853,605798.496870409,2,0,86,16,16
27,141,539.270249661058,0,0,605800.626234729,605801.673261356,2,0,75,4,8
27,142,688.41124442406,1,0,605803.237982012,605804.284965523,2,1,98,16,8
27,143,620.597800356336,1,0,605805.990811871,605807.037843117,2,1,73,4,16
27,144,840.870615560561,0,0,605808.708390719,605809.75542774,2,0,89,16,4
27,145,795.257955556735,0,0,605811.625969105,605812.672996887,2,0,76,16,4
27,146,865.597138181329,0,0,605814.637658874,605815.684691661,2,0,94,16,8
27,147,571.038890280761,0,0,605817.602291605,605818.649324776,2,0,68,4,0
27,148,585.189339704812,1,0,605820.3081137,605821.355135322,2,1,63,16,8
27,149,809.952356852591,0,0,605823.049218757,605824.096255778,2,0,69,4,4
27,150,551.519754575565,0,0,605825.966795604,605827.013822616,2,0,74,8,16
27,151,771.834145649336,0,0,605828.684428731,605829.731431491,2,0,68,4,0
27,152,723.470159107819,1,0,605831.507840299,605832.554866541,2,1,73,4,0
27,153,611.057661124505,1,0,605834.331297678,605835.378330079,2,1,90,8,16
27,154,542.041594278999,1,0,605837.131224612,605838.178270487,2,1,99,8,0
27,155,524.807210545987,1,0,605839.766496565,605840.81348893,2,1,100,4,8
27,156,577.955510583706,1,0,605842.531091261,605843.578140601,2,1,67,0,0
27,157,689.138053567149,0,0,605845.178094944,605846.225134275,2,0,90,16,0
27,158,551.252205623314,1,0,605848.036854534,605849.083873461,2,1,68,8,8
27,159,617.811057250947,1,0,605850.813312232,605851.860288044,2,1,79,0,8
27,160,482.944854767993,1,0,605853.519075813,605854.56610629,2,1,97,0,8
27,161,437.590889516287,1,0,605861.895361973,605862.942364732,3,1,77,8,16
27,162,400.307661853731,0,0,605864.518806724,605865.565824882,3,0,66,0,0
27,163,351.320035988465,1,0,605867.165799244,605868.212836265,3,1,68,0,8
27,164,525.590609177016,1,0,605869.577507338,605870.624537429,3,1,97,16,0
27,165,429.647574434057,0,0,605872.283323273,605873.330356445,3,0,61,0,0
27,166,598.437822191045,0,0,605874.824439187,605875.871464274,3,0,62,4,0
27,167,449.575925129466,1,0,605877.577316781,605878.624397688,3,1,66,8,8
27,168,516.083576716483,0,0,605880.094899941,605881.141933112,3,0,68,4,8
27,169,900.592149118893,1,0,605882.765425599,605883.812449917,3,1,62,16,4
27,170,660.358646186069,1,0,605885.859469614,605886.906497396,3,1,87,8,16
27,171,558.63386054989,0,0,605888.765280468,605889.81230902,3,0,99,8,4
27,172,466.560853179544,1,0,605891.565208942,605892.612242884,3,1,98,0,16
27,173,511.085224454291,0,0,605894.129879938,605895.176896941,3,0,73,0,8
27,174,601.562562398613,0,0,605896.706263416,605897.753293508,3,0,96,4,16
27,175,434.751791413873,1,0,605899.459137161,605900.506163018,3,1,77,0,0
27,176,488.772416254506,1,0,605901.964993979,605903.011998279,3,1,86,4,4
27,177,479.264613706619,1,0,605904.68254126,605905.729574432,3,1,64,0,4
27,178,420.719910413027,0,0,605907.258953226,605908.306038752,3,0,82,16,4
27,179,556.376055814326,0,0,605909.92946772,605910.976506281,3,0,69,0,4
27,180,473.23109745048,0,0,605912.623526903,605913.670552375,3,0,96,4,0
27,181,491.847881232388,0,0,605915.305923648,605916.352847105,3,0,87,4,16
27,182,580.665646120906,1,0,605918.046931696,605919.093960247,3,1,89,0,16
27,183,553.917685640045,0,0,605920.799795816,605921.846882112,3,0,76,16,4
27,184,379.839208791964,0,0,605923.446854549,605924.493863083,3,0,86,0,16
27,185,414.97819556389,0,1,605925.940893406,605926.987888081,3,1,94,8,16
27,186,428.511550300755,0,0,605928.529027092,605929.576056414,3,0,96,8,0
27,187,523.883685818873,1,0,605931.093665366,605932.140698153,3,1,75,4,4
27,188,404.128029127605,0,0,605933.740658656,605934.787685668,3,0,65,4,16
27,189,647.222957806662,1,0,605936.281778804,605937.32881621,3,1,80,8,0
27,190,773.769736872055,0,0,605939.069936281,605940.116974457,3,0,90,16,0
27,191,453.113345080055,0,0,605942.034584025,605943.081606033,3,0,76,4,0
27,192,417.159392731264,0,0,605944.68157,605945.728597782,3,0,97,8,4
27,193,421.20573297143,1,1,605947.187396407,605948.234424574,3,0,77,8,8
27,194,556.235159514472,0,0,605949.740267534,605950.78730032,3,0,61,4,8
27,195,480.035308632068,1,0,605952.422563804,605953.469663959,3,1,87,8,8
27,196,455.396942328662,1,0,605955.093084073,605956.14011301,3,1,66,8,0
27,197,606.458514812402,1,0,605957.598926263,605958.645934412,3,1,70,8,16
27,198,648.292768397368,1,0,605960.43413539,605961.481158167,3,1,82,16,0
27,199,460.615108138882,1,0,605963.198771662,605964.245793285,3,1,100,4,4
27,200,689.539954299107,0,0,605965.739888731,605966.786918822,3,0,69,16,16
27,201,664.247536798939,0,0,605968.528098948,605969.575084384,3,0,78,4,8
27,202,629.505446297117,0,0,605971.37504404,605972.422071052,3,0,81,16,4
27,203,712.104912847281,1,0,605974.116156027,605975.163179189,3,1,94,8,8
27,204,665.563338436186,0,0,605976.986670445,605978.033708236,3,0,97,8,4
27,205,845.388919697143,1,0,605979.774837161,605980.821872257,3,1,71,0,16
27,206,458.761514048092,1,0,605982.833661347,605983.880625225,3,1,67,0,4
27,207,512.021068134345,0,1,605985.539474203,605986.586440006,3,1,83,16,16
27,208,546.703104395419,1,0,605988.221694636,605989.268730117,3,1,74,16,16
27,209,609.70644291956,1,0,605990.86868831,605991.915725331,3,1,84,16,16
27,210,528.104029013775,1,0,605993.645093269,605994.69212644,3,1,78,4,0
27,211,493.934762664139,1,0,605996.280329035,605997.327413022,3,1,67,8,4
27,212,555.225788033567,0,0,605998.892025888,605999.939055595,3,0,88,0,4
27,213,545.264114858583,1,0,606001.597841054,606002.644872685,3,1,89,16,8
27,214,655.394555535167,0,0,606004.291893307,606005.338921474,3,0,72,4,8
27,215,579.223961802199,1,0,606007.080063873,606008.12709435,3,1,97,16,8
27,216,606.920469785109,1,0,606009.809464533,606010.856439575,3,1,81,4,0
27,217,843.056432204321,1,0,606012.574051915,606013.621079312,3,1,71,4,4
27,218,599.725906620733,0,0,606015.550444478,606016.597491123,3,0,99,4,16
27,219,671.627266914584,1,0,606018.397431531,606019.444462392,3,1,62,16,8
27,220,399.5619895868,0,0,606021.232656056,606022.279697697,3,0,65,16,4
27,221,405.123541946523,0,0,606023.820833244,606024.86786372,3,0,79,0,16
27,222,528.458194457926,1,0,606026.479585211,606027.526622617,3,1,84,0,4
27,223,561.185391619802,1,0,606029.267766171,606030.314792028,3,1,89,0,0
27,224,544.946520822123,1,0,606032.04422079,606033.091210846,3,1,73,0,0
27,225,622.921433649026,0,0,606034.691194446,606035.738194126,3,0,80,16,8
27,226,678.954257047735,0,0,606037.397010767,606038.444011216,3,0,88,4,4
27,227,633.693452691659,1,0,606040.232265704,606041.279283477,3,1,89,4,16
27,228,594.513130141422,0,0,606042.961546641,606044.008579427,3,0,90,0,8
27,229,601.354297716171,1,0,606045.76147165,606046.808505591,3,1,85,16,0
27,230,791.459146072157,0,0,606048.514352324,606049.561389345,3,0,70,16,0
27,231,525.831210776232,0,0,606051.514288035,606052.561307733,3,0,74,0,8
27,232,764.947167597711,0,0,606054.173076574,606055.220072019,3,0,72,8,0
27,233,690.480032586493,0,0,606057.102387845,606058.149406388,3,0,90,8,4
27,234,609.287988743745,0,0,606059.937641628,606060.984641308,3,0,97,8,16
27,235,748.504266724922,1,0,606062.643421377,606063.690459553,3,1,74,8,0
27,236,541.367140016519,0,0,606065.490408045,606066.537443526,3,0,79,16,16
27,237,613.311231252737,0,0,606068.278583231,606069.325617172,3,0,73,4,8
27,238,846.228907699697,0,0,606071.066751487,606072.113783888,3,0,98,16,8
27,239,644.624846288934,1,0,606074.043148285,606075.090179531,3,1,89,8,8
27,240,578.218054957688,1,0,606076.772491585,606077.819528606,3,1,74,0,8
27,241,504.601686960086,1,0,606084.125258079,606085.172288941,4,1,82,4,16
27,242,510.427708504722,1,1,606086.866361212,606087.913401698,4,0,72,8,16
27,243,602.618129458278,1,0,606089.583941985,606090.630975156,4,1,70,4,4
27,244,454.139654990286,0,0,606092.301530072,606093.348561318,4,0,89,0,0
27,245,573.341350653209,0,0,606094.960287044,606096.007313671,4,0,77,16,0
27,246,665.966009139083,0,0,606097.689628419,606098.736665055,4,0,94,4,0
27,247,540.21956701763,1,0,606100.595450052,606101.64247283,4,1,76,16,4
27,248,501.065421849489,1,0,606103.289496916,606104.336532782,4,1,100,16,0
27,249,557.58984235581,1,0,606105.865906186,606106.912934738,4,1,99,0,4
27,250,420.263729989529,1,0,606108.642310375,606109.689340082,4,1,75,0,0
27,251,439.799804007635,0,0,606111.112837266,606112.159868127,4,0,66,0,16
27,252,481.911615584977,1,0,606113.712831645,606114.759806687,4,1,87,0,4
27,253,496.127893682569,1,0,606116.277413715,606117.32445497,4,1,98,4,16
27,254,533.856907859445,1,0,606118.912684898,606119.959688042,4,1,98,16,4
27,255,531.419325503521,0,0,606121.536112711,606122.583150117,4,0,82,16,8
27,256,588.771415292285,1,0,606124.30077901,606125.347782924,4,1,61,8,8
27,257,560.06630579941,0,0,606127.065397189,606128.112423816,4,0,92,0,16
27,258,875.25507598184,1,0,606129.865328743,606130.91235537,4,1,98,8,4
27,259,519.403877784498,1,0,606132.829963783,606133.87698887,4,1,80,4,8
27,260,671.613408252597,1,0,606135.488716135,606136.535749691,4,1,97,16,4
27,261,550.335610052571,0,0,606138.323938736,606139.370972292,4,0,89,8,0
27,262,479.079061886296,0,0,606141.006234621,606142.053266253,4,0,98,4,0
27,263,473.189906449988,1,0,606143.712052866,606144.759078339,4,1,68,16,16
27,264,543.686923803762,1,0,606146.335516096,606147.382551577,4,1,80,4,8
27,265,580.248346785083,0,0,606148.947211794,606149.99424766,4,0,71,4,16
27,266,593.856384279206,0,0,606151.723615983,606152.770648,4,0,76,0,16
27,267,602.940342971124,1,0,606154.382378344,606155.429458481,4,1,82,16,8
27,268,538.157323258929,0,0,606157.0881989,606158.135231301,4,0,100,0,4
27,269,468.74897973612,1,0,606159.876429905,606160.923439593,4,1,97,8,8
27,270,455.027378280647,0,0,606162.429237898,606163.476273764,4,0,86,8,4
27,271,582.06921920646,1,0,606164.982122498,606166.02915182,4,1,89,8,4
27,272,644.389634137042,1,0,606167.734997013,606168.782030569,4,1,62,8,8
27,273,585.713273612782,1,0,606170.558495967,606171.605498342,4,1,93,4,4
27,274,620.018046814948,0,0,606173.26434501,606174.311359318,4,0,81,16,16
27,275,566.257656784728,1,0,606175.934822933,606176.981827617,4,1,66,16,4
27,276,497.928747907281,0,0,606178.605322029,606179.652362515,4,0,73,0,8
27,277,592.624119366519,0,0,606181.252321093,606182.299414703,4,0,74,0,16
27,278,619.319339981303,0,0,606184.028716043,606185.075755758,4,0,89,8,16
27,279,418.411290622316,0,0,606186.781596717,606187.828626808,4,0,82,0,8
27,280,501.346829463728,0,1,606189.416821319,606190.46385988,4,1,64,4,8
27,281,555.313559365459,0,0,606192.169696604,606193.216727465,4,0,73,16,16
27,282,676.636013318785,1,0,606194.875515234,606195.92254725,4,1,95,4,4
27,283,491.390545852482,1,0,606197.710744379,606198.757767156,4,1,67,16,0
27,284,643.707865732722,0,0,606200.381272732,606201.428315913,4,0,95,8,0
27,285,490.556717151776,0,0,606203.169432519,606204.216457607,4,0,84,0,0
27,286,585.481141228229,1,0,606205.769368769,606206.816400401,4,1,70,16,8
27,287,437.913103029132,1,0,606208.58106824,606209.628141063,4,1,74,0,4
27,288,404.986495384946,1,0,606211.181004105,606212.22810503,4,1,64,8,8
27,289,561.381722451188,0,0,606213.651532151,606214.698556853,4,0,100,4,4
27,290,567.407154594548,0,0,606216.345592873,606217.392632589,4,0,92,8,16
27,291,384.37753089238,0,1,606219.039635887,606220.086670984,4,1,72,8,4
27,292,499.087099917233,1,0,606221.521924535,606222.568955397,4,1,74,4,16
27,293,618.531706859358,1,0,606224.145398929,606225.192431331,4,1,90,4,8
27,294,549.458280671388,0,0,606226.945325863,606227.992359035,4,0,96,16,16
27,295,473.265744047239,0,0,606229.674672243,606230.721702335,4,0,76,8,0
27,296,423.96244907286,0,0,606232.262844041,606233.309875288,4,0,67,0,0
27,297,380.55215915665,0,0,606234.792197042,606235.839228289,4,0,65,0,4
27,298,614.70787494909,0,0,606237.298088893,606238.345051231,4,0,70,4,0
27,299,448.059943155386,0,0,606240.10971753,606241.156747237,4,0,68,0,16
27,300,615.38232921157,1,0,606242.768470652,606243.815508058,4,1,84,0,8
27,301,606.387681677006,0,0,606245.521347862,606246.568380263,4,0,73,8,4
27,302,800.866473349743,1,0,606248.29775205,606249.344784452,4,1,64,4,0
27,303,651.308179250918,1,0,606251.168278017,606252.215309264,4,1,100,16,0
27,304,706.181880785152,1,0,606253.897612848,606254.944649484,4,1,93,16,0
27,305,598.968685488217,1,0,606256.7328751,606257.779869775,4,1,91,16,8
27,306,526.107228826731,1,0,606259.450416607,606260.497449393,4,1,74,0,8
27,307,963.100425782613,0,0,606262.038594179,606263.085625041,4,0,72,16,16
27,308,570.166180375963,1,0,606265.191454681,606266.238488622,4,1,96,0,8
27,309,455.927035654895,0,0,606267.873787522,606268.920782583,4,0,94,8,16
27,310,530.47193295788,0,0,606270.403098948,606271.45012904,4,0,65,4,4
27,311,1115.93321047258,0,0,606273.16773445,606274.214769931,4,0,98,8,8
27,312,501.523142214864,0,0,606276.344178136,606277.391176276,4,0,74,4,16
27,313,594.905791804194,0,0,606278.908780609,606279.955837648,4,0,78,8,16
27,314,543.938304297626,0,0,606281.708714087,606282.755743024,4,0,74,4,0
27,315,644.20369733125,0,0,606284.379225502,606285.426262138,4,0,95,8,0
27,316,636.851684539579,1,0,606287.202822237,606288.249728371,4,1,100,16,4
27,317,646.266711060889,0,0,606290.014389665,606291.061422837,4,0,84,16,8
27,318,538.958430057392,0,0,606292.908441072,606293.955472318,4,0,74,4,8
27,319,510.598631808534,1,0,606295.637785527,606296.684806379,4,1,72,0,0
27,320,612.823868752457,1,0,606298.284771117,606299.331801209,4,1,81,8,0
27,321,519.199847709388,0,0,606305.755186753,606306.802212225,5,0,84,4,4
27,322,701.989639666863,1,0,606308.343360091,606309.390391723,5,1,67,8,8
27,323,392.211901722476,0,0,606311.202116216,606312.249139378,5,0,77,0,4
27,324,490.787694579922,0,0,606313.731465367,606314.778495844,5,0,73,16,4
27,325,591.077725286596,1,0,606316.437277838,606317.48430562,5,1,79,4,8
27,326,570.650848210789,0,0,606319.272512758,606320.319542465,5,0,91,0,0
27,327,546.852469909936,0,0,606321.966554617,606323.013585479,5,0,71,16,8
27,328,472.886940930039,0,0,606324.766613208,606325.813562458,5,0,82,0,8
27,329,461.707631708123,0,0,606327.366422806,606328.413464447,5,0,68,8,0
27,330,586.21641958598,1,0,606329.931068009,606330.978091172,5,1,72,8,4
27,331,523.549153353088,1,1,606332.601595977,606333.648621065,5,0,77,16,8
27,332,728.368806187063,1,0,606335.236844448,606336.283847977,5,1,72,16,4
27,333,655.290615628473,0,0,606338.07204703,606339.119077892,5,0,93,0,8
27,334,482.378190034069,0,0,606340.883741881,606341.930778517,5,0,65,4,0
27,335,530.628227745183,0,0,606343.542501548,606344.589531254,5,0,73,4,16
27,336,575.861699879169,1,0,606346.307154758,606347.354166372,5,1,89,16,16
27,337,506.46798487287,1,0,606349.071777942,606350.118814578,5,1,75,4,8
27,338,774.246320477687,1,1,606351.718762762,606352.765801323,5,0,79,8,8
27,339,654.657737468369,1,0,606354.577522736,606355.624563607,5,1,88,0,4
27,340,494.159580557607,0,0,606357.30687874,606358.353911142,5,0,87,8,0
27,341,406.572925508954,0,0,606359.918579443,606360.965607994,5,0,75,0,4
27,342,674.500626511872,1,0,606362.471455574,606363.5184899,5,1,82,4,4
27,343,613.969131954946,0,0,606365.330218628,606366.377246795,5,0,98,16,4
27,344,994.875225820579,0,0,606368.177206451,606369.224238467,5,0,63,16,4
27,345,605.361371766776,1,0,606371.259511036,606372.306532659,5,1,62,4,0
27,346,725.399205926806,0,0,606373.953528643,606375.000564124,5,0,96,16,0
27,347,498.20245616138,1,0,606376.835820986,606377.882852233,5,1,85,4,0
27,348,854.25152501557,1,0,606379.482807347,606380.529837438,5,1,80,16,4
27,349,491.574557847343,0,0,606382.553323227,606383.600354859,5,0,75,8,16
27,350,800.271321320906,1,0,606385.188550909,606386.235580231,5,1,90,8,16
27,351,608.417203649879,0,0,606388.188481231,606389.235514402,5,0,92,16,0
27,352,558.510287548415,0,0,606390.988402391,606392.035440952,5,0,76,4,16
27,353,1086.5263142623,1,0,606393.788348958,606394.835370965,5,1,85,16,16
27,354,606.90006671939,1,0,606397.000029796,606398.047069127,5,1,87,16,8
27,355,824.841164285317,0,0,606399.741141013,606400.788161096,5,0,74,4,8
27,356,576.117699849419,1,0,606402.752840407,606403.799865109,5,1,69,16,16
27,357,678.983129211701,0,0,606405.505710687,606406.552738469,5,0,98,8,8
27,358,704.378331662156,1,0,606408.27034234,606409.317378591,5,1,95,8,4
27,359,632.810733746737,0,0,606411.140914886,606412.187908792,5,0,91,8,16
27,360,899.401845177636,0,0,606413.964332229,606415.011362706,5,0,70,4,16
27,361,852.118063252419,0,0,606416.952493094,606417.999519336,5,0,91,8,0
27,362,430.583418114111,0,1,606419.870067245,606420.917093872,5,1,81,0,16
27,363,687.812627758831,1,0,606422.481856489,606423.528876187,5,1,93,16,16
27,364,503.778252284974,0,0,606425.375837447,606426.422850601,5,0,85,8,16
27,365,642.594939214177,1,0,606428.011085918,606429.058077898,5,1,86,4,4
27,366,451.170054613613,1,0,606430.787443911,606431.834477468,5,1,88,0,0
27,367,412.219554767944,0,0,606433.293268008,606434.340305414,5,0,66,0,0
27,368,673.604818992317,1,0,606435.857911671,606436.904947922,5,1,79,0,8
27,369,620.724068023264,1,0,606438.599024813,606439.646049131,5,1,86,0,8
27,370,646.730975829996,0,1,606441.39897292,606442.445990693,5,1,72,4,8
27,371,538.127681124024,1,0,606444.116531365,606445.163568001,5,1,63,0,8
27,372,638.133994536474,0,0,606446.716478395,606447.763511566,5,0,96,0,16
27,373,532.68508205656,1,0,606449.492877194,606450.539903436,5,1,62,8,16
27,374,624.779647449031,0,0,606452.092821144,606453.139837762,5,0,97,4,8
27,375,536.015392281115,1,0,606454.963337101,606456.010365268,5,1,76,16,8
27,376,648.676575976424,0,0,606457.680909405,606458.727946426,5,0,76,0,0
27,377,700.73081261944,0,0,606460.480846348,606461.52787644,5,0,82,8,4
27,378,592.553671333008,0,0,606463.269016914,606464.316049315,5,0,92,0,4
27,379,617.113120271824,1,0,606466.104269542,606467.151291164,5,1,79,0,4
27,380,557.453950634226,1,0,606468.821823752,606469.868855769,5,1,90,0,16
27,381,607.076764455996,1,0,606471.445284672,606472.492317459,5,1,62,16,8
27,382,647.370013408363,0,0,606474.256984528,606475.304018854,5,0,69,4,0
27,383,643.183931824751,1,0,606477.045154324,606478.092178641,5,1,72,8,8
27,384,569.377392414026,0,0,606479.798023834,606480.84505662,5,0,99,4,16
27,385,612.645631073974,1,0,606482.6097183,606483.656761865,5,1,82,0,16
27,386,545.818460872397,1,0,606485.315545015,606486.362566637,5,1,61,0,0
27,387,501.838811440393,0,0,606488.009596113,606489.056626205,5,0,84,16,16
27,388,576.879155472852,1,0,606490.562477249,606491.609557001,5,1,93,16,0
27,389,587.250043638051,1,0,606493.374164786,606494.421197957,5,1,100,16,0
27,390,439.070300199091,1,0,606496.115275233,606497.162313794,5,1,76,4,16
27,391,621.048206347041,1,0,606498.62109856,606499.668128267,5,1,84,8,4
27,392,545.270274276845,0,0,606501.373970765,606502.421005476,5,0,68,4,4
27,393,582.66244630795,1,0,606503.997509062,606505.044467551,5,1,97,8,4
27,394,673.325336189009,0,0,606506.726782684,606507.773807002,5,0,61,4,4
27,395,593.137274379842,1,0,606509.609066174,606510.656092801,5,1,92,8,8
27,396,561.149205081165,0,0,606512.409000037,606513.456034363,5,0,76,0,16
27,397,624.085174989887,0,0,606515.197163674,606516.244195306,5,0,71,8,0
27,398,568.851533695124,1,0,606517.891273287,606518.938270272,5,1,75,4,0
27,399,599.799434421584,1,0,606520.691149021,606521.738188736,5,1,99,8,0
27,400,1250.4233046202,0,0,606523.408734028,606524.455760655,5,0,98,16,0
27,401,686.751286382787,0,0,606531.479189854,606532.526199158,6,0,83,8,8
27,402,530.397635302506,1,0,606534.408466479,606535.455498111,6,1,84,8,16
27,403,805.855971644633,1,0,606537.173167425,606538.22016672,6,1,79,4,0
27,404,472.550098784268,1,0,606540.149502629,606541.196532335,6,1,70,0,8
27,405,584.112984826788,0,0,606542.831799284,606543.878823986,6,0,68,16,0
27,406,473.419344052672,1,1,606545.490546246,606546.537576723,6,0,96,16,8
27,407,631.96766609326,1,0,606548.172838667,606549.219862214,6,1,68,8,4
27,408,482.228054665029,1,0,606550.878658067,606551.925687004,6,1,89,0,4
27,409,613.399002584629,1,0,606553.537408495,606554.584462069,6,1,63,16,8
27,410,523.604203015566,1,0,606556.290287629,606557.337313871,6,1,95,16,4
27,411,558.917577844113,1,0,606558.902044536,606559.949019963,6,1,72,4,4
27,412,585.600864607841,0,0,606561.631333941,606562.678364803,6,0,79,8,4
27,413,765.01646079123,0,1,606564.30185806,606565.348887382,6,1,91,8,4
27,414,844.670579768717,1,0,606567.137105683,606568.184113062,6,1,80,4,0
27,415,702.149784076028,0,0,606570.160538347,606571.207571903,6,0,90,8,4
27,416,488.697733497247,1,0,606572.936941766,606573.983978787,6,1,87,0,0
27,417,606.446965946816,0,0,606575.572171373,606576.619209164,6,0,93,0,0
27,418,530.451530008577,0,0,606578.266225166,606579.313254103,6,0,85,8,8
27,419,648.514506756328,1,0,606580.960273185,606582.007309821,6,1,90,4,4
27,420,631.630054092966,1,0,606583.713145005,606584.760177021,6,1,63,16,4
27,421,708.568647853099,0,0,606586.407198413,606587.454239669,6,0,92,4,16
27,422,587.938356562518,1,0,606589.230663876,606590.277700512,6,1,79,4,4
27,423,560.626041144133,0,0,606592.065897255,606593.112954294,6,0,71,4,16
27,424,813.122137682512,1,0,606594.724650762,606595.771679314,6,1,94,16,16
27,425,526.064498000778,0,0,606597.630464696,606598.677489013,6,0,92,0,8
27,426,570.779810543172,0,0,606600.312789838,606601.359783744,6,0,64,16,16
27,427,560.38620963227,0,0,606603.030337504,606604.077362207,6,0,80,0,16
27,428,549.982599564828,0,0,606605.806738999,606606.853762931,6,0,62,8,0
27,429,432.844687602483,1,0,606608.559606969,606609.606645915,6,1,69,4,8
27,430,516.639847424813,0,0,606611.041899466,606612.088937257,6,0,82,8,0
27,431,468.171920976602,1,0,606613.81830635,606614.865338752,6,1,99,0,16
27,432,458.439300535247,1,0,606616.477059087,606617.524109967,6,1,98,0,0
27,433,652.973526739515,1,0,606619.053518403,606620.100499989,6,1,79,8,16
27,434,578.567215823568,1,0,606621.771049516,606622.818081917,6,1,69,8,8
27,435,505.59181033168,0,0,606624.429807257,606625.476836964,6,0,94,0,16
27,436,565.640561981127,1,0,606627.170925019,606628.217950876,6,1,81,0,4
27,437,501.53777084779,0,0,606629.970877745,606631.017885124,6,0,93,8,0
27,438,653.679162845947,1,0,606632.570789358,606633.617827149,6,1,87,4,0
27,439,531.040522502735,1,0,606635.335432174,606636.382460341,6,1,98,8,16
27,440,435.687635093927,1,0,606638.12366241,606639.170672483,6,1,99,0,8
27,441,415.478261886165,0,0,606640.758824263,606641.80585782,6,0,86,16,8
27,442,831.140304799192,0,0,606643.335233534,606644.382265165,6,0,97,0,8
27,443,470.830471604131,1,0,606646.370507642,606647.417491154,6,1,67,0,4
27,444,590.587283135392,1,0,606649.005689514,606650.052720761,6,1,83,0,16
27,445,549.700037110597,0,0,606651.711513149,606652.758586741,6,0,63,4,4
27,446,454.883017460816,1,0,606654.358521452,606655.405578491,6,1,76,4,8
27,447,493.410828639753,1,0,606656.93490108,606657.981937331,6,1,90,0,4
27,448,721.023722668178,1,0,606659.511302651,606660.558338903,6,1,93,16,0
27,449,455.776130314916,1,0,606662.299529037,606663.346508699,6,1,95,0,16
27,450,426.929739536718,0,0,606664.852404014,606665.899402538,6,0,76,16,16
27,451,769.694139482453,1,0,606667.487587425,606668.534624446,6,1,80,8,4
27,452,1067.94956675731,0,0,606670.405160422,606671.452187049,6,0,100,16,4
27,453,611.072674626485,0,0,606673.699207439,606674.746224827,6,0,93,8,16
27,454,812.152417260222,1,0,606676.452080029,606677.499105116,6,1,61,8,0
27,455,710.119661525823,0,0,606679.452003807,606680.499039673,6,0,72,4,4
27,456,731.255639577284,1,0,606682.299015882,606683.346023646,6,1,71,0,0
27,457,524.144305265509,0,0,606685.098930882,606686.14595674,6,0,82,16,4
27,458,451.954993186519,0,0,606687.734242102,606688.781239086,6,0,62,4,8
27,459,523.423270671628,1,0,606690.263506561,606691.310543968,6,1,67,16,16
27,460,563.914390397258,1,0,606693.028212897,606694.075221431,6,1,78,16,8
27,461,405.942742014304,1,0,606695.781024277,606696.828058219,6,1,86,4,8
27,462,708.682596683502,0,0,606698.416256964,606699.463282436,6,0,71,16,0
27,463,446.906210738234,0,0,606701.263294062,606702.310293357,6,0,74,0,0
27,464,601.949449628592,0,0,606703.87493779,606704.921970192,6,0,70,8,8
27,465,533.652107813396,0,0,606706.60428263,606707.651323116,6,0,99,8,0
27,466,498.240182525478,0,0,606709.321863788,606710.368900039,6,0,73,0,4
27,467,527.705592801794,1,0,606712.051212478,606713.098245264,6,1,66,16,0
27,468,479.986803373322,0,0,606714.709977919,606715.757070374,6,0,84,4,0
27,469,424.013264128007,1,1,606717.415784615,606718.462814322,6,0,97,16,0
27,470,503.528026631102,0,0,606720.086311429,606721.13334845,6,0,84,8,16
27,471,579.07113165129,1,0,606722.650958942,606723.697989418,6,1,91,16,8
27,472,354.512914665975,0,0,606725.474421325,606726.521451416,6,0,84,4,16
27,473,500.180393224582,0,0,606728.062598512,606729.109621675,6,0,67,16,4
27,474,462.834031670354,1,0,606730.733111467,606731.780145023,6,1,98,0,8
27,475,542.814983869903,0,0,606733.333101997,606734.380098982,6,0,81,8,8
27,476,518.167378380895,0,0,606736.05063157,606737.097662816,6,0,68,4,0
27,477,614.117342513055,0,0,606738.697631018,606739.744658415,6,0,81,4,16
27,478,595.447433996014,0,0,606741.509327794,606742.556353651,6,0,71,4,16
27,479,436.340531450696,0,0,606744.203373118,606745.250407059,6,0,67,4,8
27,480,534.688426647335,0,1,606746.815064196,606747.862111612,6,1,78,16,16
27,481,470.783121301793,1,0,606754.461940457,606755.508989797,7,1,86,4,16
27,482,595.972137758508,0,0,606757.026596054,606758.073630381,7,0,70,0,16
27,483,491.874058614485,0,0,606759.720644843,606760.767673395,7,0,98,8,16
27,484,547.880319645628,0,1,606762.367640442,606763.414677848,7,1,85,16,4
27,485,748.411105945706,0,0,606765.085215825,606766.132255156,7,0,83,4,8
27,486,520.188431255519,1,0,606768.014563283,606769.061599919,7,1,99,4,8
27,487,568.771076505072,0,0,606770.755674885,606771.802746938,7,0,64,16,8
27,488,498.70675697457,0,0,606773.449739458,606774.49676724,7,0,96,16,8
27,489,601.884005940519,1,0,606776.143840986,606777.190841821,7,1,62,4,16
27,490,689.005626365542,1,0,606778.955471933,606780.002505875,7,1,69,8,16
27,491,667.327621369623,1,0,606781.873083811,606782.920081566,7,1,76,8,4
27,492,428.626653971151,0,0,606784.625927529,606785.67295762,7,0,78,4,4
27,493,453.323149587959,1,0,606787.155267441,606788.202307157,7,1,74,8,0
27,494,563.704970758408,0,0,606789.684618518,606790.731662083,7,0,74,0,4
27,495,699.219065019861,1,0,606792.496320298,606793.5433527,7,1,62,16,8
27,496,584.579174290411,0,0,606795.413898299,606796.46093455,7,0,74,0,16
27,497,536.962014855817,1,0,606798.084419338,606799.131451355,7,1,84,4,4
27,498,526.9937972771,1,1,606800.837289618,606801.884327024,7,0,98,16,0
27,499,671.286575146951,1,0,606803.448994555,606804.496026572,7,1,62,8,16
27,500,585.874957847409,0,0,606806.213636987,606807.260686327,7,0,83,16,0
27,501,624.469752656296,1,0,606809.001801778,606810.048837645,7,1,79,4,0
27,502,728.718737023883,1,0,606811.860565987,606812.907588765,7,1,99,8,8
27,503,835.45881358441,0,0,606814.64872,606815.695756636,7,0,62,8,0
27,504,503.590390551835,1,0,606817.648653402,606818.695677334,7,1,68,16,16
27,505,605.693979421631,0,0,606820.354467027,606821.401547164,7,0,98,0,16
27,506,669.561558403075,0,0,606823.130870446,606824.177900538,7,0,100,8,8
27,507,1059.52273879666,1,0,606825.977865199,606827.02489914,7,1,66,8,8
27,508,821.007323334925,1,0,606829.107198336,606830.154218419,7,1,71,16,0
27,509,543.261155253276,0,0,606832.060073928,606833.107102095,7,0,72,0,0
27,510,582.222049240954,1,0,606834.76588178,606835.812917646,7,1,77,0,0
27,511,571.725278277881,0,0,606837.483471792,606838.530496494,7,0,73,16,16
27,512,615.516681107692,1,0,606840.177521735,606841.224552212,7,1,61,8,4
27,513,623.358365963213,0,0,606842.906862726,606843.953890893,7,0,84,16,4
27,514,474.191193818115,0,0,606845.600918829,606846.647952385,7,0,87,8,4
27,515,559.634762932546,1,0,606848.318491902,606849.365529308,7,1,88,0,8
27,516,683.300098055042,0,0,606851.000783168,606852.047815184,7,0,92,16,4
27,517,484.585949569009,1,0,606853.753657682,606854.800689699,7,1,62,4,16
27,518,721.628113766201,0,0,606856.306527654,606857.353577764,7,0,89,8,0
27,519,478.157461853698,1,0,606859.188821153,606860.23585086,7,1,67,16,16
27,520,553.179712733254,0,0,606861.729926288,606862.776972933,7,0,84,8,4
27,521,589.868173236027,0,0,606864.471048669,606865.518071831,7,0,96,4,8
27,522,645.950656849891,0,0,606867.165164441,606868.21217105,7,0,77,4,4
27,523,797.051495523192,1,0,606870.023865131,606871.070880209,7,1,72,16,8
27,524,712.711998610757,0,0,606873.059076106,606874.106142769,7,0,83,0,4
27,525,608.613534481265,0,0,606875.847248597,606876.894274454,7,0,66,8,16
27,526,822.098691947758,1,0,606878.517764246,606879.564797802,7,1,81,16,4
27,527,630.587575724348,1,0,606881.482396977,606882.529433613,7,1,92,4,0
27,528,506.951882620342,1,1,606884.200046658,606885.24707213,7,0,85,4,8
27,529,542.758779251017,1,0,606886.846963724,606887.894045401,7,1,74,8,8
27,530,698.580797296017,1,0,606889.470438118,606890.517478219,7,1,93,4,0
27,531,714.369261986576,1,0,606892.258608684,606893.305640316,7,1,89,4,4
27,532,459.378608851694,1,0,606895.211476193,606896.258506284,7,1,80,0,8
27,533,564.987280755304,0,0,606897.740890403,606898.787858901,7,0,73,4,16
27,534,538.041449617594,1,0,606900.446643975,606901.493677916,7,1,77,16,16
27,535,799.413625150919,0,0,606903.164220128,606904.211258689,7,0,61,0,0
27,536,642.992605571635,1,0,606906.175929531,606907.222951923,7,1,82,0,8
27,537,468.075295444578,1,0,606908.928792881,606909.975827592,7,1,76,4,4
27,538,890.493044280447,0,0,606911.505200612,606912.552231474,7,0,80,16,0
27,539,538.960739853792,1,0,606914.469832957,606915.516872673,7,1,76,4,16
27,540,579.824503161944,1,0,606917.16389445,606918.210979206,7,1,92,0,4
27,541,584.177658543922,0,0,606919.834413179,606920.881443655,7,0,84,16,4
27,542,514.054824598134,0,0,606922.563822308,606923.610785416,7,0,63,0,8
27,543,702.713754144497,1,0,606925.304930445,606926.351898943,7,1,61,8,16
27,544,668.643807875924,0,0,606928.198928727,606929.245944575,7,0,76,8,8
27,545,607.947164564393,0,0,606930.951794387,606931.998822939,7,0,70,8,0
27,546,506.73630356323,0,0,606933.751765977,606934.798778745,7,0,67,0,16
27,547,1065.46617404092,0,0,606936.434009507,606937.481038829,7,0,74,16,0
27,548,1098.17951242439,1,0,606939.657457108,606940.704490279,7,1,73,16,8
27,549,800.399513915181,0,0,606942.869139486,606943.916177662,7,0,75,8,4
27,550,676.199465873651,1,0,606945.85730959,606946.904351616,7,1,91,0,0
27,551,897.543631494045,0,0,606948.716053781,606949.763086952,7,0,98,4,0
27,552,725.10663443245,1,0,606951.692454043,606952.739494144,7,1,80,0,16
27,553,596.950327395462,1,0,606954.539492681,606955.586474653,7,1,85,16,16
27,554,854.455170221627,1,0,606957.209970989,606958.257006086,7,1,89,0,0
27,555,807.571364101022,0,0,606960.315776377,606961.362813398,7,0,86,0,4
27,556,663.539206027053,1,0,606963.362764893,606964.409794985,7,1,92,4,8
27,557,567.714354605414,0,0,606966.209753871,606967.256786657,7,0,67,0,8
27,558,573.248959612101,0,0,606968.844985402,606969.892025118,7,0,73,4,0
27,559,802.921017864719,0,1,606971.668444706,606972.715474797,7,1,68,0,4
27,560,705.681814462878,0,0,606974.609545067,606975.656587093,7,0,100,8,0
27,561,796.771242865361,0,0,607006.879389881,607007.926457699,8,0,64,8,8
27,562,680.158804636449,1,0,607009.738111359,607010.785133751,8,1,99,4,4
27,563,462.928347522393,0,0,607012.538042913,607013.585074159,8,0,96,4,8
27,564,582.434163545258,0,0,607015.149738996,607016.196771397,8,0,64,4,0
27,565,496.781559893861,1,0,607017.973256428,607019.020247254,8,1,87,0,0
27,566,588.353731087409,0,0,607020.690787156,607021.737811088,8,0,100,0,8
27,567,595.512877684087,1,0,607023.443660516,607024.490694457,8,1,88,16,8
27,568,630.896315677091,0,0,607026.173005741,607027.220038527,8,0,96,8,0
27,569,813.535202294588,0,0,607028.890579969,607029.937618145,8,0,79,8,0
27,570,856.819609412923,0,0,607031.855220399,607032.902303615,8,0,86,0,0
27,571,820.458367001265,0,0,607034.890436763,607035.93746724,8,0,88,8,4
27,572,645.177267375402,1,0,607037.91389368,607038.960924541,8,1,94,0,8
27,573,532.994206994772,0,0,607040.70212661,607041.749113971,8,0,75,4,16
27,574,521.848004311323,0,0,607043.443225123,607044.490224803,8,0,63,16,0
27,575,624.589475919493,0,0,607046.184304773,607047.231322161,8,0,93,0,4
27,576,657.458724104799,1,0,607048.925389813,607049.972422215,8,1,70,8,16
27,577,517.780106165446,1,0,607051.690061502,607052.737057717,8,1,82,0,0
27,578,672.665895544924,0,0,607054.278200963,607055.325233749,8,0,64,4,0
27,579,544.121546437964,0,0,607057.054608232,607058.101638323,8,0,96,0,8
27,580,766.721074585803,1,0,607059.725128501,607060.772158207,8,1,84,16,0
27,581,497.098383842967,1,0,607062.642737299,607063.689750067,8,1,76,16,8
27,582,663.708589505404,1,0,607065.372060966,607066.419098757,8,1,80,16,16
27,583,992.324849590659,0,1,607068.136769226,607069.183713856,8,1,63,0,4
27,584,778.071692213416,0,0,607071.18367228,607072.230704297,8,0,88,16,16
27,585,658.027698635124,1,0,607074.183598752,607075.230629614,8,1,71,8,8
27,586,533.327584387735,0,0,607076.983534156,607078.030564247,8,0,69,4,16
27,587,757.876947289333,0,0,607079.712880921,607080.759913322,8,0,82,8,16
27,588,553.740987787023,1,0,607082.70104371,607083.748074187,8,1,95,8,16
27,589,870.719833415933,0,0,607085.454026399,607086.500971029,8,0,100,16,16
27,590,649.935018154792,0,0,607088.406867345,607089.453828914,8,0,100,16,8
27,591,589.591000345536,1,0,607091.183187227,607092.230222709,8,1,84,0,8
27,592,506.138456985354,0,0,607094.006648841,607095.053680087,8,0,74,16,4
27,593,709.281598334201,1,0,607096.771286267,607097.818320594,8,1,87,16,0
27,594,649.678633199073,0,0,607099.735911684,607100.782959099,8,0,68,4,0
27,595,556.295598624274,0,0,607102.618201332,607103.665234119,8,0,95,4,16
27,596,520.572238834575,0,0,607105.382842224,607106.429872316,8,0,85,4,0
27,597,478.680240805261,1,0,607108.135718278,607109.182776473,8,1,75,0,8
27,598,441.611822112463,0,0,607110.723893541,607111.770919398,8,0,74,16,8
27,599,807.785788201727,0,0,607113.382687084,607114.42967945,8,0,99,8,4
27,600,532.703945180401,0,0,607116.264926688,607117.311962939,8,0,68,16,16
27,601,832.28787779808,1,0,607118.853106955,607119.900134352,8,1,96,16,8
27,602,429.13172475528,0,0,607121.782445559,607122.829477575,8,0,86,0,16
27,603,707.832599757239,1,0,607124.323614212,607125.370618897,8,1,91,4,8
27,604,453.306596144103,0,0,607127.288194588,607128.335226989,8,0,65,8,4
27,605,477.497251238674,1,0,607129.994011293,607131.04104177,8,1,89,8,8
27,606,636.524851433933,0,0,607132.640999963,607133.688034675,8,0,71,4,8
27,607,445.334024145268,0,0,607135.53504983,607136.582081846,8,0,86,8,0
27,608,650.361556559801,1,0,607138.134991084,607139.182018866,8,1,90,4,16
27,609,518.993122968823,1,0,607141.017268799,607142.064304666,8,1,88,4,16
27,610,724.91954267025,0,0,607143.711325672,607144.758354609,8,0,82,4,0
27,611,606.243320857175,1,0,607146.675941849,607147.722994654,8,1,82,8,16
27,612,458.27530650422,1,0,607149.511180618,607150.558211865,8,1,66,8,4
27,613,640.812563244253,1,0,607152.040574426,607153.08758219,8,1,74,4,4
27,614,456.149543868378,1,0,607154.805174511,607155.852199214,8,1,86,0,16
27,615,435.341553995386,1,0,607157.511018164,607158.558024388,8,1,98,0,4
27,616,531.300372211263,1,0,607160.063868118,607161.11090129,8,1,75,4,8
27,617,523.938350379467,0,1,607162.687333658,607163.734373374,8,1,83,16,0
27,618,757.125500706024,0,0,607165.393152673,607166.440180455,8,0,82,4,8
27,619,600.754141341895,0,0,607168.381360504,607169.428350944,8,0,67,0,0
27,620,668.324674014002,0,0,607171.157718882,607172.204747819,8,0,76,8,4
27,621,604.864000226371,1,0,607174.028299128,607175.075267626,8,1,68,16,4
27,622,630.21031243261,1,0,607176.686989886,607177.734021903,8,1,62,16,4
27,623,819.492881069891,1,0,607179.545746781,607180.592764169,8,1,81,16,4
27,624,688.261109171435,1,0,607182.580966225,607183.627996702,8,1,86,0,16
27,625,660.391368088312,1,0,607185.345608657,607186.392639133,8,1,67,4,4
27,626,567.183876410127,1,0,607188.227888296,607189.274906839,8,1,95,8,0
27,627,684.900771942921,1,0,607191.016052703,607192.06308241,8,1,74,8,8
27,628,664.786484325305,0,0,607193.898335423,607194.945371674,8,0,92,0,4
27,629,518.479582970031,1,0,607196.733568802,607197.78058619,8,1,82,0,16
27,630,598.907861392945,1,0,607199.451175367,607200.498174662,8,1,67,0,16
27,631,664.875795599073,0,0,607202.251151962,607203.298148947,8,0,90,8,8
27,632,593.864468391985,0,0,607205.039255929,607206.086272932,8,0,66,16,4
27,633,533.048486569896,0,0,607207.756867884,607208.803866024,8,0,76,4,4
27,634,585.206663119607,0,0,607210.450873557,607211.497912888,8,0,61,0,4
27,635,696.709879790433,1,0,607213.286106937,607214.333197852,8,1,62,16,0
27,636,522.10554422345,0,0,607216.191915481,607217.238947112,8,0,81,0,0
27,637,759.837176185101,1,0,607218.933054415,607219.980060639,8,1,68,8,16
27,638,737.062413129024,1,0,607221.944738026,607222.991753104,8,1,70,16,16
27,639,651.927198865451,1,0,607224.885817599,607225.93285154,8,1,73,8,0
27,640,793.464800342917,0,0,607227.756335096,607228.803368268,8,0,89,4,4
27,641,870.003418298438,0,0,607252.755731475,607253.802828935,9,0,80,8,8
27,642,465.121093671769,1,0,607255.755648323,607256.802703052,9,1,63,4,8
27,643,521.045742672868,1,0,607258.461477347,607259.508505514,9,1,63,0,0
27,644,415.830502402969,0,0,607261.237906944,607262.284917018,9,0,66,8,4
27,645,520.516804303043,0,0,607263.826042555,607264.873080731,9,0,87,4,0
27,646,493.716873810627,0,0,607266.437754037,607267.484778354,9,0,94,0,0
27,647,477.15694445651,0,0,607269.108269301,607270.155305168,9,0,95,4,8
27,648,525.48743924126,1,0,607271.661152747,607272.708183224,9,1,78,0,16
27,649,426.234112470411,1,0,607274.402312085,607275.449288282,9,1,66,8,0
27,650,511.981031973846,0,0,607276.990431913,607278.037467779,9,0,88,0,16
27,651,516.249110572971,1,0,607279.602133385,607280.649165787,9,1,67,0,4
27,652,579.383721225895,0,0,607282.355007515,607283.402039146,9,0,95,4,4
27,653,510.165549116209,0,0,607285.143174616,607286.190212792,9,0,69,0,4
27,654,522.244515595958,0,0,607287.79016829,607288.837200307,9,0,99,4,0
27,655,471.442561945878,1,0,607290.54304473,607291.590070587,9,1,85,8,8
27,656,664.510466274805,1,0,607293.201803626,607294.248837953,9,1,70,16,16
27,657,617.007640539669,0,0,607296.013496552,607297.060551667,9,0,91,0,4
27,658,913.78712176811,0,0,607298.801692911,607299.848737631,9,0,90,8,0
27,659,496.242227498442,0,0,607301.778054292,607302.825095548,9,0,66,16,4
27,660,489.615484024398,0,0,607304.495656623,607305.542673626,9,0,64,4,16
27,661,515.546169131994,1,0,607307.189728509,607308.236736658,9,1,65,4,8
27,662,531.329629360698,1,0,607309.919041782,607310.966080728,9,1,79,4,16
27,663,455.052015953697,1,0,607312.660178792,607313.707191176,9,1,78,16,0
27,664,630.5721772369,0,0,607315.271858707,607316.318889183,9,0,71,0,8
27,665,671.454033814371,1,1,607318.024755549,607319.071757923,9,0,69,16,4
27,666,586.736888857558,1,0,607320.824657076,607321.871693327,9,1,62,0,0
27,667,597.657118458301,0,0,607323.577560462,607324.624567841,9,0,95,16,0
27,668,593.598074512556,0,0,607326.318638958,607327.365670974,9,0,73,8,16
27,669,478.528950596228,1,0,607329.012683127,607330.059738626,9,1,74,0,8
27,670,474.441034370102,1,0,607331.553829837,607332.600844916,9,1,65,0,16
27,671,566.12869433593,0,0,607334.283157739,607335.330182827,9,0,85,16,16
27,672,611.241673119366,0,0,607337.09485336,607338.141883067,9,0,86,4,16
27,673,764.086776529439,1,0,607339.777134617,607340.824167403,9,1,69,8,16
27,674,685.716507374309,1,0,607342.659420801,607343.706455127,9,1,84,0,4
27,675,644.388479297049,0,0,607345.494651486,607346.541679268,9,0,90,16,8
27,676,539.891578955576,0,0,607348.21227037,607349.259261196,9,0,80,8,4
27,677,628.436405560933,1,0,607350.8945216,607351.941555926,9,1,83,4,4
27,678,627.194901695475,0,0,607353.670920784,607354.717947796,9,0,90,16,16
27,679,675.159682286903,1,0,607356.364973037,607357.41198927,9,1,71,8,16
27,680,527.203216799535,0,0,607359.223729932,607360.270758099,9,0,86,16,8
27,681,1157.22235722933,1,0,607361.964835375,607363.011867391,9,1,63,8,8
27,682,495.318702538498,1,0,607365.223577102,607366.270610273,9,1,76,4,8
27,683,567.029891419224,0,0,607367.952926947,607368.999955499,9,0,70,4,0
27,684,669.060722342692,0,0,607370.64698151,607371.694008907,9,0,88,4,4
27,685,661.939301993698,1,0,607373.493961633,607374.541003274,9,1,69,4,16
27,686,557.590227341279,0,0,607376.317427096,607377.364457573,9,0,96,8,8
27,687,569.581422489136,0,0,607379.129170067,607380.176224412,9,0,68,8,4
27,688,735.263868467882,0,0,607381.905529601,607382.952560077,9,0,81,8,4
27,689,652.075024438091,1,0,607384.740748352,607385.787775364,9,1,90,0,8
27,690,504.946613218635,1,0,607387.470102431,607388.517150616,9,1,99,0,8
27,691,700.287335785106,1,0,607390.140612691,607391.187659721,9,1,77,4,4
27,692,734.854653361253,1,0,607392.917021499,607393.964109336,9,1,91,16,8
27,693,621.781944879331,1,0,607395.905187754,607396.952218231,9,1,98,16,8
27,694,662.756192381494,1,0,607398.763986995,607399.810968966,9,1,82,8,4
27,695,1204.2536039371,1,0,607401.528584385,607402.575609088,9,1,92,8,16
27,696,1158.45154225826,1,0,607404.893202333,607405.9402305,9,1,97,8,0
27,697,490.351147251204,1,0,607408.234294841,607409.281331092,9,1,75,0,0
27,698,449.338018428534,1,1,607410.928348635,607411.975371797,9,0,70,8,8
27,699,507.345699239522,1,0,607413.52828142,607414.575313822,9,1,75,4,8
27,700,519.022380001843,0,0,607416.15174542,607417.198784366,9,0,84,16,0
27,701,615.998269058764,0,0,607418.904619165,607419.95166196,9,0,81,16,0
27,702,478.569756494835,0,0,607421.575145208,607422.622174915,9,0,64,0,8
27,703,504.370709415525,1,0,607424.116267666,607425.163296988,9,1,88,16,4
27,704,712.943361140788,0,0,607426.739729356,607427.786796404,9,0,80,4,16
27,705,438.439731718972,0,0,607429.516130465,607430.563151318,9,0,79,0,4
27,706,535.302056814544,1,0,607432.151361227,607433.198394399,9,1,96,8,0
27,707,459.421339677647,0,0,607434.751299402,607435.798329109,9,0,86,16,8
27,708,490.528999827802,1,0,607437.315938446,607438.362972773,9,1,96,16,16
27,709,839.680311735719,1,0,607439.974706197,607441.021737443,9,1,71,4,0
27,710,770.964515511878,0,0,607443.021702412,607444.068724419,9,0,82,8,0
27,711,468.651584233157,0,0,607446.009844414,607447.056885669,9,0,75,4,0
27,712,647.59290672373,1,0,607448.609783744,607449.65681576,9,1,68,16,16
27,713,476.490959292278,1,0,607451.492073008,607452.539103869,9,1,88,0,16
27,714,642.535655060783,1,0,607454.044944519,607455.091978076,9,1,65,16,0
27,715,550.859159091488,0,0,607456.7625942,607457.809618518,9,0,72,8,16
27,716,647.605995414779,0,0,607459.491873212,607460.538898684,9,0,97,4,4
27,717,491.843646508642,1,0,607462.209453985,607463.256474068,9,1,67,0,0
27,718,517.155697220005,1,0,607464.915270305,607465.962303862,9,1,69,16,4
27,719,630.683431401849,1,0,607467.632850693,607468.679873856,9,1,72,0,16
27,720,635.087016737089,0,0,607470.350436471,607471.397460018,9,0,87,16,4
