sub_id,Trial,RT,Resp,Error,Fix_onset,Disp_onset,block,tid,tloc,fish_setsize,bird_setsize
31,1,904.751432128251,0,0,1720379.28319729,1720380.33031805,1,0,90,16,8
31,2,607.16390539892,1,0,1720382.29500289,1720383.34206167,1,1,91,4,16
31,3,727.590473135933,1,0,1720385.13032929,1720386.17740116,1,1,90,16,8
31,4,541.715922532603,1,0,1720388.08330746,1720389.13036432,1,1,91,16,8
31,5,532.344432780519,0,0,1720390.85979336,1720391.90686677,1,0,88,0,16
31,6,550.555780995637,0,0,1720393.47158486,1720394.51865173,1,0,98,8,8
31,7,465.679203392938,1,1,1720396.09515733,1720397.14223267,1,0,91,4,8
31,8,524.55744240433,1,0,1720398.7892866,1720399.83636694,1,1,74,4,8
31,9,712.732519721612,1,0,1720401.40109351,1720402.44816807,1,1,61,8,16
31,10,727.874574018642,1,0,1720404.20112053,1720405.24818663,1,1,79,8,16
31,11,604.232427664101,1,0,1720407.07173708,1720408.11881049,1,1,90,0,8
31,12,499.645463889465,1,0,1720409.89529407,1720410.9423721,1,1,73,8,4
31,13,445.034901844338,0,0,1720412.62474851,1720413.67181153,1,0,84,0,16
31,14,616.891868878156,0,0,1720415.27182939,1720416.31890049,1,0,62,8,4
31,15,624.980283668265,1,0,1720418.07191801,1720419.11893368,1,1,69,0,8
31,16,1024.48776480742,1,0,1720420.80128891,1720421.84836117,1,1,85,4,16
31,17,508.559234905988,1,0,1720424.01309867,1720425.06016438,1,1,74,16,0
31,18,590.447360649705,0,0,1720426.70724488,1720427.75431559,1,0,73,4,0
31,19,357.398539083079,1,0,1720429.4013957,1720430.44845602,1,1,75,4,0
31,20,604.559644591063,1,0,1720431.97792325,1720433.02496278,1,1,80,8,8
31,21,577.816791599616,1,0,1720434.74263087,1720435.78975356,1,1,73,16,16
31,22,494.302590610459,1,0,1720437.50736391,1720438.55443077,1,1,85,0,0
31,23,666.445968439803,1,0,1720440.16621766,1720441.21328684,1,1,100,8,4
31,24,443.727959413081,0,0,1720443.03683305,1720444.08390415,1,0,65,0,0
31,25,628.596222028136,0,0,1720445.54275568,1720446.58981215,1,0,99,16,4
31,26,653.832337586209,1,0,1720448.35453787,1720449.40162745,1,1,89,16,16
31,27,496.863735839725,1,0,1720451.24870094,1720452.29575433,1,1,76,0,0
31,28,796.498870011419,0,0,1720453.83696902,1720454.88402395,1,0,61,4,4
31,29,563.836549408734,1,0,1720456.75464358,1720457.8016962,1,1,76,4,8
31,30,570.236140163615,1,0,1720459.38995813,1720460.43702384,1,1,83,4,4
31,31,539.982058107853,1,0,1720462.0252823,1720463.07235032,1,1,67,4,16
31,32,477.449769852683,0,0,1720464.64884052,1720465.69589931,1,0,66,16,8
31,33,723.519510822371,0,0,1720467.30769505,1720468.3548597,1,0,86,8,0
31,34,459.850124549121,0,0,1720470.22541773,1720471.27244417,1,0,64,4,0
31,35,1005.75325451791,0,0,1720472.77834178,1720473.82540094,1,0,83,16,4
31,36,523.228942183778,0,0,1720475.95483791,1720477.0019144,1,0,73,0,4
31,37,416.511989431456,1,0,1720478.67251639,1720479.71959019,1,1,96,8,0
31,38,500.095868017524,0,0,1720481.20195513,1720482.24902738,1,0,86,4,16
31,39,431.073522893712,0,0,1720483.89610326,1720484.94317397,1,0,74,4,4
31,40,469.901070231572,0,0,1720486.39025532,1720487.43732449,1,0,82,4,4
31,41,360.397384967655,0,0,1720488.96675052,1720490.01380738,1,0,85,4,8
31,42,369.647612096742,1,1,1720491.5432492,1720492.59032569,1,0,79,8,16
31,43,591.295044636354,0,0,1720493.96679672,1720495.01386359,1,0,83,0,4
31,44,539.398457622156,1,0,1720496.73153591,1720497.77860278,1,1,97,4,16
31,45,594.9918248225,1,0,1720499.47274321,1720500.51987437,1,1,78,8,16
31,46,557.386528234929,0,0,1720502.13159196,1720503.17866422,1,0,94,16,0
31,47,612.808973062783,0,0,1720504.86112301,1720505.90811443,1,0,80,0,4
31,48,617.112836334854,0,0,1720507.68459878,1720508.73167219,1,0,89,8,8
31,49,529.129239032045,0,0,1720510.53169575,1720511.57875145,1,0,87,4,8
31,50,527.221757220104,0,0,1720513.28466514,1720514.33173278,1,0,74,8,0
31,51,623.778820503503,1,0,1720515.96705195,1720517.01411112,1,1,93,4,0
31,52,577.279386110604,0,0,1720518.69648406,1720519.74355863,1,0,61,4,4
31,53,540.27770832181,1,0,1720521.34357072,1720522.39063989,1,1,80,8,8
31,54,530.584391206503,0,0,1720524.02595367,1720525.07302824,1,0,98,0,8
31,55,496.175810694695,1,0,1720526.74365564,1720527.79070711,1,1,100,16,16
31,56,521.906986366957,0,0,1720529.39071958,1720530.43782918,1,0,64,16,4
31,57,603.240768192336,1,0,1720532.15544761,1720533.20253026,1,1,93,0,0
31,58,523.211234016344,0,0,1720534.95548695,1720536.00255767,1,0,94,0,4
31,59,769.806831842288,0,0,1720537.59087464,1720538.63787376,1,0,89,8,4
31,60,601.19662550278,1,0,1720540.41437312,1720541.46144345,1,1,82,16,16
31,61,559.302093926817,0,0,1720543.16734406,1720544.21441439,1,0,76,0,4
31,62,540.725033031777,1,0,1720545.89677925,1720546.9438542,1,1,70,0,8
31,63,456.47632656619,1,0,1720548.53210843,1720549.57917991,1,1,77,0,8
31,64,608.568628085777,1,0,1720551.14390301,1720552.19098489,1,1,74,0,0
31,65,643.911508843303,0,0,1720553.87334321,1720554.92041316,1,0,92,16,0
31,66,556.767896050587,0,0,1720556.72043133,1720557.76750397,1,0,62,8,4
31,67,465.638012392446,1,0,1720559.50872359,1720560.55576851,1,1,86,16,16
31,68,469.633907312527,0,1,1720562.12051587,1720563.16761122,1,1,68,8,0
31,69,885.375192156062,0,0,1720564.74404406,1720565.79111786,1,0,96,8,16
31,70,414.417031919584,0,0,1720567.75586006,1720568.80291383,1,0,66,0,16
31,71,750.301629770547,0,0,1720570.35587599,1720571.40294517,1,0,72,16,8
31,72,461.672914680094,0,0,1720573.16768359,1720574.21473968,1,0,85,8,0
31,73,488.954712869599,1,0,1720575.79122988,1720576.83829406,1,1,63,16,0
31,74,600.246926769614,1,0,1720578.35596068,1720579.40306605,1,1,88,16,4
31,75,593.652930576354,0,0,1720581.08547287,1720582.13247814,1,0,83,16,0
31,76,415.949176531285,1,0,1720583.74427812,1720584.79133421,1,1,83,8,8
31,77,471.684594405815,0,0,1720586.34428636,1720587.39138787,1,0,72,0,16
31,78,575.266425264999,1,0,1720589.02666739,1720590.0737408,1,1,86,16,4
31,79,448.389066848904,1,0,1720591.67375597,1720592.72081706,1,1,66,4,0
31,80,519.794705556706,1,0,1720594.20320471,1720595.25030391,1,1,98,0,16
31,81,575.173264602199,1,0,1720624.49765442,1720625.54471051,2,1,83,4,0
31,82,581.018126802519,0,0,1720627.29768568,1720628.34475486,2,0,96,0,4
31,83,459.015914006159,0,0,1720630.00359552,1720631.05066162,2,0,64,0,8
31,84,567.745827836916,1,0,1720632.59186014,1720633.63893163,2,1,72,4,8
31,85,611.351510742679,0,0,1720635.32129841,1720636.36837337,2,0,66,16,4
31,86,410.695614293218,1,0,1720638.09781857,1720639.14486426,2,1,65,4,4
31,87,617.388853570446,0,0,1720640.6272369,1720641.67430646,2,0,69,8,4
31,88,517.160802613944,0,0,1720643.427262,1720644.47434041,2,0,75,8,16
31,89,546.857845969498,0,0,1720646.06259695,1720647.1096769,2,0,65,16,4
31,90,372.129070339724,1,1,1720648.67439,1720649.72145686,2,0,89,0,4
31,91,679.315598681569,0,0,1720651.19207125,1720652.23914197,2,0,91,4,4
31,92,533.072393853217,0,0,1720654.086222,1720655.13328579,2,0,83,4,8
31,93,404.414206044748,0,0,1720656.85098121,1720657.89801613,2,0,67,0,8
31,94,575.709900120273,1,0,1720659.32156057,1720660.36866748,2,1,61,4,16
31,95,550.415270263329,1,0,1720662.15689121,1720663.20396077,2,1,69,8,16
31,96,627.291974145919,1,0,1720664.80397864,1720665.85104897,2,1,100,4,16
31,97,533.627507742494,1,0,1720667.61577969,1720668.66286119,2,1,61,8,8
31,98,750.653484137729,1,0,1720670.36874793,1720671.41581865,2,1,87,16,16
31,99,583.222798304632,0,0,1720673.20408396,1720674.25114582,2,0,62,8,4
31,100,588.988358620554,0,0,1720675.94527586,1720676.99236621,2,0,100,0,0
31,101,448.065699543804,1,0,1720678.71001005,1720679.75707807,2,1,89,8,8
31,102,498.774297069758,1,0,1720681.28655338,1720682.33358367,2,1,80,0,4
31,103,426.25997075811,1,0,1720684.0159878,1720685.06301386,2,1,67,0,16
31,104,417.54560964182,0,1,1720686.58069204,1720687.62776661,2,1,61,16,8
31,105,617.13978368789,1,0,1720689.227781,1720690.27484671,2,1,88,8,8
31,106,388.564978493378,0,0,1720692.0513557,1720693.09840948,2,0,64,4,4
31,107,501.657654996961,0,0,1720694.69843235,1720695.74550153,2,0,67,8,16
31,108,808.974299812689,0,0,1720697.36904012,1720698.41617243,2,0,100,8,8
31,109,574.341748841107,1,0,1720700.2396686,1720701.2867397,2,1,91,0,0
31,110,535.854891873896,0,0,1720703.01617682,1720704.06324176,2,0,87,0,16
31,111,564.737357897684,0,0,1720705.66325,1720706.71032764,2,0,79,16,4
31,112,458.382268203422,1,1,1720708.35740159,1720709.404475,2,0,84,16,16
31,113,574.628544971347,0,0,1720710.92219206,1720711.96921158,2,0,95,8,4
31,114,646.358320722356,1,0,1720713.65166537,1720714.69864947,2,1,90,4,16
31,115,646.384498104453,0,0,1720716.51043897,1720717.55750238,2,0,79,4,8
31,116,718.428017105907,0,0,1720719.26340491,1720720.31048024,2,0,91,8,16
31,117,610.405661864206,1,0,1720722.16932276,1720723.21639386,2,1,68,8,8
31,118,531.500598415732,1,0,1720724.87523645,1720725.92231217,2,1,88,8,0
31,119,564.183783950284,1,0,1720727.46349914,1720728.51056909,2,1,79,8,0
31,120,508.332108147442,0,0,1720730.22823795,1720731.27530366,2,0,62,8,16
31,121,678.709285100922,0,0,1720732.85183467,1720733.89889461,2,0,89,16,16
31,122,508.618903812021,0,0,1720735.69888545,1720736.74595578,2,0,67,16,4
31,123,574.851052137092,1,0,1720738.46367353,1720739.51076273,2,1,79,8,4
31,124,566.126296995208,1,0,1720741.2754153,1720742.32248563,2,1,88,4,4
31,125,1296.27828742377,1,0,1720744.04015142,1720745.08723869,2,1,81,16,0
31,126,866.97444296442,1,0,1720747.47549145,1720748.522556,2,1,98,4,8
31,127,566.417712485418,0,0,1720750.49904682,1720751.54612177,2,0,92,16,0
31,128,571.098837768659,1,0,1720753.18143132,1720754.22850203,2,1,72,16,16
31,129,439.819450723007,0,0,1720755.98145565,1720757.02853329,2,0,72,4,16
31,130,567.289263941348,1,0,1720758.54621032,1720759.59326717,2,1,97,4,0
31,131,761.594844516367,1,0,1720761.3697523,1720762.41682763,2,1,71,4,4
31,132,509.165933355689,1,0,1720764.35802446,1720765.40510172,2,1,77,0,16
31,133,625.45763514936,1,0,1720767.12276596,1720768.16983013,2,1,99,4,0
31,134,608.021213440225,1,0,1720769.94632681,1720770.99339637,2,1,98,4,0
31,135,446.234440430999,1,0,1720772.6640076,1720773.71106985,2,1,78,0,8
31,136,589.605451095849,0,0,1720775.28756313,1720776.33463539,2,0,96,16,8
31,137,649.516925448552,1,0,1720778.02876081,1720779.0758346,2,1,92,16,0
31,138,544.156574876979,0,0,1720780.87585778,1720781.92292657,2,0,87,16,0
31,139,469.398696208373,0,0,1720783.58179572,1720784.6288341,2,0,86,0,16
31,140,439.764401409775,1,0,1720786.15830902,1720787.20534779,2,1,95,4,0
31,141,618.341246852651,0,0,1720788.79358469,1720789.84066195,2,0,81,8,0
31,142,565.28053781949,0,0,1720791.58185193,1720792.62892534,2,0,76,16,8
31,143,633.686175802723,0,0,1720794.40541469,1720795.45248503,2,0,92,8,0
31,144,378.658393165097,0,0,1720797.1583941,1720798.20546636,2,0,82,4,16
31,145,716.339603764936,0,0,1720799.64077251,1720800.68783745,2,0,70,0,0
31,146,359.62237091735,0,0,1720802.51141446,1720803.55826199,2,0,64,8,0
31,147,594.19341571629,1,0,1720804.94671177,1720805.9937821,2,1,90,16,0
31,148,575.493552023545,1,0,1720807.77029109,1720808.8173618,2,1,81,0,8
31,149,688.726739026606,1,0,1720810.53501488,1720811.58209099,2,1,67,16,4
31,150,567.827439634129,1,0,1720813.38215035,1720814.42917448,2,1,92,16,8
31,151,760.295601328835,0,0,1720816.11154935,1720817.15861622,2,0,98,16,8
31,152,741.809006081894,0,0,1720818.99393069,1720820.04100564,2,0,88,0,0
31,153,713.835432892665,0,0,1720821.85278476,1720822.89985509,2,0,99,16,16
31,154,495.05903897807,0,0,1720824.80575908,1720825.8528271,2,0,83,8,4
31,155,408.449366921559,1,0,1720827.48816321,1720828.53521583,2,1,65,4,8
31,156,519.137962255627,1,0,1720830.07643091,1720831.12347853,2,1,77,0,0
31,157,804.314347216859,1,0,1720832.7823419,1720833.82937567,2,1,98,0,4
31,158,454.695112071931,1,0,1720835.80587842,1720836.85294682,2,1,73,0,8
31,159,366.442427039146,1,1,1720838.34708926,1720839.39414419,2,0,90,0,16
31,160,897.000628057867,1,0,1720840.81774176,1720841.86477167,2,1,80,0,4
31,161,663.05099776946,0,0,1720866.91217153,1720867.9591691,3,0,79,8,8
31,162,520.558083197102,1,0,1720869.68861854,1720870.73568079,3,1,97,8,0
31,163,545.162862865254,0,0,1720872.32397235,1720873.3710115,3,0,63,4,16
31,164,509.843079606071,0,0,1720874.95925726,1720876.00633413,3,0,68,8,16
31,165,712.120046839118,1,0,1720877.71227863,1720878.75930661,3,1,61,16,8
31,166,655.669756466523,1,0,1720880.60643823,1720881.65346159,3,1,80,16,16
31,167,559.692444512621,0,0,1720883.45350787,1720884.50055703,3,0,62,8,0
31,168,401.262915926054,0,0,1720886.24174084,1720887.28880963,3,0,77,16,4
31,169,659.102453151718,0,0,1720888.7829436,1720889.83000161,3,0,69,4,16
31,170,388.428702251986,0,0,1720891.5947666,1720892.64181037,3,0,67,16,16
31,171,467.986659379676,1,0,1720894.18302775,1720895.23007999,3,1,77,16,4
31,172,477.629161672667,0,0,1720896.86541186,1720897.91245217,3,0,86,16,0
31,173,621.099877171218,1,0,1720899.53603926,1720900.58308419,3,1,82,0,4
31,174,759.217710699886,1,0,1720902.24192678,1720903.28898672,3,1,81,16,8
31,175,441.16719905287,0,1,1720905.19491304,1720906.24196066,3,1,89,4,4
31,176,465.465935179964,1,0,1720907.86554352,1720908.9125742,3,1,96,0,8
31,177,592.819875106215,1,0,1720910.43028548,1720911.47730769,3,1,61,8,0
31,178,644.832335412502,0,0,1720913.14793356,1720914.19502929,3,0,94,16,16
31,179,432.213350431994,1,0,1720916.00677184,1720917.05364203,3,1,95,4,0
31,180,732.198840472847,0,0,1720918.61862417,1720919.66565292,3,0,82,4,8
31,181,507.272695424035,1,0,1720921.47746591,1720922.52449428,3,1,85,16,0
31,182,593.983997125179,1,0,1720924.14805828,1720925.19510937,3,1,72,8,8
31,183,562.208164250478,1,0,1720926.98339624,1720928.0304427,3,1,100,0,0
31,184,741.41673068516,1,0,1720929.73637487,1720930.7834198,3,1,91,8,4
31,185,448.190426919609,1,0,1720932.67757093,1720933.72462163,3,1,68,0,8
31,186,368.003828451037,1,0,1720935.27761805,1720936.32464757,3,1,67,4,0
31,187,771.249665645882,1,0,1720937.74821589,1720938.79526658,3,1,91,16,8
31,188,673.735974356532,0,0,1720940.71296924,1720941.76000147,3,0,62,8,4
31,189,603.467125212774,0,0,1720943.45393533,1720944.5012103,3,0,79,0,0
31,190,394.10764654167,1,0,1720946.28951373,1720947.33652939,3,1,87,16,8
31,191,531.678835395724,0,0,1720948.87784494,1720949.9247994,3,0,92,0,16
31,192,661.966562736779,0,0,1720951.64247789,1720952.68954014,3,0,96,8,16
31,193,583.839890779927,1,0,1720954.38346959,1720955.43074859,3,1,62,16,0
31,194,463.605033699423,0,0,1720957.0778414,1720958.12488941,3,0,66,0,16
31,195,376.469890121371,0,0,1720959.72495115,1720960.77197645,3,0,76,8,8
31,196,420.030917506665,0,0,1720962.31321269,1720963.36025377,3,0,65,4,4
31,197,551.677557406947,0,0,1720964.98381777,1720966.03086,3,0,99,16,4
31,198,434.229047503322,1,0,1720967.66628503,1720968.71324295,3,1,65,4,8
31,199,469.550370937213,1,0,1720970.24267784,1720971.28973893,3,1,67,8,16
31,200,676.344085019082,0,0,1720972.7838752,1720973.83094246,3,0,92,16,4
31,201,578.342648223042,1,0,1720975.67806406,1720976.72509282,3,1,84,16,8
31,202,626.897774171084,0,0,1720978.45456266,1720979.50159873,3,0,97,4,16
31,203,628.390652826056,0,0,1720981.19578574,1720982.24280179,3,0,91,4,16
31,204,614.254116313532,0,0,1720983.88991963,1720984.93695147,3,0,68,16,16
31,205,544.943050248548,0,0,1720986.57225369,1720987.6193425,3,0,62,16,0
31,206,408.492867602035,1,0,1720989.31345522,1720990.36055019,3,1,83,0,4
31,207,548.7179774791,1,0,1720991.86647474,1720992.9135493,3,1,98,8,0
31,208,736.884585348889,0,0,1720994.52534851,1720995.57235648,3,0,82,16,0
31,209,423.069414449856,1,0,1720997.44299112,1720998.49003527,3,1,96,0,0
31,210,516.591830179095,1,0,1721000.03131618,1721001.07830528,3,1,87,0,0
31,211,690.919091692194,1,0,1721002.79600109,1721003.84304948,3,1,87,4,8
31,212,639.273884240538,0,0,1721005.54897703,1721006.59601618,3,0,73,0,4
31,213,717.772813513875,1,0,1721008.24309667,1721009.29015507,3,1,70,0,16
31,214,471.636859234422,0,1,1721011.13726128,1721012.18430159,3,1,61,4,0
31,215,681.103357346728,0,0,1721013.86666452,1721014.91374717,3,0,98,8,0
31,216,546.158371958882,1,0,1721016.71376265,1721017.76083606,3,1,97,0,0
31,217,646.366404835135,1,0,1721019.325553,1721020.37262449,3,1,90,0,8
31,218,812.816594960168,1,0,1721022.05501245,1721023.10208124,3,1,82,4,4
31,219,1062.8271815367,1,0,1721024.96094685,1721026.00798831,3,1,100,0,8
31,220,921.08840518631,0,0,1721028.23153553,1721029.27860509,3,0,92,4,4
31,221,513.871311210096,1,0,1721031.31392834,1721032.36098866,3,1,62,0,8
31,222,600.075619062409,0,0,1721033.87865644,1721034.92572639,3,0,92,4,0
31,223,468.073275638744,0,0,1721036.69045134,1721037.73751705,3,0,73,8,8
31,224,413.991649867967,0,0,1721039.29048306,1721040.33755301,3,0,85,8,16
31,225,442.653533536941,0,0,1721041.81991987,1721042.86699097,3,0,72,0,4
31,226,390.194518258795,0,0,1721044.34935822,1721045.39642624,3,0,62,8,4
31,227,556.760966777802,1,0,1721046.89056252,1721047.93769136,3,1,93,4,8
31,228,350.885384716094,1,0,1721049.59647467,1721050.64354308,3,1,84,8,4
31,229,639.189962763339,0,0,1721052.10238343,1721053.14945685,3,0,88,0,16
31,230,575.683722738177,0,0,1721054.93771561,1721055.98477324,3,0,68,4,8
31,231,999.316322384402,1,0,1721057.71420959,1721058.76127877,3,1,71,16,4
31,232,763.931557768956,1,0,1721060.96130294,1721062.00837404,3,1,70,8,16
31,233,597.1148845274,0,0,1721063.86722233,1721064.91428458,3,0,94,4,0
31,234,519.310424569994,1,0,1721066.67902069,1721067.72607832,3,1,84,0,4
31,235,728.275703499094,0,0,1721069.38492515,1721070.4319924,3,0,97,8,8
31,236,625.95923920162,0,0,1721072.37319539,1721073.42025725,3,0,62,4,16
31,237,555.791250197217,0,0,1721075.16145685,1721076.20855567,3,0,63,8,4
31,238,647.940510185435,0,0,1721077.86737208,1721078.91443702,3,0,68,4,4
31,239,631.284789182246,0,0,1721080.73798978,1721081.78506088,3,0,91,0,16
31,240,549.780854489654,1,0,1721083.51448453,1721084.56156333,3,1,62,16,16
31,241,704.155204584822,1,0,1721109.66771131,1721110.71477972,4,1,78,8,16
31,242,510.275775799528,1,0,1721112.52657076,1721113.57364417,4,1,62,0,8
31,243,638.287229230627,1,0,1721115.18542606,1721116.23248869,4,1,69,4,4
31,244,474.27037730813,1,0,1721117.97369483,1721119.02075862,4,1,64,4,16
31,245,719.723410904408,1,0,1721120.56199564,1721121.60902478,4,1,88,16,0
31,246,702.107597142458,1,0,1721123.52668779,1721124.57376005,4,1,69,0,8
31,247,582.31544517912,0,0,1721126.33848769,1721127.38555879,4,0,97,0,8
31,248,678.956429939717,0,0,1721129.03263351,1721130.07970269,4,0,91,8,8
31,249,862.383398693055,1,0,1721131.85623208,1721132.90329587,4,1,77,8,8
31,250,456.497114384547,1,0,1721134.80916714,1721135.85623362,4,1,78,16,4
31,251,512.570913182572,0,0,1721137.36213584,1721138.40920771,4,0,88,4,0
31,252,639.807824976742,1,0,1721140.07981086,1721141.12691738,4,1,96,8,0
31,253,541.017988231033,0,0,1721142.93867147,1721143.98576375,4,0,64,4,0
31,254,660.963739501312,1,0,1721145.6916374,1721146.73874777,4,1,80,8,16
31,255,481.409093132243,0,0,1721148.57402452,1721149.62109138,4,0,62,0,4
31,256,901.138573419303,0,0,1721151.30346317,1721152.35053081,4,0,79,16,0
31,257,602.999782655388,0,0,1721154.362316,1721155.40938749,4,0,98,0,8
31,258,518.045058008283,1,0,1721157.16235188,1721158.20941837,4,1,77,8,16
31,259,502.27513234131,1,0,1721159.82120525,1721160.86827828,4,1,94,8,8
31,260,375.325786182657,1,0,1721162.48006016,1721163.52712857,4,1,86,0,16
31,261,423.814698820934,0,0,1721164.96243858,1721166.00955395,4,0,63,0,0
31,262,785.617178538814,1,0,1721167.50365712,1721168.55071282,4,1,90,16,4
31,263,730.073856189847,0,0,1721170.42132013,1721171.4683893,4,0,70,16,8
31,264,421.448728768155,0,0,1721173.39782211,1721174.44489206,4,0,77,4,16
31,265,467.189405346289,0,0,1721175.93903179,1721176.98609558,4,0,85,0,16
31,266,484.789435518906,0,0,1721178.46847399,1721179.51554009,4,0,64,4,16
31,267,466.890290379524,1,1,1721181.17439346,1721182.22150806,4,0,68,16,0
31,268,589.623159263283,0,0,1721183.7744144,1721184.82148743,4,0,79,4,4
31,269,674.666039878502,1,0,1721186.51561516,1721187.56267818,4,1,73,4,0
31,270,662.471246672794,0,0,1721189.42152801,1721190.46860219,4,0,79,8,4
31,271,652.575055370107,0,0,1721192.26868195,1721193.31568953,4,0,82,16,8
31,272,523.327877279371,0,0,1721195.02158975,1721196.06866085,4,0,73,8,8
31,273,727.894976967946,0,0,1721197.73927517,1721198.78633895,4,0,69,16,4
31,274,683.150579687208,0,0,1721200.66871798,1721201.71577715,4,0,88,4,8
31,275,586.441841907799,1,0,1721203.43344909,1721204.48052135,4,1,96,0,0
31,276,631.130419904366,0,0,1721206.22171787,1721207.26879705,4,0,73,4,16
31,277,533.720668405294,0,0,1721209.04527409,1721210.09234327,4,0,93,16,8
31,278,673.392589204013,1,0,1721211.72765705,1721212.77472314,4,1,98,4,16
31,279,609.008638421074,0,0,1721214.46886742,1721215.51594045,4,0,67,16,16
31,280,434.870007680729,1,0,1721217.26889445,1721218.31602098,4,1,78,0,16
31,281,582.641507266089,0,0,1721219.85715907,1721220.90422593,4,0,89,0,0
31,282,566.645224578679,1,0,1721222.65719456,1721223.70425989,4,1,89,4,8
31,283,595.560411922634,0,0,1721225.35133692,1721226.39840725,4,0,95,8,0
31,284,495.684600435197,1,0,1721228.11607111,1721229.16314144,4,1,96,16,16
31,285,570.725040510297,0,0,1721230.66904481,1721231.71610745,4,0,72,0,16
31,286,640.847989590839,1,0,1721233.32789395,1721234.3750074,4,1,88,4,4
31,287,664.791406365111,1,0,1721236.12797217,1721237.17499862,4,1,93,16,0
31,288,719.860841752961,0,0,1721238.88094889,1721239.92796763,4,0,80,8,16
31,289,595.276310807094,1,0,1721241.76328672,1721242.81035397,4,1,96,8,0
31,290,598.017617827281,0,0,1721244.55155396,1721245.59862352,4,0,70,8,4
31,291,721.991600701585,1,0,1721247.25746034,1721248.30453375,4,1,72,8,16
31,292,418.888353509828,0,0,1721250.05750045,1721251.1045677,4,0,76,16,4
31,293,618.646905990317,1,0,1721252.64576353,1721253.69282116,4,1,63,0,8
31,294,506.096254801378,1,0,1721255.3163686,1721256.36344279,4,1,100,0,0
31,295,555.436701048166,1,0,1721257.89287074,1721258.93993761,4,1,62,8,8
31,296,426.060176221654,1,1,1721260.56348351,1721261.61060081,4,0,82,0,4
31,297,707.093611592427,1,0,1721263.22234612,1721264.269418,4,1,91,16,16
31,298,462.006675777957,1,0,1721266.06943386,1721267.11655924,4,1,83,4,4
31,299,491.641740547493,0,0,1721268.75181296,1721269.79888945,4,0,88,0,4
31,300,398.766828933731,1,0,1721271.37537119,1721272.4224854,4,1,86,4,0
31,301,532.058021984994,1,0,1721273.88128457,1721274.92835837,4,1,95,16,0
31,302,354.443963849917,0,0,1721276.56366291,1721277.61074209,4,0,67,8,0
31,303,546.122955624014,0,0,1721279.09310972,1721280.14017698,4,0,62,0,4
31,304,459.861288312823,0,0,1721281.88140237,1721282.9285035,4,0,91,4,8
31,305,394.934542477131,1,1,1721284.44610892,1721285.49317925,4,0,99,16,8
31,306,712.981589371338,0,0,1721287.09319904,1721288.14027129,4,0,88,16,16
31,307,568.203546339646,1,0,1721289.95205656,1721290.9991165,4,1,94,4,8
31,308,570.821280824021,1,0,1721292.64619507,1721293.69327657,4,1,79,0,16
31,309,621.900981059298,1,0,1721295.30505614,1721296.35211839,4,1,79,4,0
31,310,391.490681795403,1,0,1721298.12861352,1721299.17568385,4,1,66,8,4
31,311,679.008014500141,0,0,1721300.61099886,1721301.65806342,4,0,92,16,16
31,312,617.57555953227,1,0,1721303.3522127,1721304.39935733,4,1,61,16,4
31,313,887.25149189122,0,0,1721306.12870245,1721307.17577547,4,0,87,0,4
31,314,688.444947823882,0,0,1721309.19932854,1721310.24639271,4,0,88,0,0
31,315,622.235511895269,1,0,1721312.14053307,1721313.18760648,4,1,97,16,8
31,316,1178.42479865067,1,0,1721314.89350362,1721315.94057818,4,1,70,4,4
31,317,438.385471235961,1,0,1721318.152371,1721319.1994344,4,1,78,4,8
31,318,534.514072816819,1,0,1721320.65827707,1721321.70534894,4,1,84,8,4
31,319,1063.40847280808,0,0,1721323.39946974,1721324.44654431,4,0,93,8,4
31,320,750.720082316548,0,0,1721326.51716309,1721327.56423265,4,0,68,8,0
31,321,698.232965078205,1,0,1721339.67025128,1721340.71732084,5,1,61,16,16
31,322,533.631357364357,1,0,1721342.52910689,1721343.57617452,5,1,88,8,16
31,323,463.890289654955,1,0,1721345.24678653,1721346.29389458,5,1,73,4,4
31,324,722.674136515707,1,0,1721347.79975369,1721348.84682633,5,1,80,0,8
31,325,489.366236142814,1,0,1721350.58802131,1721351.63508625,5,1,98,0,16
31,326,408.676109043881,0,0,1721353.29393924,1721354.3410038,5,0,84,8,0
31,327,581.733769271523,0,0,1721355.76454554,1721356.81166246,5,0,98,0,8
31,328,721.14430158399,0,0,1721358.57634583,1721359.62341539,5,0,68,8,16
31,329,415.233534062281,1,0,1721361.38814073,1721362.43520952,5,1,66,16,8
31,330,542.09202947095,1,0,1721363.92934656,1721364.97641651,5,1,68,4,16
31,331,560.250252950937,1,0,1721366.58820186,1721367.63527373,5,1,90,4,0
31,332,400.78017488122,0,0,1721369.22352834,1721370.27060098,5,0,65,8,16
31,333,639.258100651205,1,0,1721371.69413734,1721372.74120613,5,1,91,0,0
31,334,498.328512301669,0,0,1721374.55299564,1721375.60006674,5,0,79,16,4
31,335,744.715076405555,1,0,1721377.28244854,1721378.32950155,5,1,62,16,16
31,336,512.334932107478,1,0,1721380.10600322,1721381.15306624,5,1,73,0,0
31,337,469.079178525135,1,0,1721382.70606651,1721383.75309604,5,1,66,4,8
31,338,572.395001305267,1,0,1721385.27077075,1721386.31783492,5,1,65,0,4
31,339,852.886796696112,1,0,1721388.04726857,1721389.09433467,5,1,92,8,4
31,340,643.568508559838,1,0,1721391.03553458,1721392.0826026,5,1,85,16,8
31,341,557.534738210961,1,0,1721393.83556699,1721394.88263232,5,1,80,0,0
31,342,486.208786489442,0,0,1721396.5650095,1721397.61207175,5,0,74,4,16
31,343,540.885176742449,1,0,1721399.15327681,1721400.20035946,5,1,69,0,4
31,344,416.418058797717,0,0,1721401.78859444,1721402.83565784,5,0,67,8,0
31,345,503.478520084172,1,0,1721404.44745205,1721405.49451776,5,1,98,4,0
31,346,489.466711180285,1,0,1721407.15336304,1721408.20042799,5,1,93,4,4
31,347,409.757079556584,1,1,1721409.71809462,1721410.76516687,5,0,92,4,8
31,348,522.728107869625,0,0,1721412.25930546,1721413.30637463,5,0,83,16,16
31,349,474.475176306441,0,1,1721414.85933179,1721415.90639557,5,1,91,4,8
31,350,817.654399666935,0,0,1721417.41229857,1721418.45936736,5,0,80,4,16
31,351,511.717839632183,1,0,1721420.4241084,1721421.47116256,5,1,87,8,16
31,352,679.752914002165,1,0,1721423.13001632,1721424.1771186,5,1,72,8,8
31,353,531.369326869026,1,0,1721425.90651568,1721426.95358062,5,1,92,8,0
31,354,470.189020968974,0,0,1721428.65952242,1721429.70655811,5,0,65,4,0
31,355,538.503808202222,1,0,1721431.27128044,1721432.31834653,5,1,67,0,4
31,356,481.929175555706,0,0,1721434.0007241,1721435.04779443,5,0,67,0,4
31,357,620.919330511242,1,0,1721436.60075351,1721437.64786272,5,1,63,8,4
31,358,616.297104163095,1,0,1721439.36549078,1721440.41255918,5,1,84,0,16
31,359,713.932058075443,1,0,1721442.05963159,1721443.10670539,5,1,96,4,8
31,360,1038.73209003359,0,0,1721444.95378658,1721446.00089964,5,0,100,16,16
31,361,660.702735884115,1,0,1721448.15382846,1721449.20088802,5,1,73,0,4
31,362,422.628634143621,1,0,1721451.04776578,1721452.09503953,5,1,74,16,4
31,363,439.566146582365,0,0,1721453.64801016,1721454.69506895,5,0,76,8,8
31,364,1043.23189868592,0,0,1721456.18927105,1721457.23627555,5,0,100,8,8
31,365,532.438748283312,0,0,1721459.29512646,1721460.34219564,5,0,79,16,4
31,366,436.432949034497,0,0,1721462.05986604,1721463.10693406,5,0,70,0,16
31,367,611.992085818201,0,0,1721464.58930054,1721465.63636971,5,0,74,16,0
31,368,623.959367163479,1,0,1721467.28344674,1721468.33056096,5,1,79,16,8
31,369,629.963988205418,0,0,1721470.14230158,1721471.18937422,5,0,86,16,0
31,370,968.424744904041,1,0,1721473.01292698,1721474.05999153,5,1,100,4,16
31,371,581.914701033384,0,0,1721476.14237472,1721477.18947623,5,0,100,16,8
31,372,655.045734718442,0,0,1721478.86005089,1721479.90711969,5,0,92,4,8
31,373,585.31275135465,0,0,1721481.61302491,1721482.66008947,5,0,70,16,0
31,374,630.490229697898,0,0,1721484.43657882,1721485.48365224,5,0,85,8,0
31,375,776.443558745086,0,0,1721487.17779305,1721488.22485761,5,0,82,8,8
31,376,612.482911208645,1,0,1721490.13076892,1721491.17783617,5,1,91,16,0
31,377,461.789172841236,1,0,1721493.00143474,1721494.04845618,5,1,66,8,8
31,378,553.970384877175,0,0,1721495.66023806,1721496.7073057,5,0,67,8,4
31,379,556.639704154804,0,0,1721498.30733396,1721499.35439466,5,0,69,8,16
31,380,468.906331108883,0,0,1721501.01324803,1721502.06031028,5,0,62,0,16
31,381,649.465340655297,0,0,1721503.70738847,1721504.75445841,5,0,90,0,8
31,382,694.454573327675,0,0,1721506.50742165,1721507.55448852,5,0,90,8,0
31,383,571.862985147163,0,0,1721509.27215584,1721510.31923733,5,0,94,4,4
31,384,561.286182841286,1,0,1721512.09571668,1721513.14279202,5,1,97,0,8
31,385,879.742443095893,0,0,1721514.77811003,1721515.8251819,5,0,72,16,4
31,386,545.169407268986,1,0,1721517.80171699,1721518.84875114,5,1,97,4,4
31,387,686.541700735688,0,0,1721520.42522825,1721521.47228934,5,0,63,4,4
31,388,948.783651925623,1,0,1721523.29583017,1721524.34293784,5,1,100,8,4
31,389,632.003126433119,1,0,1721526.35470148,1721527.40176719,5,1,92,16,8
31,390,396.179506322369,1,0,1721529.10766279,1721530.15474544,5,1,84,0,16
31,391,423.648395575583,1,1,1721531.74304855,1721532.79006307,5,0,99,0,8
31,392,688.111186493188,0,0,1721534.30773778,1721535.35479425,5,0,65,4,0
31,393,644.120542565361,1,0,1721537.21364793,1721538.26071557,5,1,80,16,16
31,394,543.032489018515,0,0,1721539.91956162,1721540.96662926,5,0,61,4,0
31,395,665.672582108527,0,0,1721542.55489388,1721543.60195382,5,0,71,8,4
31,396,682.872637640685,0,0,1721545.46080134,1721546.50787128,5,0,61,16,4
31,397,547.64278139919,0,0,1721548.40201395,1721549.44907735,5,0,79,0,0
31,398,633.745074737817,0,0,1721551.1197317,1721552.16675853,5,0,88,16,0
31,399,518.713350174949,0,0,1721553.86089627,1721554.90796622,5,0,95,0,0
31,400,662.643324350938,1,0,1721556.56681304,1721557.61388337,5,1,73,4,16
31,401,593.298766529188,0,0,1721589.62600733,1721590.67307767,6,0,88,4,16
31,402,544.641625834629,1,0,1721592.30840145,1721593.35546177,6,1,82,8,16
31,403,779.798878356814,1,0,1721594.92018988,1721595.96729948,6,1,96,16,4
31,404,498.568342998624,1,0,1721597.80256968,1721598.84964309,6,1,63,16,16
31,405,437.259460333735,0,0,1721600.39083006,1721601.43790886,6,0,63,0,16
31,406,509.35879885219,0,0,1721603.00262735,1721604.04970422,6,0,68,4,16
31,407,634.155058301985,1,0,1721605.74383541,1721606.79090305,6,1,90,16,8
31,408,537.866313010454,0,0,1721608.62623292,1721609.67329517,6,0,97,8,4
31,409,609.464816981927,0,0,1721611.26154862,1721612.30861857,6,0,72,0,4
31,410,538.931884802878,0,0,1721614.09687618,1721615.14394613,6,0,78,8,0
31,411,516.417827922851,0,0,1721616.82631984,1721617.87338825,6,0,87,0,16
31,412,583.970392355695,1,0,1721619.55576004,1721620.60283538,6,1,100,8,8
31,413,516.039411537349,1,0,1721622.20285209,1721623.24991934,6,1,97,16,16
31,414,727.086559170857,1,0,1721624.8146459,1721625.86171855,6,1,88,8,8
31,415,533.567453967407,0,0,1721627.73231854,1721628.77939156,6,0,79,8,16
31,416,459.443605737761,1,0,1721630.48529756,1721631.53236058,6,1,73,8,16
31,417,624.542583245784,1,0,1721633.03826318,1721634.08533544,6,1,91,0,16
31,418,564.848611596972,0,0,1721635.90889513,1721636.9559951,6,0,61,0,4
31,419,607.639332069084,0,0,1721638.60303402,1721639.65010358,6,0,72,8,16
31,420,901.87461883761,0,0,1721641.41483892,1721642.46189617,6,0,71,8,4
31,421,409.998449962586,0,0,1721644.47369252,1721645.52075901,6,0,77,0,0
31,422,352.800180437043,0,0,1721647.01488989,1721648.06197216,6,0,67,0,8
31,423,531.417061807588,0,0,1721649.45021684,1721650.49728139,6,0,69,16,16
31,424,426.240722648799,0,0,1721652.0502578,1721653.09731542,6,0,79,4,8
31,425,667.878793319687,1,0,1721654.5326235,1721655.57969461,6,1,88,4,4
31,426,426.415495108813,1,0,1721657.30912672,1721658.35619436,6,1,97,16,0
31,427,381.169878412038,0,1,1721659.85039261,1721660.89740558,6,1,62,0,8
31,428,650.470858672634,0,0,1721662.41507298,1721663.46214293,6,0,80,16,16
31,429,615.71465828456,1,0,1721665.23863036,1721666.28574419,6,1,91,4,4
31,430,682.404140243307,0,0,1721667.9210137,1721668.96808749,6,0,80,8,8
31,431,566.13014661707,0,0,1721670.76810066,1721671.81517484,6,0,84,0,16
31,432,621.15762126632,1,0,1721673.47401666,1721674.52109277,6,1,75,16,0
31,433,426.53675773181,1,0,1721676.19169438,1721677.23876625,6,1,85,4,4
31,434,605.336110806093,0,0,1721678.82701893,1721679.87409312,6,0,87,4,8
31,435,596.435813466087,0,0,1721681.53293186,1721682.5800018,6,0,99,8,16
31,436,703.805275028571,1,0,1721684.21531404,1721685.26242018,6,1,62,8,4
31,437,431.65712361224,0,0,1721687.00358628,1721688.05065431,6,0,95,0,8
31,438,711.246570339426,1,0,1721689.54478981,1721690.59185822,6,1,88,16,0
31,439,649.432234000415,1,0,1721692.34481645,1721693.39188524,6,1,69,16,8
31,440,960.086875595152,1,0,1721695.18014593,1721696.22722165,6,1,69,4,4
31,441,614.726078463718,1,0,1721698.22730096,1721699.27432471,6,1,99,16,4
31,442,827.79157650657,0,0,1721701.07434211,1721702.12140012,6,0,65,4,0
31,443,493.705901317298,1,0,1721703.98024687,1721705.02734415,6,1,96,0,4
31,444,385.920296888798,0,0,1721706.63910101,1721707.6861929,6,0,85,4,16
31,445,416.537011740729,0,0,1721709.16854629,1721710.21560815,6,0,85,0,0
31,446,406.948019517586,1,0,1721711.74505074,1721712.79214494,6,1,76,4,0
31,447,495.126792229712,0,0,1721714.26272198,1721715.30978654,6,0,96,4,0
31,448,611.097436398268,0,0,1721716.86274524,1721717.90981441,6,0,100,4,0
31,449,698.544783517718,0,0,1721719.68630454,1721720.73337911,6,0,90,4,8
31,450,518.675239058211,1,0,1721722.63928618,1721723.68635689,6,1,94,16,0
31,451,665.619457373396,1,0,1721725.23931366,1721726.28638476,6,1,89,8,8
31,452,577.35214359127,0,0,1721728.1335491,1721729.18053474,6,0,97,8,4
31,453,566.574006574228,1,0,1721730.80409412,1721731.85115291,6,1,84,0,4
31,454,1032.47108496726,0,0,1721733.54528679,1721734.59238908,6,0,73,8,0
31,455,746.921287616715,0,0,1721736.72179409,1721737.76890176,6,0,76,16,8
31,456,699.557615676895,1,0,1721739.6512396,1721740.69831263,6,1,96,8,0
31,457,621.656915638596,1,0,1721742.52192082,1721743.56895997,6,1,83,16,8
31,458,448.472218355164,0,0,1721745.2042418,1721746.25131752,6,0,76,0,4
31,459,651.115668239072,1,0,1721747.85133615,1721748.89840225,6,1,90,4,4
31,460,802.945811068639,1,0,1721750.639603,1721751.68666833,6,1,82,16,0
31,461,691.11503707245,0,0,1721753.54551007,1721754.59258117,6,0,92,8,0
31,462,740.296879550442,0,0,1721756.40436876,1721757.46321119,6,0,78,4,8
31,463,501.710009528324,1,0,1721759.39268211,1721760.43971664,6,1,65,4,0
31,464,800.54596462287,1,0,1721761.98090323,1721763.02797087,6,1,90,16,4
31,465,677.227955078706,1,0,1721764.87505629,1721765.92212392,6,1,74,16,4
31,466,968.904791399837,1,0,1721767.60450149,1721768.65159453,6,1,99,4,8
31,467,690.112598473206,0,0,1721770.72217905,1721771.76925092,6,0,81,0,0
31,468,924.965347163379,0,0,1721773.66339012,1721774.7105259,6,0,82,0,8
31,469,609.763161977753,0,0,1721776.71051127,1721777.75761471,6,0,79,0,0
31,470,611.470848554745,1,0,1721779.43992452,1721780.4870014,6,1,97,4,16
31,471,916.562804253772,1,0,1721782.25172827,1721783.29879321,6,1,95,4,16
31,472,551.309149712324,0,0,1721785.298819,1721786.34588972,6,0,79,0,0
31,473,653.081663884223,0,0,1721787.93414318,1721788.98121505,6,0,81,16,16
31,474,897.489913273603,1,0,1721790.66358183,1721791.71064986,6,1,67,8,0
31,475,742.699420778081,0,0,1721793.81655916,1721794.8636318,6,0,62,16,8
31,476,821.935550309718,1,0,1721796.74600852,1721797.7930777,6,1,71,0,16
31,477,434.455019887537,1,0,1721799.71078613,1721800.75785184,6,1,77,8,8
31,478,619.50960336253,0,0,1721802.36959292,1721803.41666864,6,0,78,0,8
31,479,887.453981209546,1,0,1721805.21669336,1721806.26376099,6,1,66,8,4
31,480,703.767548780888,1,0,1721808.34619615,1721809.3932045,6,1,83,16,4
31,481,546.955626225099,0,0,1721836.01704028,1721837.06411139,7,0,83,16,16
31,482,454.318620497361,1,1,1721838.65236176,1721839.69942747,7,0,69,8,0
31,483,570.426695747301,0,0,1721841.2170864,1721842.26415789,7,0,98,0,8
31,484,705.047928960994,1,0,1721843.89948399,1721844.94655085,7,1,97,4,8
31,485,529.493026901037,1,0,1721846.72309564,1721847.77011362,7,1,97,0,16
31,486,553.812935715541,0,0,1721849.44078645,1721850.48779018,7,0,90,4,16
31,487,460.543439025059,1,0,1721852.18193138,1721853.22900364,7,1,75,0,8
31,488,508.518044138327,1,0,1721854.82901611,1721855.87608875,7,1,71,0,0
31,489,641.64832350798,0,0,1721857.53493288,1721858.58199821,7,0,88,0,16
31,490,747.023302130401,1,0,1721860.41732192,1721861.46438648,7,1,82,8,4
31,491,595.186614897102,1,0,1721863.27616174,1721864.32326172,7,1,71,0,8
31,492,523.159264354035,0,0,1721866.07620917,1721867.12327681,7,0,85,16,0
31,493,457.955346442759,1,0,1721868.72331353,1721869.77038078,7,1,86,4,0
31,494,669.475996401161,1,0,1721871.2880324,1721872.33509888,7,1,94,4,4
31,495,630.497929174453,1,0,1721874.14688223,1721875.19396218,7,1,79,8,4
31,496,789.632321335375,1,0,1721876.95868405,1721878.00575015,7,1,84,16,8
31,497,378.47322691232,1,0,1721879.91165299,1721880.95872447,7,1,65,16,4
31,498,440.575129119679,0,0,1721882.35874549,1721883.40581274,7,0,66,16,8
31,499,738.447142066434,0,0,1721884.95876643,1721886.00584331,7,0,91,4,0
31,500,738.745871465653,0,0,1721887.92351363,1721888.97059282,7,0,97,16,16
31,501,758.460877230391,0,0,1721890.86472548,1721891.91179234,7,0,92,4,8
31,502,419.716789387167,0,0,1721893.82947729,1721894.87652992,7,0,95,0,4
31,503,745.893441839144,0,0,1721896.33537682,1721897.38244484,7,0,90,8,0
31,504,554.843091173097,0,0,1721899.24129352,1721900.28842968,7,0,91,0,4
31,505,446.172846481204,1,0,1721901.86484828,1721902.91191476,7,1,83,16,16
31,506,432.40356282331,0,0,1721904.38252107,1721905.42959063,7,0,75,8,8
31,507,630.709657678381,1,0,1721906.88844831,1721907.93551402,7,1,98,16,0
31,508,624.106422066689,0,0,1721909.57081202,1721910.61788196,7,0,68,16,4
31,509,516.646494856104,1,0,1721912.34731716,1721913.3943948,7,1,95,4,0
31,510,441.371613414958,1,0,1721914.99443461,1721916.041483,7,1,84,4,4
31,511,654.546440346166,1,0,1721917.50031796,1721918.54738945,7,1,77,8,16
31,512,646.042267791927,1,0,1721920.32388227,1721921.3709553,7,1,90,0,16
31,513,1250.38208672777,1,0,1721923.10038626,1721924.14745043,7,1,98,4,8
31,514,562.941514886916,0,0,1721926.57101027,1721927.61807329,7,0,98,16,0
31,515,822.809411911294,1,0,1721929.32399353,1721930.3710577,7,1,72,16,4
31,516,574.904561741278,1,0,1721932.27696554,1721933.32403433,7,1,81,4,0
31,517,545.113972853869,1,0,1721934.94757677,1721935.99464403,7,1,66,4,4
31,518,387.942111585289,1,0,1721937.59466689,1721938.64173645,7,1,65,4,16
31,519,412.463739747182,0,0,1721940.12410409,1721941.17117442,7,0,65,4,16
31,520,627.132985275239,0,0,1721942.75943288,1721943.80649474,7,0,78,16,16
31,521,406.763238133863,0,0,1721945.59475851,1721946.64183539,7,0,62,8,16
31,522,484.857958508655,0,0,1721948.19482373,1721949.24186287,7,0,98,0,4
31,523,623.039310565218,1,0,1721950.865398,1721951.91247719,7,1,95,8,0
31,524,631.71633053571,0,0,1721953.68896577,1721954.73603842,7,0,80,8,16
31,525,654.996074736118,1,0,1721956.41840905,1721957.46548208,7,1,82,16,0
31,526,414.424346061423,1,0,1721959.21843492,1721960.26550872,7,1,65,8,8
31,527,610.123870195821,0,0,1721961.83024144,1721962.87730446,7,0,90,0,0
31,528,754.063083324581,0,0,1721964.52437764,1721965.57144836,7,0,69,0,0
31,529,903.221597196534,0,0,1721967.48912676,1721968.53619479,7,0,69,4,16
31,530,408.443592488766,1,0,1721970.6068051,1721971.65387774,7,1,97,0,8
31,531,578.602496767417,1,0,1721973.25389329,1721974.30096016,7,1,72,8,0
31,532,685.28942274861,1,0,1721975.99510367,1721977.04216977,7,1,65,8,8
31,533,695.940522709861,0,0,1721978.93631628,1721979.98338546,7,0,61,16,16
31,534,1897.85139192827,0,0,1721981.88928983,1721982.93636094,7,0,74,0,8
31,535,570.825515547767,1,0,1721985.88933641,1721986.93642715,7,1,82,0,4
31,536,601.841050200164,1,0,1721988.58353382,1721989.63054718,7,1,98,16,8
31,537,683.881235308945,0,0,1721991.28940209,1721992.3365063,7,0,61,0,16
31,538,805.203992174938,0,0,1721994.20707241,1721995.25414698,7,0,91,8,4
31,539,884.611429413781,1,0,1721997.13652408,1721998.18358941,7,1,62,16,4
31,540,624.878653790802,0,0,1722000.10130939,1722001.14834816,7,0,81,16,4
31,541,536.905065411702,0,0,1722002.94839674,1722003.9954151,7,0,82,0,0
31,542,477.214173646644,1,0,1722005.57189876,1722006.61899258,7,1,94,4,0
31,543,408.071720274165,1,0,1722008.12487863,1722009.17195204,7,1,64,4,8
31,544,657.337022479624,0,0,1722010.68961405,1722011.73668053,7,0,99,0,4
31,545,587.762642884627,1,0,1722013.45435055,1722014.50142011,7,1,93,4,4
31,546,669.919471489266,0,0,1722016.21913593,1722017.26615661,7,0,100,8,4
31,547,549.23228523694,1,0,1722019.13677315,1722020.18383809,7,1,94,0,16
31,548,373.759764712304,0,0,1722021.77209232,1722022.81916188,7,0,74,16,8
31,549,625.868003582582,0,0,1722024.37218024,1722025.41919245,7,0,97,16,0
31,550,619.060354074463,1,0,1722027.19568873,1722028.24275598,7,1,97,8,0
31,551,574.675895040855,1,0,1722029.87812789,1722030.92514587,7,1,93,0,0
31,552,497.86001490429,1,0,1722032.68986697,1722033.73697734,7,1,65,4,16
31,553,692.362695466727,0,0,1722035.41930178,1722036.46637673,7,0,86,16,8
31,554,1088.87518011034,0,0,1722038.34878309,1722039.39582262,7,0,81,8,16
31,555,1063.15747811459,0,0,1722041.65471849,1722042.70173531,7,0,62,8,8
31,556,1438.67996637709,0,0,1722044.94888526,1722045.99599062,7,0,86,4,4
31,557,465.500581311062,1,0,1722048.63122625,1722049.67829658,7,1,98,8,4
31,558,597.105260472745,1,0,1722051.325374,1722052.37243894,7,1,69,4,8
31,559,394.443717319518,0,0,1722053.98422429,1722055.03129962,7,0,74,8,8
31,560,387.325019342825,0,0,1722056.53718991,1722057.58426448,7,0,84,8,16
31,561,1593.47392385826,0,0,1722092.13760005,1722093.1846723,8,0,84,0,16
31,562,654.450970003381,0,0,1722095.9847051,1722097.03177466,8,0,82,16,4
31,563,911.358901998028,0,0,1722098.8906218,1722099.93769098,8,0,81,16,16
31,564,508.60966485925,0,0,1722101.90241739,1722102.94949003,8,0,74,16,8
31,565,455.860388930887,1,0,1722104.46717437,1722105.51427049,8,1,73,16,8
31,566,609.016722533852,1,0,1722107.03188977,1722108.07895817,8,1,81,4,4
31,567,543.977183289826,1,0,1722109.87899097,1722110.92605361,8,1,85,4,0
31,568,643.024943536147,0,0,1722112.63195421,1722113.67902993,8,0,78,4,8
31,569,647.618683055043,0,0,1722115.51434017,1722116.56140819,8,0,91,16,4
31,570,418.432944687083,0,0,1722118.36142636,1722119.40849862,8,0,64,0,4
31,571,703.183562960476,1,0,1722120.94969906,1722121.99675862,8,1,76,0,4
31,572,576.264628907666,1,0,1722123.85561037,1722124.90268224,8,1,90,0,16
31,573,955.943155568093,1,0,1722126.49093223,1722127.53805376,8,1,84,8,4
31,574,493.46222076565,1,0,1722129.67921086,1722130.72627311,8,1,73,4,0
31,575,437.826892826706,1,0,1722132.3498271,1722133.39689474,8,1,96,0,16
31,576,776.886263862252,0,0,1722134.90280081,1722135.94986498,8,0,82,16,16
31,577,538.633540039882,1,0,1722137.78517907,1722138.83224709,8,1,72,8,0
31,578,965.360840782523,0,0,1722140.47932373,1722141.52640099,8,0,91,0,8
31,579,1195.81772014499,0,0,1722143.59701246,1722144.64408433,8,0,84,8,8
31,580,535.213546827435,1,0,1722146.97351891,1722148.02059232,8,1,92,4,0
31,581,855.476044118404,0,0,1722149.64413592,1722150.6912024,8,0,64,8,8
31,582,830.427789129317,0,0,1722152.73829506,1722153.78536038,8,0,98,4,4
31,583,781.34141699411,1,0,1722155.69127092,1722156.73833702,8,1,68,8,8
31,584,649.155447026715,0,0,1722158.64423947,1722159.69130788,8,0,87,0,8
31,585,634.979644557461,0,0,1722161.38544754,1722162.43251941,8,0,93,0,4
31,586,466.475302586332,0,0,1722164.26783427,1722165.31490806,8,0,75,8,16
31,587,1021.85309166089,1,0,1722166.87965195,1722167.9267065,8,1,87,16,0
31,588,486.639557639137,1,0,1722170.07967459,1722171.12673414,8,1,69,0,8
31,589,763.406470883638,1,0,1722172.66792958,1722173.71500338,8,1,82,4,16
31,590,398.714089300483,1,0,1722175.67972902,1722176.72680051,8,1,95,8,16
31,591,508.597730891779,1,0,1722178.18566473,1722179.23270889,8,1,66,16,0
31,592,549.879789585248,0,0,1722180.79744431,1722181.84451887,8,0,77,4,0
31,593,570.033265976235,0,0,1722183.51511663,1722184.56218543,8,0,76,0,0
31,594,406.953408848494,1,0,1722186.30344316,1722187.35045651,8,1,79,4,16
31,595,781.164335086942,0,0,1722188.92694056,1722189.9740055,8,0,69,4,8
31,596,393.046309007332,1,0,1722191.77402867,1722192.82109438,8,1,65,16,4
31,597,573.176856851205,0,0,1722194.32700046,1722195.37406347,8,0,70,0,16
31,598,918.657761765644,0,0,1722196.9623662,1722198.00945694,8,0,80,8,0
31,599,774.460239801556,1,0,1722200.10353716,1722201.1506098,8,1,91,16,8
31,600,408.341193106025,1,0,1722202.95063105,1722203.99769985,8,1,71,16,0
31,601,404.480804456398,1,0,1722205.45653712,1722206.50361054,8,1,82,8,16
31,602,593.975527677685,0,0,1722207.98598048,1722209.0330485,8,0,89,4,8
31,603,542.843473143876,0,0,1722210.680134,1722211.72720356,8,0,89,0,0
31,604,501.992570934817,0,0,1722213.38604577,1722214.43311648,8,0,69,0,8
31,605,531.078681349754,1,0,1722215.93901755,1722216.98615333,8,1,85,4,4
31,606,556.882614502683,0,0,1722218.6331653,1722219.68025334,8,0,95,4,16
31,607,449.817271903157,0,0,1722221.43320002,1722222.48026727,8,0,75,0,8
31,608,724.245931953192,1,0,1722224.06852265,1722225.11559222,8,1,68,4,4
31,609,425.528545165434,1,0,1722226.98620068,1722228.03327062,8,1,78,8,0
31,610,388.762078480795,1,0,1722229.4921156,1722230.539174,8,1,67,4,4
31,611,408.365060575306,0,0,1722232.12743092,1722233.17450318,8,0,74,8,8
31,612,569.733766140416,0,0,1722234.65687427,1722235.70398079,8,0,83,8,4
31,613,647.660643560812,0,0,1722237.30396093,1722238.35103357,8,0,96,16,16
31,614,721.891510766,0,0,1722240.06870012,1722241.11576968,8,0,84,8,16
31,615,477.772751823068,1,0,1722242.91578824,1722243.96289437,8,1,77,8,0
31,616,629.125543404371,1,0,1722245.4805252,1722246.52759976,8,1,70,0,0
31,617,469.180423300713,0,0,1722248.23349729,1722249.280568,8,0,68,4,16
31,618,738.208081340417,1,0,1722250.85706013,1722251.90435952,8,1,86,0,4
31,619,505.556154297665,0,0,1722253.65709332,1722254.70416172,8,0,94,0,0
31,620,449.275631923229,1,0,1722256.29245406,1722257.33950014,8,1,64,4,8
31,621,616.34868895635,1,0,1722258.99832656,1722260.04539882,8,1,94,8,4
31,622,686.208324506879,0,0,1722261.79836052,1722262.84543008,8,0,69,4,8
31,623,527.865412179381,0,0,1722264.69251319,1722265.73957967,8,0,73,0,4
31,624,622.642415808514,0,0,1722267.42199111,1722268.46902256,8,0,80,0,0
31,625,388.618488097563,1,0,1722270.12786862,1722271.17493818,8,1,87,4,0
31,626,663.32778474316,1,0,1722272.71618906,1722273.7632336,8,1,83,16,4
31,627,409.729362232611,1,0,1722275.53969216,1722276.58675902,8,1,96,4,16
31,628,701.137880561873,0,0,1722278.11624626,1722279.16326501,8,0,97,8,4
31,629,556.29670387134,0,0,1722281.02210791,1722282.0691767,8,0,94,16,0
31,630,375.457827700302,1,0,1722283.83389934,1722284.88097699,8,1,75,0,16
31,631,870.780166937038,1,0,1722286.36335039,1722287.41045614,8,1,71,8,0
31,632,719.306883169338,0,0,1722289.48103181,1722290.52810406,8,0,90,16,4
31,633,532.837182981893,1,0,1722292.26930058,1722293.31640826,8,1,81,8,8
31,634,463.868731865659,1,0,1722294.9752085,1722296.02228307,8,1,92,8,16
31,635,916.385337244719,1,0,1722297.50464878,1722298.55171526,8,1,65,16,0
31,636,670.879948884249,0,0,1722300.62233904,1722301.66941053,8,0,99,16,8
31,637,609.112192876637,0,0,1722303.54001167,1722304.58709432,8,0,84,16,16
31,638,605.513577815145,1,0,1722306.26945418,1722307.31652721,8,1,62,16,16
31,639,626.785365631804,0,0,1722308.97539867,1722310.02244629,8,0,67,16,8
31,640,559.684360167012,1,0,1722311.83423041,1722312.88130382,8,1,89,8,4
31,641,658.002619864419,1,0,1722344.97578479,1722346.02289092,9,1,70,0,4
31,642,721.17894818075,0,0,1722347.6934625,1722348.74052475,9,0,99,4,0
31,643,568.531148135662,1,0,1722350.66996218,1722351.71703174,9,1,96,8,0
31,644,436.64236785844,0,0,1722353.37587856,1722354.4229462,9,0,97,0,8
31,645,554.537817137316,0,0,1722356.02297022,1722357.07003863,9,0,94,8,16
31,646,612.797809066251,1,0,1722358.74064024,1722359.78775061,9,1,66,16,8
31,647,429.025915451348,1,0,1722361.44655586,1722362.4936208,9,1,63,0,8
31,648,415.979588404298,1,0,1722364.09365252,1722365.14072824,9,1,65,4,0
31,649,508.810999337584,0,0,1722366.64661853,1722367.69368694,9,0,73,16,4
31,650,568.665884435177,0,0,1722369.34076512,1722370.38783391,9,0,61,8,0
31,651,574.928429443389,1,0,1722372.10550277,1722373.15261738,9,1,91,0,16
31,652,803.805043920875,1,0,1722374.90553981,1722375.95261091,9,1,100,4,4
31,653,721.996605396271,0,0,1722377.85851913,1722378.90557792,9,0,82,8,16
31,654,544.493800727651,1,0,1722380.74089701,1722381.78796541,9,1,72,8,8
31,655,519.569888245314,0,0,1722383.50563543,1722384.55269845,9,0,71,4,8
31,656,528.96717027761,0,0,1722386.12919635,1722387.17626245,9,0,86,0,8
31,657,646.36871474795,1,0,1722388.78806666,1722389.83511158,9,1,71,4,16
31,658,781.422258820385,0,0,1722391.59984115,1722392.64690725,9,0,95,8,0
31,659,434.664053609595,1,0,1722394.51752841,1722395.56459528,9,1,66,16,4
31,660,656.973234144971,0,0,1722397.14108548,1722398.18815659,9,0,69,0,4
31,661,426.005126675591,0,0,1722400.04700911,1722401.09406597,9,0,66,8,16
31,662,611.369603779167,1,0,1722402.65883988,1722403.70586633,9,1,80,16,8
31,663,621.01595569402,1,0,1722405.44706785,1722406.49413049,9,1,82,16,4
31,664,649.730193661526,0,0,1722408.17648842,1722409.22356491,9,0,68,16,0
31,665,558.458644431084,1,0,1722410.9294786,1722411.97654085,9,1,81,0,0
31,666,771.096450975165,0,0,1722413.61190313,1722414.65894382,9,0,98,16,16
31,667,829.190524527803,1,0,1722416.50600576,1722417.55307417,9,1,65,4,8
31,668,851.990992436185,0,0,1722419.50604387,1722420.55314924,9,0,78,8,4
31,669,669.509872794151,1,0,1722422.43549054,1722423.4825628,9,1,94,4,4
31,670,1113.61777572893,1,0,1722425.2943523,1722426.34141955,9,1,70,4,4
31,671,951.994996052235,0,0,1722428.62380266,1722429.67086645,9,0,88,8,4
31,672,649.742127628997,0,0,1722431.75324348,1722432.8003115,9,0,78,0,0
31,673,877.550090430304,0,0,1722434.60034276,1722435.64740346,9,0,70,16,16
31,674,621.55490112491,1,0,1722437.70625822,1722438.75332278,9,1,88,4,4
31,675,870.127658359706,1,0,1722440.54158155,1722441.58864533,9,1,71,8,4
31,676,565.116159617901,0,0,1722443.5416185,1722444.58869114,9,0,87,0,0
31,677,559.814092004672,0,0,1722446.23576586,1722447.28287546,9,0,73,0,16
31,678,789.743190165609,0,0,1722448.88286561,1722449.9299752,9,0,84,0,16
31,679,839.708043262362,1,0,1722451.8830169,1722452.92995865,9,1,90,16,4
31,680,536.492772167549,1,0,1722454.92998675,1722455.9770463,9,1,100,4,0
31,681,1234.12364558317,0,0,1722457.56530053,1722458.61237548,9,0,72,0,8
31,682,715.209743473679,0,0,1722461.0124015,1722462.05947684,9,0,68,4,16
31,683,777.820948977023,0,0,1722463.90654263,1722464.95362605,9,0,99,4,0
31,684,718.410693807527,1,0,1722466.9301238,1722467.97718759,9,1,93,16,16
31,685,743.691080017015,1,0,1722469.75368657,1722470.80077384,9,1,96,0,4
31,686,541.429126402363,0,0,1722472.69489379,1722473.74195681,9,0,75,8,16
31,687,596.41425544396,1,0,1722475.34197813,1722476.38904923,9,1,64,4,0
31,688,391.661989502609,1,0,1722478.10672695,1722479.15378342,9,1,76,0,4
31,689,335.586651228368,0,0,1722480.61264072,1722481.65969681,9,0,76,16,0
31,690,756.673118798062,0,0,1722483.01265635,1722484.05972745,9,0,89,16,0
31,691,477.20377962105,1,0,1722485.94210378,1722486.98917412,9,1,94,0,16
31,692,390.530974138528,1,0,1722488.56565893,1722489.61272965,9,1,84,4,16
31,693,767.780012451112,0,0,1722491.1774539,1722492.224525,9,0,63,16,0
31,694,585.892117582262,0,0,1722494.08337291,1722495.13044632,9,0,92,8,8
31,695,439.145384123549,0,1,1722496.80105062,1722497.84811325,9,1,91,16,8
31,696,618.345096474513,1,0,1722499.36578566,1722500.41285368,9,1,100,0,8
31,697,1103.6723095458,0,0,1722502.17758556,1722503.22465243,9,0,73,16,0
31,698,443.142433650792,1,0,1722505.41291027,1722506.45998637,9,1,73,0,0
31,699,594.141446053982,1,0,1722507.90705039,1722508.95412842,9,1,62,16,16
31,700,567.664601141587,0,0,1722510.58944182,1722511.63651253,9,0,77,8,8
31,701,517.513811821118,1,0,1722513.38946461,1722514.43656843,9,1,77,16,4
31,702,425.707936752588,0,0,1722515.98959218,1722517.03657705,9,0,74,4,16
31,703,772.640529321507,0,0,1722518.50718105,1722519.55428911,9,0,84,4,8
31,704,418.090714374557,1,0,1722521.47192247,1722522.51899011,9,1,74,8,16
31,705,739.717898191884,1,0,1722524.06019094,1722525.10726204,9,1,71,0,0
31,706,422.052732435986,0,0,1722527.03669562,1722528.08376672,9,0,74,8,0
31,707,516.326977172866,0,0,1722529.64848944,1722530.69555477,9,0,77,0,4
31,708,799.943500664085,0,0,1722532.2838036,1722533.33087855,9,0,97,8,4
31,709,647.406954318285,0,0,1722535.15442554,1722536.20149933,9,0,69,4,4
31,710,506.09740964137,1,0,1722538.03681342,1722539.08388799,9,1,65,4,8
31,711,937.953929882497,1,0,1722540.68391047,1722541.73097079,9,1,73,16,8
31,712,408.183743944392,1,0,1722543.70746276,1722544.75453771,9,1,87,4,8
31,713,728.83351193741,1,0,1722546.23691844,1722547.28398107,9,1,99,4,16
31,714,652.090004412457,0,0,1722549.04870255,1722550.09577596,9,0,82,8,8
31,715,688.779093790799,1,0,1722551.89584456,1722552.94286793,9,1,72,0,16
31,716,532.303242012858,0,0,1722554.77818279,1722555.82525235,9,0,74,8,4
31,717,407.260222826153,1,0,1722557.42527406,1722558.47234709,9,1,83,8,0
31,718,524.607872357592,0,0,1722559.94294762,1722560.99002295,9,0,62,16,16
31,719,997.189027955756,0,0,1722562.6723932,1722563.71946469,9,0,100,8,8
31,720,521.653681993485,1,0,1722565.90772215,1722566.95482366,9,1,84,16,8
