sub_id,Trial,RT,Resp,Error,Fix_onset,Disp_onset,block,tid,tloc,fish_setsize,bird_setsize
7,1,612.202451331541,0,0,1032797.34686234,1032798.39394114,1,0,87,16,0
7,2,627.145481063053,0,0,1032800.15867148,1032801.20573257,1,0,84,16,8
7,3,671.703172498383,0,0,1032802.84111102,1032803.8881213,1,0,77,8,4
7,4,598.1479116017,0,0,1032805.71171294,1032806.75874131,1,0,95,8,4
7,5,587.369004730135,1,0,1032808.42935716,1032809.47643058,1,1,71,0,8
7,6,595.822747447528,0,0,1032811.19409867,1032812.24116245,1,0,84,4,0
7,7,512.340498389676,0,0,1032813.92358429,1032814.97060766,1,0,71,4,8
7,8,531.952719436958,0,0,1032816.61768777,1032817.66475502,1,0,91,8,8
7,9,587.803625734523,1,0,1032819.35895088,1032820.40597579,1,1,94,4,0
7,10,488.241172279231,1,0,1032822.02951438,1032823.07658394,1,1,96,8,4
7,11,583.067450905219,1,0,1032824.62954572,1032825.67661913,1,1,71,16,0
7,12,570.890365866944,1,0,1032827.32369962,1032828.37076803,1,1,98,0,16
7,13,444.451862946153,1,0,1032830.05314829,1032831.10020977,1,1,73,0,8
7,14,606.754098902456,0,0,1032832.72376722,1032833.77084025,1,0,72,4,8
7,15,591.006115893833,0,0,1032835.48850218,1032836.53557405,1,0,72,16,16
7,16,604.264171444811,0,0,1032838.20618259,1032839.25325793,1,0,77,4,4
7,17,646.447423612699,0,0,1032841.01797826,1032842.0650509,1,0,93,8,4
7,18,752.486075158231,1,0,1032843.86507869,1032844.91214825,1,1,94,0,4
7,19,657.283689710312,0,0,1032846.81808882,1032847.86513105,1,0,67,8,16
7,20,550.613702158444,0,0,1032849.6298456,1032850.6769194,1,0,95,16,4
7,21,658.482843078673,0,0,1032852.32400182,1032853.37106522,1,0,89,4,0
7,22,494.707361562178,1,0,1032855.08874332,1032856.13580364,1,1,64,8,16
7,23,507.067303056829,1,0,1032857.8064195,1032858.85347674,1,1,95,8,8
7,24,531.093486584723,0,0,1032860.46527672,1032861.51233896,1,0,64,8,0
7,25,709.938650019467,0,0,1032863.0653069,1032864.11237453,1,0,80,16,16
7,26,610.912832198665,0,0,1032865.86534355,1032866.91246816,1,0,98,16,0
7,27,501.832988928072,0,0,1032868.71247131,1032869.75949468,1,0,63,16,4
7,28,506.793980835937,0,0,1032871.35956528,1032872.40658634,1,0,95,8,8
7,29,603.325636591762,0,0,1032873.94779025,1032874.99485943,1,0,78,4,4
7,30,527.621908695437,0,0,1032876.71252713,1032877.75959823,1,0,92,0,0
7,31,594.949271064252,0,0,1032879.33608767,1032880.38315376,1,0,91,16,8
7,32,613.214513752609,0,0,1032882.05376192,1032883.10084187,1,0,86,8,4
7,33,651.654020533897,1,0,1032884.77144772,1032885.81851189,1,1,85,8,8
7,34,506.438276963308,1,0,1032887.55972188,1032888.60678875,1,1,84,8,0
7,35,638.511838275008,1,0,1032890.27739421,1032891.32446069,1,1,62,4,4
7,36,435.768683557399,1,0,1032893.04213379,1032894.08921028,1,1,77,4,16
7,37,577.249536057934,0,0,1032895.61863592,1032896.66570279,1,0,81,8,8
7,38,512.002117699012,1,0,1032898.25396664,1032899.30101965,1,1,61,16,0
7,39,653.193864505738,0,0,1032900.8657543,1032901.91283117,1,0,75,16,4
7,40,549.314458854496,1,0,1032903.61873832,1032904.66580712,1,1,85,0,16
7,41,959.229359403253,1,0,1032906.37170387,1032907.4187742,1,1,81,16,8
7,42,744.92274725344,0,0,1032909.418805,1032910.46587033,1,0,74,0,0
7,43,823.760057333857,1,0,1032912.36004302,1032913.4070864,1,1,91,4,16
7,44,1947.57659116294,0,0,1032915.34828631,1032916.3953501,1,0,77,4,16
7,45,1220.15859361272,1,0,1032919.44245046,1032920.48952271,1,1,71,8,0
7,46,532.975175883621,1,0,1032922.87778625,1032923.92491625,1,1,73,0,0
7,47,634.483606787398,0,0,1032925.50134679,1032926.54841866,1,0,89,0,16
7,48,573.657850152813,0,0,1032928.26608791,1032929.31315593,1,0,75,0,4
7,49,544.207566767,1,0,1032931.05435283,1032932.10142201,1,1,68,4,8
7,50,472.665266832337,1,0,1032933.6779561,1032934.7249887,1,1,65,8,0
7,51,634.830456692725,1,0,1032936.24265225,1032937.28972643,1,1,83,16,8
7,52,412.240254576318,0,0,1032939.11327303,1032940.16034914,1,0,77,0,4
7,53,679.329249076545,0,0,1032941.66625098,1032942.71332131,1,0,71,8,16
7,54,494.780504144728,0,0,1032944.48987457,1032945.53687946,1,0,74,4,4
7,55,596.603833255358,1,0,1032947.18396572,1032948.23102566,1,1,71,16,16
7,56,851.199689670466,0,0,1032949.92517341,1032950.97223335,1,0,98,8,16
7,57,593.863296206109,0,0,1032953.00756352,1032954.05462808,1,0,77,16,16
7,58,492.734436644241,0,0,1032955.80760402,1032956.85471708,1,0,89,0,16
7,59,476.130685419776,1,0,1032958.43115686,1032959.4782295,1,1,81,0,8
7,60,757.949056220241,1,0,1032961.0664868,1032962.11355867,1,1,92,4,0
7,61,448.504731990397,1,0,1032964.05478283,1032965.10181775,1,1,74,0,4
7,62,553.205644246191,1,0,1032966.59595595,1032967.64302898,1,1,97,16,4
7,63,427.110526594333,1,0,1032969.38422434,1032970.43129352,1,1,83,0,0
7,64,587.713929708116,1,0,1032972.06660691,1032973.11368956,1,1,66,4,0
7,65,1249.75246738177,1,0,1032974.81958632,1032975.86665318,1,1,80,4,8
7,66,585.90230345726,1,0,1032978.18437956,1032979.23140716,1,1,90,4,16
7,67,585.41532792151,0,0,1032980.97260445,1032982.01967055,1,0,74,0,8
7,68,490.142879425548,1,0,1032983.70205004,1032984.74911652,1,1,86,8,16
7,69,397.332641296089,1,0,1032986.36090071,1032987.40797374,1,1,77,0,16
7,70,542.607669020072,1,0,1032988.84329452,1032989.89039988,1,1,98,8,0
7,71,659.272397984751,1,0,1032991.52575023,1032992.57273626,1,1,68,4,16
7,72,577.133277780376,0,0,1032994.37276405,1032995.41982938,1,0,77,0,4
7,73,539.481786079705,1,0,1032997.13750363,1032998.18457204,1,1,64,4,8
7,74,757.471704739146,0,0,1032999.73753535,1033000.78460491,1,0,89,16,4
7,75,607.502848026343,0,0,1033002.69051083,1033003.73758155,1,0,99,16,16
7,76,426.661277073435,1,0,1033005.54937606,1033006.59644023,1,1,73,0,8
7,77,613.110189326108,0,0,1033008.07881556,1033009.12588435,1,0,88,16,8
7,78,570.639371289872,1,0,1033010.86708434,1033011.91414813,1,1,70,4,4
7,79,410.760849597864,1,0,1033013.52594387,1033014.57300766,1,1,68,16,0
7,80,401.535260141827,1,0,1033016.16126034,1033017.2083299,1,1,87,0,0
7,81,907.525637652725,0,0,1033051.85580498,1033052.9028807,2,0,90,4,8
7,82,587.788997101597,0,0,1033054.96176549,1033056.00879886,2,0,61,8,8
7,83,641.447165631689,0,0,1033057.70294045,1033058.75001463,2,0,81,16,8
7,84,485.827082069591,0,0,1033060.46768157,1033061.51475921,2,0,73,16,4
7,85,507.677081273869,1,0,1033063.06771521,1033064.1147817,2,1,73,8,0
7,86,605.663889436983,0,0,1033065.67951481,1033066.7265836,2,0,94,4,8
7,87,630.652475403622,0,0,1033068.42071325,1033069.46778974,2,0,88,0,8
7,88,511.742269038223,1,0,1033071.27959003,1033072.3266465,2,1,80,16,4
7,89,436.934730387293,1,0,1033073.95019472,1033074.9972662,2,1,85,0,0
7,90,418.523202417418,0,0,1033076.47963999,1033077.52670301,2,0,75,0,0
7,91,598.066299920902,0,0,1033079.11495647,1033080.16203642,2,0,100,4,0
7,92,511.062043020502,0,0,1033081.76205736,1033082.80912115,2,0,86,0,16
7,93,458.256948040798,0,0,1033084.42094461,1033085.46799839,2,0,65,0,0
7,94,738.987804157659,1,0,1033086.96211349,1033088.00919229,2,1,90,16,8
7,95,518.017517752014,0,0,1033089.80921277,1033090.85627656,2,0,90,4,4
7,96,459.728268790059,1,0,1033092.55041815,1033093.59749194,2,1,79,16,16
7,97,464.502939605154,1,0,1033095.15045487,1033096.19751481,2,1,96,0,16
7,98,620.541860698722,1,0,1033097.70342704,1033098.75049121,2,1,80,8,8
7,99,664.213756914251,0,0,1033100.38580114,1033101.43287147,2,0,97,8,0
7,100,406.734157819301,0,0,1033103.26820057,1033104.31527206,2,0,80,0,4
7,101,500.804758281447,0,0,1033105.87998554,1033106.92710707,2,0,66,0,8
7,102,557.990708970465,1,0,1033108.53884699,1033109.58590808,2,1,98,4,16
7,103,488.218459649943,0,0,1033111.35064381,1033112.39771222,2,0,100,0,4
7,104,562.856615521014,0,0,1033114.03305063,1033115.08015484,2,0,85,0,8
7,105,602.044101455249,1,0,1033116.79777212,1033117.84484399,2,1,72,16,0
7,106,509.938726900145,0,0,1033119.55073497,1033120.59780838,2,0,83,0,4
7,107,518.302003853023,0,0,1033122.16254342,1033123.20960836,2,0,93,4,16
7,108,492.777937208302,1,0,1033124.89204598,1033125.93905241,2,1,76,16,4
7,109,587.123399600387,0,0,1033127.46849191,1033128.51555531,2,0,62,8,8
7,110,565.650662174448,1,0,1033130.15088372,1033131.19799139,2,1,88,16,0
7,111,720.054654055275,0,0,1033132.96267015,1033134.0097424,2,0,69,4,4
7,112,627.243646071292,1,0,1033135.77446851,1033136.82154269,2,1,92,8,4
7,113,1561.18203536607,0,0,1033138.58626841,1033139.63333835,2,0,81,8,0
7,114,655.309224850498,0,0,1033142.38631737,1033143.43338193,2,0,72,8,4
7,115,432.251295307651,1,1,1033145.29223061,1033146.33930171,2,0,89,0,16
7,116,613.538265926763,0,0,1033147.95107936,1033148.99816085,2,0,66,16,8
7,117,542.05486504361,1,0,1033150.73941473,1033151.78643001,2,1,89,16,16
7,118,613.226832472719,0,0,1033153.49232831,1033154.53939941,2,0,80,8,4
7,119,619.652600842528,1,0,1033156.17475823,1033157.22178236,2,1,72,16,16
7,120,586.059752502479,1,0,1033158.99828096,1033160.04535591,2,1,75,8,8
7,121,446.941405534744,1,0,1033161.79831645,1033162.84540488,2,1,72,0,0
7,122,538.385032210499,1,0,1033164.46893038,1033165.51600533,2,1,71,16,16
7,123,550.409672781825,1,0,1033167.17488873,1033168.22191441,2,1,79,4,4
7,124,506.626907852478,1,0,1033169.78664944,1033170.833714,2,1,94,8,0
7,125,403.883522027172,1,0,1033172.44550512,1033173.49256775,2,1,84,8,16
7,126,519.365265965462,0,0,1033175.03378398,1033176.0808343,2,0,65,8,16
7,127,644.036413170397,0,0,1033177.71615423,1033178.7632288,2,0,89,4,16
7,128,567.357194144279,1,0,1033180.53977013,1033181.5867908,2,1,61,8,8
7,129,506.317014223896,1,0,1033183.23387091,1033184.28092777,2,1,67,8,16
7,130,452.182649052702,1,0,1033185.88103879,1033186.92802905,2,1,71,0,4
7,131,607.404298032634,0,0,1033188.39863843,1033189.44570222,2,0,95,16,0
7,132,587.568799499422,0,0,1033191.21043718,1033192.25750097,2,0,61,0,4
7,133,547.496288316324,0,0,1033193.90458801,1033194.9516541,2,0,79,4,8
7,134,603.651698562317,1,0,1033196.61049785,1033197.65757126,2,1,90,4,0
7,135,491.407861118205,1,0,1033199.45759136,1033200.50466361,2,1,74,4,4
7,136,673.745005391538,0,0,1033202.17527215,1033203.22233863,2,0,86,16,4
7,137,462.858771323226,0,0,1033205.08119616,1033206.12825764,2,0,85,16,8
7,138,678.550857934169,1,0,1033207.66945578,1033208.71652996,2,1,62,8,4
7,139,485.524502815679,1,0,1033210.52831523,1033211.57538402,2,1,89,4,0
7,140,628.404688322917,1,0,1033213.22246682,1033214.26953523,2,1,90,4,8
7,141,631.505163968541,0,0,1033215.97544508,1033217.02251579,2,0,69,16,0
7,142,560.904093552381,1,0,1033218.70488681,1033219.75200796,2,1,86,16,8
7,143,590.430214302614,0,0,1033221.387274,1033222.43434125,2,0,76,8,4
7,144,569.22232999932,0,0,1033224.17554124,1033225.22260965,2,0,84,0,16
7,145,473.484848742373,0,0,1033226.89322434,1033227.94028736,2,0,76,0,8
7,146,429.502289043739,1,0,1033229.55207887,1033230.5991519,2,1,100,0,16
7,147,520.219494355842,1,0,1033232.08155379,1033233.1285837,2,1,100,4,0
7,148,454.341510077938,0,0,1033234.78743168,1033235.83450355,2,0,62,8,16
7,149,631.70110899955,1,0,1033237.42276471,1033238.4698335,2,1,72,16,16
7,150,485.016354359686,1,0,1033240.18749543,1033241.23456615,2,1,98,16,0
7,151,446.102960617282,0,0,1033242.89341682,1033243.94048523,2,0,96,0,8
7,152,543.55120821856,1,0,1033245.46991357,1033246.5170455,2,1,100,8,0
7,153,495.080003747717,1,0,1033248.15229999,1033249.19936955,2,1,88,4,4
7,154,578.723551472649,0,0,1033250.78762801,1033251.83470258,2,0,66,4,16
7,155,815.34481071867,1,0,1033253.47000712,1033254.51708168,2,1,95,4,16
7,156,488.263885024935,1,0,1033256.51710825,1033257.56417511,2,1,78,4,8
7,157,716.994984424673,0,0,1033259.15243742,1033260.19950275,2,0,92,8,16
7,158,512.552611879073,1,0,1033262.12894056,1033263.17600396,2,1,80,16,4
7,159,441.258611739613,1,0,1033264.87018558,1033265.91721396,2,1,99,0,0
7,160,607.454727869481,1,0,1033267.54077026,1033268.58784213,2,1,66,4,0
7,161,436.937809921801,0,0,1033303.40002429,1033304.44715506,3,0,79,8,0
7,162,480.08076986298,0,0,1033305.96476395,1033307.01183159,3,0,66,16,16
7,163,711.578198708594,1,0,1033308.69425073,1033309.74127794,3,1,71,16,16
7,164,578.804008313455,1,0,1033311.55310248,1033312.60019783,3,1,85,16,8
7,165,450.310583924875,1,1,1033314.2354504,1033315.28252612,3,0,80,8,0
7,166,701.495686196722,0,0,1033316.89430685,1033317.94137526,3,0,82,0,16
7,167,596.497969003394,1,0,1033319.69433041,1033320.74144232,3,1,64,8,16
7,168,647.354006650858,1,0,1033322.44731444,1033323.49438708,3,1,88,4,4
7,169,515.123766148463,1,0,1033325.18855061,1033326.23562479,3,1,61,0,0
7,170,530.454451451078,0,0,1033327.90620985,1033328.95327402,3,0,68,0,4
7,171,543.97466534283,0,0,1033330.57683378,1033331.62390527,3,0,65,0,8
7,172,497.611891943961,0,0,1033333.36510141,1033334.41216866,3,0,82,0,8
7,173,629.502597032115,0,0,1033336.11810429,1033337.16515461,3,0,69,0,16
7,174,480.468425550498,1,0,1033338.81222163,1033339.85929465,3,1,73,4,16
7,175,499.53207722865,1,0,1033341.47107538,1033342.51815033,3,1,62,4,0
7,176,560.753188910894,1,0,1033344.12992721,1033345.17700217,3,1,64,16,8
7,177,600.824545137584,0,0,1033346.80055577,1033347.84762495,3,0,91,8,4
7,178,626.26315059606,0,0,1033349.4593999,1033350.50648409,3,0,73,8,4
7,179,598.147141747177,1,0,1033352.31826474,1033353.36533739,3,1,93,16,4
7,180,627.866897848435,0,0,1033355.10653468,1033356.15360809,3,0,79,8,4
7,181,591.4068602724,0,0,1033357.83598026,1033358.88305406,3,0,90,0,8
7,182,546.11235356424,1,0,1033360.51816234,1033361.56543855,3,1,84,0,0
7,183,805.481340968981,1,0,1033363.18898677,1033364.2360598,3,1,99,4,8
7,184,754.221094306558,1,0,1033366.17725431,1033367.22433042,3,1,91,4,8
7,185,505.604066536762,0,0,1033369.01264655,1033370.05966144,3,0,63,8,0
7,186,569.026769837365,1,0,1033371.62438185,1033372.67148914,3,1,100,8,8
7,187,721.480934415013,1,0,1033374.35381512,1033375.40091548,3,1,88,16,16
7,188,725.102647207677,1,0,1033377.1891523,1033378.2362261,3,1,100,8,16
7,189,452.122595044784,0,0,1033380.14213125,1033381.18920119,3,0,75,4,16
7,190,797.707054414786,0,0,1033382.67157422,1033383.71864647,3,0,88,16,16
7,191,934.350102441385,0,0,1033385.7186688,1033386.76574529,3,0,61,4,8
7,192,450.412213569507,1,0,1033388.87165575,1033389.91872185,3,1,75,8,8
7,193,412.446593632922,0,0,1033391.57756713,1033392.62463285,3,0,67,0,4
7,194,511.801938060671,0,0,1033394.23642204,1033395.28349161,3,0,64,8,16
7,195,504.744063713588,0,0,1033396.98940068,1033398.03646447,3,0,83,0,4
7,196,550.281865755096,1,0,1033399.67179749,1033400.71883703,3,1,72,16,0
7,197,512.612280785106,1,0,1033402.43651898,1033403.48358738,3,1,63,0,16
7,198,576.008421834558,1,0,1033405.16595533,1033406.21304837,3,1,93,8,0
7,199,406.016975641251,0,0,1033407.91894359,1033408.96600583,3,0,76,8,8
7,200,420.167370699346,1,0,1033410.48367785,1033411.53074818,3,1,77,4,0
7,201,548.705450608395,1,1,1033412.96609591,1033414.0131366,3,0,99,16,8
7,202,667.797743459232,1,0,1033415.66020478,1033416.70728281,3,1,64,0,16
7,203,631.861252826639,0,0,1033418.56615805,1033419.61319758,3,0,78,16,0
7,204,522.95079245232,0,0,1033421.42504175,1033422.47205973,3,0,68,4,4
7,205,688.138310681097,1,0,1033424.04854531,1033425.09562026,3,1,81,4,0
7,206,433.226016350091,0,0,1033426.95446085,1033428.00153927,3,0,64,4,0
7,207,651.735632331111,0,0,1033429.63690848,1033430.68391953,3,0,82,16,16
7,208,501.215126714669,0,0,1033432.41335434,1033433.46043468,3,0,66,8,8
7,209,430.721075390466,0,0,1033434.98986533,1033436.03693643,3,0,67,0,4
7,210,532.78462018352,1,0,1033437.54284597,1033438.58995749,3,1,89,4,16
7,211,520.853910129517,1,0,1033440.15462592,1033441.20171358,3,1,63,0,0
7,212,501.884188735858,0,0,1033442.75465341,1033443.80173106,3,0,63,16,0
7,213,493.629085947759,1,0,1033445.44883811,1033446.49589651,3,1,73,16,4
7,214,584.275458473712,1,0,1033448.17824289,1033449.22532093,3,1,68,8,4
7,215,528.711733175442,0,0,1033451.00179835,1033452.04886945,3,0,86,16,0
7,216,619.828913011588,1,0,1033453.7077336,1033454.7548074,3,1,90,4,16
7,217,744.810723583214,1,0,1033456.46071069,1033457.50776601,3,1,80,0,8
7,218,647.339763119817,1,0,1033459.44897208,1033460.49604164,3,1,97,16,0
7,219,576.920009334572,1,0,1033462.31960248,1033463.3667167,3,1,99,16,8
7,220,508.89317295514,0,0,1033464.97845816,1033466.02556776,3,0,78,4,8
7,221,518.685039947741,1,0,1033467.71967278,1033468.76673349,3,1,85,8,0
7,222,677.978421095759,0,0,1033470.43734895,1033471.48441313,3,0,81,8,4
7,223,494.845562498085,1,0,1033473.23737944,1033474.28449289,3,1,73,4,0
7,224,615.94966147095,1,0,1033475.83741309,1033476.88447726,3,1,68,4,8
7,225,587.264295318164,0,0,1033478.56685868,1033479.61392362,3,0,72,0,4
7,226,698.863708064891,0,0,1033481.24924086,1033482.29630657,3,0,83,8,8
7,227,461.690029827878,0,0,1033484.13162412,1033485.17869368,3,0,66,8,16
7,228,620.225422782823,1,0,1033486.82577957,1033487.87284759,3,1,99,0,8
7,229,450.776001671329,0,0,1033489.5905153,1033490.63758332,3,0,68,4,4
7,230,884.300557896495,1,0,1033492.11995865,1033493.16702898,3,1,91,16,4
7,231,589.093629852869,0,0,1033495.07293836,1033496.1200087,3,0,61,8,16
7,232,586.484749335796,1,0,1033497.83767063,1033498.88475636,3,1,82,16,4
7,233,540.29212880414,1,1,1033500.59064849,1033501.63772075,3,0,90,16,8
7,234,570.158555055968,1,0,1033503.22603195,1033504.27304762,3,1,84,0,16
7,235,474.117339588702,0,0,1033505.93189444,1033506.97896323,3,0,66,4,4
7,236,860.213935608044,0,0,1033508.54368826,1033509.59076013,3,0,85,0,0
7,237,528.059609350748,0,0,1033511.59078207,1033512.63785048,3,0,83,0,0
7,238,777.527015772648,1,0,1033514.32026423,1033515.36728798,3,1,92,16,4
7,239,654.644397320226,1,0,1033517.17908326,1033518.22617207,3,1,61,4,4
7,240,664.949032361619,1,0,1033519.8967656,1033520.94383747,3,1,84,4,16
7,241,646.493618842214,0,0,1033555.81485014,1033556.86191932,4,0,84,8,16
7,242,676.564074470662,0,0,1033558.66194288,1033559.7090159,4,0,96,8,4
7,243,727.395089692436,0,0,1033561.41492267,1033562.46198876,4,0,88,8,0
7,244,869.333660695702,0,0,1033564.20318182,1033565.25025523,4,0,72,8,8
7,245,554.056792985648,1,0,1033567.20322224,1033568.25029065,4,1,88,4,0
7,246,443.485995871015,1,0,1033569.97972892,1033571.02680503,4,1,77,4,0
7,247,578.9826301625,0,0,1033572.54450476,1033573.59154199,4,0,81,16,16
7,248,552.720208419487,1,0,1033575.28567318,1033576.33274775,4,1,99,8,8
7,249,553.603308973834,0,0,1033577.93276214,1033578.9798344,4,0,82,16,0
7,250,590.243508224376,0,0,1033580.72103054,1033581.76810318,4,0,81,0,16
7,251,576.928478549235,1,0,1033583.56814945,1033584.61520284,4,1,63,8,0
7,252,433.76496178098,1,0,1033586.29756886,1033587.34463958,4,1,64,4,4
7,253,503.817847697064,1,0,1033588.90937384,1033589.95646419,4,1,62,4,0
7,254,490.70992693305,1,0,1033591.60351851,1033592.65058884,4,1,82,16,16
7,255,507.25285441149,0,0,1033594.33296794,1033595.38003905,4,0,61,0,8
7,256,670.309613691643,0,0,1033597.09770483,1033598.14477439,4,0,100,16,16
7,257,555.41493522469,1,0,1033599.90950126,1033600.95657583,4,1,99,16,8
7,258,502.819643937983,1,0,1033602.53306526,1033603.58013867,4,1,91,0,16
7,259,498.742907308042,0,0,1033605.13309313,1033606.18016231,4,0,94,16,16
7,260,637.484762468375,1,0,1033607.7095995,1033608.75667061,4,1,83,16,0
7,261,508.055498008616,0,0,1033610.60375526,1033611.6508075,4,0,96,0,0
7,262,534.254401107319,0,0,1033613.25084615,1033614.29790839,4,0,64,0,8
7,263,839.961909339763,0,0,1033615.95681296,1033617.00383133,4,0,63,0,8
7,264,606.802988913842,1,0,1033619.03918306,1033620.08621913,4,1,76,0,16
7,265,459.093468263745,1,0,1033621.81565009,1033622.86272042,4,1,84,4,4
7,266,514.500129385851,1,0,1033624.38039436,1033625.42745546,4,1,80,0,4
7,267,777.903507696465,1,0,1033627.01571507,1033628.06279233,4,1,99,16,4
7,268,654.710225644521,0,0,1033629.94516058,1033630.99223438,4,0,67,4,16
7,269,530.616135103628,1,0,1033632.8510742,1033633.89814645,4,1,98,8,16
7,270,539.983775001019,0,0,1033635.62757972,1033636.67465352,4,0,66,4,4
7,271,605.581892770715,0,0,1033638.30996884,1033639.35703378,4,0,90,8,0
7,272,480.878793867305,1,0,1033640.98065937,1033642.0276608,4,1,82,0,0
7,273,438.125414540991,1,0,1033643.53355994,1033644.58063797,4,1,67,8,8
7,274,611.598447547294,0,0,1033646.07478579,1033647.121895,4,0,72,4,4
7,275,531.210129731335,0,0,1033648.85127091,1033649.89834471,4,0,94,0,8
7,276,493.211403256282,0,0,1033651.55718576,1033652.60426148,4,0,75,4,8
7,277,492.464194074273,1,0,1033654.31016825,1033655.3572355,4,1,96,8,4
7,278,417.103466461413,1,0,1033656.8513737,1033657.89843671,4,1,85,16,8
7,279,428.658069577068,1,0,1033659.42786621,1033660.47493654,4,1,76,8,0
7,280,408.449159003794,1,0,1033661.9808507,1033663.02791371,4,1,77,16,4
7,281,429.436460719444,1,0,1033664.58087895,1033665.62794428,4,1,79,16,0
7,282,745.579490554519,1,0,1033667.18090644,1033668.22797292,4,1,72,16,0
7,283,494.370135827921,1,0,1033670.1809407,1033671.2280145,4,1,79,16,8
7,284,543.723285896704,0,0,1033672.89862496,1033673.94569452,4,0,63,16,8
7,285,745.884764706716,0,0,1033675.55749565,1033676.60460641,4,0,76,0,0
7,286,420.446082483977,1,0,1033678.54574819,1033679.5928266,4,1,85,0,4
7,287,406.549376668409,1,0,1033681.09872112,1033682.14578953,4,1,84,8,8
7,288,441.208182019182,1,0,1033683.58110069,1033684.62817834,4,1,83,8,16
7,289,500.366287771612,1,0,1033686.23995753,1033687.28703017,4,1,97,8,16
7,290,472.734174923971,1,1,1033688.86352307,1033689.91059725,4,0,98,4,8
7,291,954.540150007233,0,0,1033691.46356056,1033692.51062589,4,0,78,16,16
7,292,602.419438422658,1,0,1033694.51065091,1033695.55771701,4,1,72,4,4
7,293,510.217823670246,1,0,1033697.34598116,1033698.39304572,4,1,96,4,16
7,294,463.14364252612,0,0,1033699.95777537,1033701.00484377,4,0,85,8,16
7,295,600.532359792851,1,0,1033702.47545316,1033703.52253504,4,1,81,0,4
7,296,443.060614052229,0,0,1033705.20489798,1033706.25196908,4,0,78,0,16
7,297,729.523153975606,0,0,1033707.78144823,1033708.82847853,4,0,93,0,0
7,298,629.367090645246,0,0,1033710.61672767,1033711.66380224,4,0,84,16,4
7,299,720.189390471205,0,0,1033713.36970207,1033714.41677241,4,0,89,16,4
7,300,667.952497722581,0,0,1033716.3109143,1033717.3579854,4,0,70,0,4
7,301,569.011756335385,0,0,1033719.16977606,1033720.21684755,4,0,83,4,0
7,302,645.91078797821,0,0,1033721.8168658,1033722.86393228,4,0,80,0,8
7,303,536.150718806311,1,0,1033724.58160576,1033725.62867648,4,1,96,4,16
7,304,634.958263719454,0,0,1033727.16986845,1033728.21698383,4,0,76,8,4
7,305,962.419530958869,0,0,1033730.00519871,1033731.05226827,4,0,69,0,4
7,306,422.382435994223,0,0,1033733.19347195,1033734.24054421,4,0,75,4,8
7,307,821.415645070374,0,0,1033735.80526423,1033736.85234033,4,0,63,16,4
7,308,568.526320625097,1,0,1033738.75825126,1033739.8053162,4,1,73,16,8
7,309,489.762153010815,1,0,1033741.42886634,1033742.47593552,4,1,86,4,16
7,310,542.775896843523,1,0,1033744.13481968,1033745.18187462,4,1,68,4,0
7,311,1254.91864362266,0,0,1033746.74657654,1033747.79365304,4,0,67,8,8
7,312,652.807363658212,1,0,1033750.24075132,1033751.28781279,4,1,62,8,4
7,313,461.747389053926,1,0,1033753.13488821,1033754.18196085,4,1,73,4,8
7,314,709.987540030852,1,0,1033755.71139804,1033756.75846529,4,1,100,8,4
7,315,620.106469839811,0,0,1033758.55848423,1033759.60556227,4,0,70,0,0
7,316,688.480156008154,1,0,1033761.28793136,1033762.33499707,4,1,99,16,0
7,317,975.206009228714,1,0,1033764.18208557,1033765.22915398,4,1,74,0,16
7,318,1563.60343983397,0,0,1033767.35859172,1033768.40570439,4,0,78,4,16
7,319,790.607604314573,0,0,1033771.14689398,1033772.19394314,4,0,80,4,8
7,320,1379.62366722059,0,0,1033774.1116177,1033775.15868572,4,0,92,8,0
7,321,772.819713223726,0,0,1033810.71206479,1033811.75914206,5,0,72,16,16
7,322,496.632166323252,1,0,1033813.54739312,1033814.5944623,5,1,89,8,0
7,323,477.107716375031,1,0,1033816.12389526,1033817.17095828,5,1,89,16,4
7,324,478.081282693893,1,0,1033818.82980318,1033819.87688506,5,1,61,0,0
7,325,529.924360220321,0,0,1033821.42983952,1033822.47690947,5,0,61,8,16
7,326,678.580115083605,0,0,1033824.218116,1033825.26518017,5,0,89,8,4
7,327,517.98287127167,1,0,1033827.04167568,1033828.08874332,5,1,73,8,16
7,328,647.998431348242,1,0,1033829.794642,1033830.84171734,5,1,77,0,4
7,329,641.721642808989,1,0,1033832.52409298,1033833.57115907,5,1,100,4,4
7,330,604.539803462103,1,0,1033835.27706237,1033836.32413193,5,1,62,8,8
7,331,368.18878678605,1,0,1033838.05357714,1033839.100644,5,1,74,0,8
7,332,492.057290277444,0,0,1033840.55947974,1033841.60655315,5,0,73,16,4
7,333,503.834401024506,1,0,1033843.19483125,1033844.24193969,5,1,78,8,16
7,334,442.97399779316,1,0,1033845.91249318,1033846.95956043,5,1,74,8,4
7,335,484.175214660354,0,0,1033848.46546227,1033849.51253337,5,0,64,0,16
7,336,442.632537451573,0,0,1033851.08901857,1033852.13609352,5,0,84,4,8
7,337,703.011277480982,0,0,1033853.77141846,1033854.81847801,5,0,98,4,16
7,338,595.616408390924,0,0,1033856.70085242,1033857.74792468,5,0,89,8,0
7,339,644.199251546524,1,0,1033859.38324885,1033860.43030956,5,1,63,4,4
7,340,539.918716764078,1,0,1033862.26563173,1033863.31274902,5,1,78,16,8
7,341,591.823388007469,0,0,1033864.95978178,1033866.00685366,5,0,79,8,16
7,342,596.329741063528,0,0,1033867.65392684,1033868.70099717,5,0,65,8,8
7,343,363.668960169889,1,0,1033870.46572866,1033871.51281709,5,1,66,16,0
7,344,642.192065133713,1,0,1033872.9010556,1033873.94811862,5,1,67,4,8
7,345,657.303322688676,0,0,1033875.70108648,1033876.74815681,5,0,61,4,8
7,346,506.270818877965,0,0,1033878.60700394,1033879.65407543,5,0,95,0,8
7,347,512.579559115693,0,0,1033881.32468743,1033882.3717543,5,0,85,8,0
7,348,541.92282340955,1,0,1033883.99530483,1033885.04241827,5,1,100,8,4
7,349,716.188106220216,1,0,1033886.66590913,1033887.71298331,5,1,84,0,8
7,350,921.766883460805,1,0,1033889.5483228,1033890.59538159,5,1,61,4,16
7,351,578.456003568135,0,0,1033892.53658881,1033893.58365568,5,0,61,8,8
7,352,610.21220323164,0,0,1033895.32485951,1033896.37191906,5,0,81,4,16
7,353,712.207609787583,0,0,1033898.17195148,1033899.2190168,5,0,88,16,0
7,354,559.936301782727,1,0,1033901.0190446,1033902.06610877,5,1,67,0,0
7,355,557.977620279416,0,0,1033903.66613318,1033904.71323123,5,0,67,0,4
7,356,934.094103286043,0,0,1033906.277927,1033907.3250185,5,0,75,0,0
7,357,1037.6740093343,1,0,1033909.31330529,1033910.3603275,5,1,64,0,16
7,358,923.688993556425,0,0,1033912.56036015,1033913.60742779,5,0,95,0,16
7,359,723.432686529122,0,0,1033915.56039364,1033916.60745435,5,0,79,4,4
7,360,701.324763474986,1,0,1033918.36042721,1033919.40750139,5,1,63,16,8
7,361,612.600501044653,1,0,1033921.3134023,1033922.3604734,5,1,100,0,16
7,362,664.732684264891,0,0,1033924.07813996,1033925.12521529,5,0,70,16,8
7,363,656.790169770829,1,0,1033926.93700865,1033927.98408206,5,1,68,16,16
7,364,732.707166112959,0,0,1033929.67821056,1033930.72528551,5,0,73,8,8
7,365,1203.25418782886,1,0,1033932.5723667,1033933.61943857,5,1,77,16,4
7,366,462.191249011084,0,0,1033936.01946652,1033937.06653531,5,0,75,8,0
7,367,1142.689049826,0,0,1033938.59597481,1033939.64304322,5,0,70,4,8
7,368,612.432273104787,1,0,1033941.83129837,1033942.87836639,5,1,83,8,4
7,369,605.872153304517,0,0,1033944.60783661,1033945.65488038,5,0,72,16,8
7,370,691.239171312191,1,0,1033947.27842744,1033948.3254947,5,1,91,8,8
7,371,936.031996854581,1,0,1033950.07844715,1033951.12552827,5,1,87,16,4
7,372,947.446089354344,1,0,1033953.25496677,1033954.30203941,5,1,69,16,16
7,373,696.049643331207,1,0,1033956.38441528,1033957.43148985,5,1,64,16,0
7,374,785.903766285628,1,0,1033959.27857104,1033960.32568949,5,1,91,4,0
7,375,613.398140179925,0,0,1033962.25507456,1033963.30214681,5,0,80,0,8
7,376,530.529903713614,0,0,1033965.11393247,1033966.16100511,5,0,90,16,0
7,377,607.913601328619,1,0,1033967.73749917,1033968.78459529,5,1,93,0,0
7,378,608.212330960669,0,0,1033970.54929984,1033971.59636439,5,0,100,4,0
7,379,508.785768877715,0,0,1033973.23168241,1033974.27875043,5,0,99,0,0
7,380,616.68147216551,1,0,1033975.93764537,1033976.98467105,5,1,69,4,16
7,381,1319.68909513671,1,0,1033978.6906217,1033979.7376366,5,1,92,16,0
7,382,524.357054848224,0,0,1033982.22001462,1033983.26709689,5,0,89,0,8
7,383,652.794274967164,1,0,1033984.94946829,1033985.99655248,5,1,96,16,8
7,384,1287.8150974866,1,0,1033987.70243808,1033988.74952381,5,1,80,8,16
7,385,645.548924687319,1,0,1033991.13777926,1033992.18485152,5,1,85,4,4
7,386,640.253786696121,0,0,1033993.87898887,1033994.92605882,5,0,93,4,0
7,387,730.651474441402,0,0,1033996.60843561,1033997.65551018,5,0,74,4,8
7,388,2907.35625475645,1,0,1033999.50258444,1034000.54965477,5,1,64,0,4
7,389,565.539408475161,1,0,1034004.56147346,1034005.60854148,5,1,63,8,0
7,390,463.757270248607,1,0,1034007.32622189,1034008.37332725,5,1,87,0,4
7,391,2500,-1,-1,1034009.99682966,1034011.04390615,5,0,98,8,4
7,392,753.209801856428,0,0,1034015.25572745,1034016.30278854,5,0,68,16,4
7,393,565.113641670905,0,0,1034018.14987474,1034019.19693698,5,0,96,4,4
7,394,540.800662245601,1,0,1034020.84402672,1034021.89108435,5,1,89,4,0
7,395,464.583781431429,1,0,1034023.47935012,1034024.52642045,5,1,95,0,4
7,396,462.050738278776,0,0,1034026.16173115,1034027.20880187,5,0,85,4,16
7,397,607.370421406813,0,0,1034028.7264735,1034029.77354422,5,0,84,16,16
7,398,593.891013413668,0,0,1034031.56179913,1034032.60887254,5,0,95,0,16
7,399,383.848228841089,0,0,1034034.40894538,1034035.45596798,5,0,75,4,0
7,400,616.65452492889,0,0,1034036.85598553,1034037.90304932,5,0,81,16,16
7,401,632.684299256653,0,0,1034072.58582686,1034073.63289719,6,0,90,8,16
7,402,517.423522891477,0,0,1034075.27998153,1034076.32704262,6,0,75,16,16
7,403,636.591653106734,1,0,1034077.89176419,1034078.93883952,6,1,93,4,16
7,404,509.566469700076,1,0,1034080.75063519,1034081.79769744,6,1,85,8,16
7,405,605.413279845379,0,0,1034083.39772454,1034084.4447941,6,0,81,16,16
7,406,584.959919098765,1,0,1034086.06834347,1034087.1154265,6,1,95,0,4
7,407,408.940369146876,1,0,1034088.82132057,1034089.86839898,6,1,87,8,0
7,408,573.690571938641,1,0,1034091.36251947,1034092.40959866,6,1,78,16,8
7,409,516.841461881995,1,0,1034094.0684836,1034095.11550927,6,1,98,0,0
7,410,403.447361313738,1,0,1034096.71551943,1034097.76261094,6,1,65,8,4
7,411,500.924481078982,0,0,1034099.28031722,1034100.32733943,6,0,73,0,8
7,412,435.04572683014,0,0,1034101.93912439,1034102.98625516,6,0,75,8,4
7,413,503.440585918725,1,0,1034104.56267646,1034105.60975795,6,1,94,4,8
7,414,640.037823584862,1,0,1034107.15095224,1034108.19802257,6,1,71,0,16
7,415,497.990308562294,1,0,1034109.90392818,1034110.95099697,6,1,96,4,4
7,416,471.157759660855,1,0,1034112.46866591,1034113.51574895,6,1,95,16,8
7,417,427.786902990192,1,0,1034115.09223145,1034116.13928946,6,1,94,4,16
7,418,397.296839975752,1,0,1034117.66872589,1034118.71580084,6,1,97,0,16
7,419,418.097820598632,1,0,1034120.16287679,1034121.20994212,6,1,96,16,16
7,420,619.23260835465,0,0,1034122.66878363,1034123.71585897,6,0,77,4,0
7,421,628.364652395248,0,0,1034125.43352514,1034126.48059547,6,0,63,4,8
7,422,739.602971705608,1,0,1034128.19826202,1034129.24533389,6,1,76,4,16
7,423,566.889851586893,1,0,1034131.16301268,1034132.21007262,6,1,94,4,4
7,424,527.499106130563,0,0,1034133.9042196,1034134.95127607,6,0,66,0,4
7,425,714.248672826216,0,0,1034136.49248075,1034137.5395557,6,0,81,16,8
7,426,613.970962003805,0,0,1034139.32781139,1034140.37489481,6,0,79,8,0
7,427,612.561234971508,1,0,1034142.16313433,1034143.21021352,6,1,74,4,8
7,428,728.904906543903,0,0,1034144.93964217,1034145.98671442,6,0,80,16,0
7,429,602.516448590904,1,0,1034147.8220312,1034148.86909653,6,1,83,16,4
7,430,528.066538623534,1,0,1034150.64557703,1034151.69265737,6,1,83,8,0
7,431,664.936713641509,0,0,1034153.24562608,1034154.29275569,6,0,61,8,8
7,432,681.466937297955,0,0,1034156.02212698,1034157.06919577,6,0,78,16,4
7,433,722.631197888404,1,0,1034158.93984119,1034159.98687996,6,1,62,16,4
7,434,441.467645578086,1,0,1034161.83396461,1034162.88103301,6,1,64,4,0
7,435,553.998663788661,1,0,1034164.36340642,1034165.41047521,6,1,70,0,4
7,436,618.16280183848,0,0,1034167.12815331,1034168.17521864,6,0,99,8,8
7,437,499.483957188204,1,0,1034169.89288365,1034170.9399536,6,1,62,4,8
7,438,454.104374162853,1,0,1034172.52822014,1034173.5752847,6,1,72,8,4
7,439,662.8036450129,0,0,1034175.21071435,1034176.25766265,6,0,100,4,16
7,440,1230.41202872992,0,0,1034178.10473691,1034179.15184266,6,0,71,8,16
7,441,1167.69957845099,0,0,1034181.45773187,1034182.5048022,6,0,69,8,0
7,442,505.309956381097,1,0,1034184.7048333,1034185.75188516,6,1,75,0,0
7,443,461.823226301931,1,0,1034187.28133544,1034188.32843387,6,1,76,16,0
7,444,627.319483435713,0,0,1034189.81076802,1034190.85783989,6,0,69,0,16
7,445,661.317695630714,0,0,1034192.5637505,1034193.61082353,6,0,73,8,8
7,446,704.857550212182,0,0,1034195.44613723,1034196.49320794,6,0,98,0,8
7,447,570.574697921984,0,0,1034198.37557812,1034199.42264729,6,0,99,0,4
7,448,1037.88650769275,1,0,1034201.19915051,1034202.24627551,6,1,70,0,8
7,449,1041.93167749327,0,0,1034204.4580202,1034205.50508052,6,0,72,4,0
7,450,582.417251891457,0,0,1034207.72868356,1034208.7757077,6,0,95,0,4
7,451,479.365127393976,1,0,1034210.37572787,1034211.42279473,6,1,85,8,0
7,452,585.793744423427,0,0,1034213.05817434,1034214.10518885,6,0,84,4,4
7,453,1205.49196586944,1,0,1034215.89344647,1034216.94051102,6,1,66,16,0
7,454,1420.6986167701,0,0,1034219.15230615,1034220.19937725,6,0,92,4,0
7,455,595.122503465973,0,0,1034222.72881791,1034223.7758894,6,0,76,0,8
7,456,773.285515955649,1,0,1034225.54061473,1034226.5876893,6,1,77,4,16
7,457,2500,-1,-1,1034228.45829776,1034229.50536347,6,0,97,4,4
7,458,660.029616206884,1,0,1034233.69364942,1034234.74072129,6,1,71,16,4
7,459,548.515279893763,0,0,1034236.51722065,1034237.56428829,6,0,87,8,8
7,460,563.703914638609,1,0,1034239.17607864,1034240.22314359,6,1,69,8,4
7,461,408.09384000022,0,0,1034241.95257801,1034242.99965527,6,0,86,16,8
7,462,549.578157020733,1,0,1034244.434998,1034245.48203561,6,1,81,0,0
7,463,389.232292771339,1,0,1034247.10558113,1034248.15265261,6,1,74,0,0
7,464,635.093769873492,1,0,1034249.56446306,1034250.61150337,6,1,95,16,8
7,465,612.311010365374,0,0,1034252.42329634,1034253.47035936,6,0,66,8,8
7,466,543.145074509084,0,0,1034255.21157089,1034256.25863814,6,0,78,0,16
7,467,749.778259778395,0,0,1034257.90573865,1034258.95278858,6,0,69,8,4
7,468,568.606777465902,0,0,1034260.89398156,1034261.94105767,6,0,97,4,4
7,469,428.425938240252,0,0,1034263.69401705,1034264.74108469,6,0,93,0,8
7,470,552.494621369988,0,0,1034266.34110794,1034267.38818212,6,0,68,4,0
7,471,798.984354827553,1,0,1034269.12937133,1034270.17644821,6,1,99,16,0
7,472,487.314571277238,0,0,1034272.04705936,1034273.09413123,6,0,85,8,16
7,473,507.254009135067,0,0,1034274.60003076,1034275.64710725,6,0,74,16,0
7,474,687.243276508525,0,0,1034277.2941812,1034278.34125038,6,0,81,0,16
7,475,523.505906108767,1,0,1034280.21187231,1034281.25893379,6,1,67,8,16
7,476,445.962064783089,1,0,1034282.98836898,1034284.0354832,6,1,87,0,0
7,477,488.786277011968,0,0,1034285.68257871,1034286.72959207,6,0,85,16,4
7,478,632.228505564854,1,0,1034288.36490123,1034289.41197271,6,1,81,16,16
7,479,578.530301107094,1,0,1034291.07081723,1034292.11788564,6,1,86,4,8
7,480,725.525334244594,0,0,1034293.88262059,1034294.92968669,6,0,96,16,16
7,481,567.874966654927,0,0,1034329.89482155,1034330.94189303,7,0,98,4,4
7,482,668.926834012382,1,0,1034332.54190243,1034333.58898854,7,1,93,16,16
7,483,586.209502420388,1,0,1034335.41252629,1034336.4596047,7,1,98,16,16
7,484,754.246501717716,1,0,1034338.05962141,1034339.10669482,7,1,62,0,8
7,485,492.401060415432,1,0,1034340.97730829,1034342.024379,7,1,85,8,16
7,486,586.45318262279,1,0,1034343.68321467,1034344.7302927,7,1,84,8,4
7,487,609.169728821144,0,0,1034346.51855185,1034347.56561679,7,0,77,16,4
7,488,655.869728070684,0,0,1034349.21269729,1034350.25976954,7,0,70,8,8
7,489,381.403341656551,1,0,1034352.09508786,1034353.14215396,7,1,94,0,0
7,490,629.497977439314,0,0,1034354.6951165,1034355.74218607,7,0,78,8,16
7,491,446.045601274818,0,0,1034357.42455747,1034358.47163435,7,0,88,0,8
7,492,380.32160140574,1,0,1034360.09518179,1034361.14225597,7,1,84,4,0
7,493,397.103974479251,1,0,1034362.54227122,1034363.58934271,7,1,75,16,0
7,494,491.173419868574,0,0,1034365.09524223,1034366.14231487,7,0,77,4,0
7,495,386.283106869087,1,0,1034367.6482144,1034368.69528781,7,1,84,4,8
7,496,509.782432811335,1,0,1034370.27177416,1034371.3188418,7,1,87,4,0
7,497,474.034572951496,0,0,1034372.98945996,1034374.03653453,7,0,65,16,4
7,498,447.12233718019,0,0,1034375.69537135,1034376.74244091,7,0,75,16,8
7,499,462.011472205631,1,0,1034378.35422741,1034379.40130352,7,1,67,4,4
7,500,546.946563990787,0,0,1034380.98954928,1034382.03662307,7,0,65,4,4
7,501,475.274917203933,1,0,1034383.76605403,1034384.81315824,7,1,66,4,8
7,502,614.791698753834,0,0,1034386.4955104,1034387.54257033,7,0,98,4,8
7,503,524.609974119812,1,0,1034389.34259774,1034390.38965306,7,1,96,0,8
7,504,579.657466849312,1,0,1034392.00145381,1034393.04852876,7,1,72,4,4
7,505,778.735023341142,0,0,1034394.66031372,1034395.70737751,7,0,87,16,0
7,506,727.745019132271,0,0,1034397.56622888,1034398.61334079,7,0,71,8,0
7,507,805.000909720548,0,0,1034400.42508487,1034401.47215327,7,0,97,16,0
7,508,1023.20910117123,0,0,1034403.33099694,1034404.37806304,7,0,62,4,8
7,509,968.602388864383,0,0,1034406.51927442,1034407.56638787,7,0,76,0,16
7,510,656.287795631215,1,0,1034409.64872717,1034410.69579211,7,1,90,8,16
7,511,613.407379249111,1,0,1034412.40169156,1034413.44876459,7,1,79,8,4
7,512,698.173088137992,1,0,1034415.09584431,1034416.14291541,7,1,89,4,16
7,513,1202.38109631464,0,0,1034417.96646663,1034419.0135385,7,0,90,16,8
7,514,742.614906281233,1,0,1034421.28415836,1034422.33124062,7,1,68,8,8
7,515,1438.22588934563,0,0,1034424.26065187,1034425.30774415,7,0,85,0,16
7,516,470.37436417304,1,0,1034427.8254127,1034428.87248804,7,1,96,4,16
7,517,694.4836222101,0,0,1034430.43721191,1034431.48427723,7,0,98,4,0
7,518,1536.40979749616,0,0,1034433.28429925,1034434.33137228,7,0,93,16,16
7,519,530.690432526171,1,0,1034436.94316841,1034437.99024105,7,1,78,8,16
7,520,533.753951778635,0,0,1034439.61381544,1034440.66092466,7,0,83,0,16
7,521,623.957619303837,0,0,1034442.31970257,1034443.36677753,7,0,83,16,4
7,522,845.02722567413,1,0,1034445.02562012,1034446.07269199,7,1,89,16,8
7,523,1522.58122980129,1,0,1034448.06099187,1034449.10801947,7,1,72,8,4
7,524,602.355919894762,1,0,1034451.79039511,1034452.83746506,7,1,89,8,0
7,525,636.294463183731,0,0,1034454.59044215,1034455.63751441,7,0,79,16,16
7,526,548.501421348192,1,0,1034457.36695384,1034458.41401493,7,1,78,16,8
7,527,661.346182809211,0,0,1034460.15521261,1034461.20228756,7,0,91,16,16
7,528,536.463307100348,1,0,1034463.07289525,1034464.11997097,7,1,77,0,0
7,529,525.887274532579,1,0,1034465.69645617,1034466.74352688,7,1,70,0,4
7,530,664.63297943119,1,0,1034468.28478238,1034469.3317942,7,1,85,0,8
7,531,687.128173187375,0,0,1034471.0494696,1034472.09653878,7,0,99,8,0
7,532,482.341645518318,1,0,1034473.81420649,1034474.86127528,7,1,77,8,16
7,533,953.034182661213,1,0,1034476.36724756,1034477.41425245,7,1,80,4,8
7,534,618.975454592146,0,0,1034479.46133318,1034480.50840428,7,0,95,16,0
7,535,644.092232454568,0,0,1034482.2731273,1034483.32020071,7,0,91,16,4
7,536,549.00187056046,0,0,1034484.96728275,1034486.01435423,7,0,71,16,0
7,537,353.736582444981,1,0,1034487.66148015,1034488.70850737,7,1,64,0,0
7,538,637.856634799391,1,0,1034490.26146606,1034491.30852639,7,1,83,4,16
7,539,476.97567474097,1,0,1034493.0261964,1034494.07327366,7,1,75,0,16
7,540,708.056575851515,1,0,1034495.57916511,1034496.62624853,7,1,69,0,8
7,541,634.001635713503,1,0,1034498.48511606,1034499.53216176,7,1,92,4,0
7,542,422.36934741959,1,0,1034501.30864996,1034502.35572607,7,1,65,0,0
7,543,409.349582740106,1,0,1034503.8027974,1034504.84986735,7,1,67,0,4
7,544,654.608595999889,0,0,1034506.42640682,1034507.47343096,7,0,90,8,0
7,545,542.596890125424,0,0,1034509.17934696,1034510.22640844,7,0,64,4,4
7,546,645.149720250629,1,0,1034511.84996012,1034512.89702314,7,1,92,8,8
7,547,510.643590474501,0,0,1034514.68529307,1034515.73235339,7,0,85,8,8
7,548,506.200755946338,1,0,1034517.35590931,1034518.40297425,7,1,88,0,4
7,549,628.65260313265,0,0,1034520.09717859,1034521.14420311,7,0,88,8,0
7,550,671.431389986537,0,0,1034522.82656104,1034523.87363022,7,0,61,16,4
7,551,646.206437959336,1,0,1034525.61482943,1034526.66189899,7,1,92,4,16
7,552,645.595120033249,0,0,1034528.43839797,1034529.48546214,7,0,99,8,4
7,553,672.072734916583,0,0,1034531.22665982,1034532.27373131,7,0,91,16,8
7,554,664.781959261745,0,0,1034534.10905155,1034535.15612381,7,0,85,8,4
7,555,653.461027308367,0,0,1034536.85025308,1034537.89733457,7,0,82,0,4
7,556,542.793605127372,1,0,1034539.6150042,1034540.66207376,7,1,64,8,8
7,557,730.157184530981,0,0,1034542.33267691,1034543.37974263,7,0,79,4,16
7,558,463.714924524538,0,0,1034545.16800486,1034546.21507557,7,0,83,0,16
7,559,471.901504206471,0,0,1034547.87392818,1034548.92099543,7,0,66,0,0
7,560,708.293326897547,0,0,1034550.55630382,1034551.60337569,7,0,81,0,4
7,561,718.611050513573,0,0,1034586.40379845,1034587.45086994,8,0,80,4,4
7,562,501.43955880776,0,0,1034589.35677701,1034590.40384619,8,0,94,0,16
7,563,431.787417270243,0,0,1034591.92152128,1034592.96858315,8,0,95,16,16
7,564,428.221908863634,0,0,1034594.60389885,1034595.65096995,8,0,97,4,4
7,565,527.720843674615,1,0,1034597.28628796,1034598.33337523,8,1,70,0,16
7,566,488.716214196756,0,0,1034599.98046728,1034601.02750412,8,0,80,8,16
7,567,473.8270790549,0,0,1034602.53345446,1034603.58047975,8,0,82,0,16
7,568,564.408393227495,0,0,1034605.16873128,1034606.21579969,8,0,98,16,8
7,569,380.582604906522,1,0,1034607.98053195,1034609.02760575,8,1,86,0,0
7,570,386.618792777881,1,0,1034610.58056829,1034611.62763323,8,1,85,8,16
7,571,792.905051377602,1,0,1034613.15705118,1034614.2041269,8,1,81,8,16
7,572,442.218704498373,0,0,1034616.16886448,1034617.21592903,8,0,68,0,8
7,573,470.227309037,0,0,1034618.72183048,1034619.76890967,8,0,64,8,8
7,574,534.938861732371,1,0,1034621.29833801,1034622.3571843,8,1,88,0,8
7,575,495.260550524108,0,0,1034624.03954569,1034625.08661641,8,0,62,4,0
7,576,468.548494274728,1,0,1034626.60427919,1034627.6513476,8,1,82,8,4
7,577,380.929839797318,1,0,1034629.16902077,1034630.2160988,8,1,92,0,8
7,578,527.204610989429,1,0,1034631.74551829,1034632.79258977,8,1,92,16,4
7,579,493.701843544841,0,0,1034634.4749735,1034635.52204614,8,0,64,4,8
7,580,469.63947371114,0,0,1034637.06323042,1034638.11030306,8,0,78,4,0
7,581,688.320397282951,0,0,1034639.65150389,1034640.69857576,8,0,65,16,8
7,582,532.609847956337,1,0,1034642.47506935,1034643.52215701,8,1,78,8,4
7,583,484.169440227561,0,0,1034645.15745192,1034646.20453226,8,0,75,0,0
7,584,422.692329622805,1,0,1034647.82807701,1034648.87514119,8,1,66,4,8
7,585,627.174353110604,1,0,1034650.4633958,1034651.51047075,8,1,88,8,8
7,586,552.213599905372,1,0,1034653.15754662,1034654.20461349,8,1,81,8,4
7,587,673.684566514567,0,0,1034655.89875816,1034656.94582502,8,0,68,4,8
7,588,626.922588562593,0,0,1034658.69879673,1034659.74586437,8,0,81,4,8
7,589,710.496458457783,1,0,1034661.58116844,1034662.6282407,8,1,97,16,4
7,590,500.223852111958,0,0,1034664.42827735,1034665.4753369,8,0,94,8,8
7,591,568.929374683648,0,0,1034667.12242048,1034668.16949081,8,0,92,16,8
7,592,480.002622818574,1,0,1034669.81656938,1034670.86365164,8,1,78,16,0
7,593,634.390831226483,1,0,1034672.48719139,1034673.53425749,8,1,100,4,0
7,594,515.142244286835,0,0,1034675.24016387,1034676.28724074,8,0,91,16,0
7,595,484.851591056213,1,1,1034677.98137694,1034679.02844612,8,0,97,4,4
7,596,600.687114172615,1,0,1034680.71082407,1034681.7578917,8,1,88,0,8
7,597,422.13413619902,0,0,1034683.54615278,1034684.59322196,8,0,77,4,16
7,598,628.351178718731,1,0,1034686.06381902,1034687.11088474,8,1,92,8,8
7,599,556.170613504946,0,0,1034688.94621383,1034689.99328686,8,0,71,0,16
7,600,542.80438402202,1,0,1034691.58156726,1034692.62860487,8,1,66,0,0
7,601,633.996246266179,0,0,1034694.34628413,1034695.39340835,8,0,69,16,16
7,602,372.84373480361,1,0,1034697.09925814,1034698.14638083,8,1,76,4,16
7,603,461.603028699756,1,0,1034699.64045975,1034700.6875347,8,1,78,4,0
7,604,477.566974819638,1,0,1034702.18167367,1034703.22874438,8,1,88,16,16
7,605,528.622807236388,1,0,1034704.74641409,1034705.79348134,8,1,63,8,4
7,606,642.520821769722,0,0,1034707.44056222,1034708.48762293,8,0,62,0,4
7,607,545.790141215548,1,0,1034710.15827997,1034711.20531104,8,1,71,8,8
7,608,453.415294061415,0,0,1034712.88768129,1034713.93475586,8,0,93,0,0
7,609,520.794625976123,1,0,1034715.41712041,1034716.46420691,8,1,78,0,4
7,610,634.741915622726,1,0,1034718.0171914,1034719.06423324,8,1,94,8,0
7,611,501.55966670718,0,0,1034720.75836212,1034721.80543438,8,0,81,0,4
7,612,497.285445104353,0,0,1034723.44074046,1034724.48782657,8,0,95,16,4
7,613,445.580953382887,0,0,1034726.17023263,1034727.21725946,8,0,96,8,0
7,614,656.51800238993,0,0,1034728.77022624,1034729.81729195,8,0,100,4,0
7,615,441.57620461192,1,0,1034731.61732128,1034732.66438584,8,1,94,4,16
7,616,570.788351120427,0,0,1034734.13504412,1034735.18207172,8,0,89,4,8
7,617,497.519886353984,1,0,1034736.8762133,1034737.92327825,8,1,85,16,0
7,618,613.33192687016,1,0,1034739.51153517,1034740.55859895,8,1,76,0,4
7,619,661.515565472655,0,0,1034742.33509331,1034743.38215248,8,0,88,16,16
7,620,460.753419902176,1,0,1034745.19395431,1034746.24102079,8,1,97,4,16
7,621,705.516603426076,1,0,1034747.73515899,1034748.78223163,8,1,81,16,4
7,622,696.344523574226,0,0,1034750.6293082,1034751.67637814,8,0,89,16,8
7,623,629.781308700331,0,0,1034753.49992975,1034754.5470047,8,0,90,0,4
7,624,659.841755288653,1,0,1034756.35880806,1034757.40587224,8,1,62,4,4
7,625,487.590203294531,1,0,1034759.25294996,1034760.30001721,8,1,63,8,4
7,626,450.995044433512,1,0,1034761.82945056,1034762.87651858,8,1,88,0,16
7,627,390.265143010765,1,0,1034764.39417828,1034765.44125169,8,1,75,8,0
7,628,692.650823155418,1,0,1034766.95891909,1034768.00598865,8,1,99,8,0
7,629,420.397192356177,1,0,1034769.85307599,1034770.90013439,8,1,66,8,16
7,630,715.404325746931,0,0,1034772.358989,1034773.40605317,8,0,78,16,16
7,631,801.867327420041,1,0,1034775.13552955,1034776.1825637,8,1,99,16,0
7,632,762.119338382035,0,0,1034778.10023094,1034779.14730243,8,0,72,4,16
7,633,573.913079337217,0,0,1034780.99439401,1034782.0414551,8,0,71,4,4
7,634,852.905451785773,1,0,1034783.64153417,1034784.6885456,8,1,84,0,0
7,635,602.215409162454,0,0,1034786.60622093,1034787.65328549,8,0,61,16,4
7,636,690.797621035017,0,0,1034789.28861852,1034790.3356746,8,0,95,8,16
7,637,1342.06379612442,0,0,1034792.11216319,1034793.15923468,8,0,67,16,0
7,638,677.816352457739,0,0,1034795.6534387,1034796.70046207,8,0,100,16,8
7,639,655.491311568767,1,0,1034798.53577693,1034799.58284764,8,1,71,0,8
7,640,578.509513172321,1,0,1034801.3475749,1034802.39464485,8,1,95,8,0
7,641,596.996108419262,0,0,1034837.15976477,1034838.20683587,9,0,72,4,4
7,642,476.619970751926,0,0,1034839.94809783,1034840.99510619,9,0,96,0,0
7,643,577.254540519789,0,0,1034842.52454184,1034843.57160794,9,0,100,16,8
7,644,598.690321668983,1,0,1034845.25398242,1034846.30105391,9,1,72,16,16
7,645,426.724025746807,0,0,1034847.95990767,1034849.00701688,9,0,63,4,4
7,646,453.724802588113,0,0,1034850.51287829,1034851.55999059,9,0,89,0,16
7,647,552.816833602265,1,0,1034853.1599842,1034854.20703066,9,1,90,0,0
7,648,601.637967745773,1,0,1034855.95999274,1034857.0070623,9,1,80,8,0
7,649,438.371019554324,0,0,1034858.80709433,1034859.85416235,9,0,100,0,16
7,650,399.682058137842,1,0,1034861.31300002,1034862.36006766,9,1,78,0,8
7,651,445.483943331055,1,0,1034863.81889608,1034864.86597296,9,1,75,0,8
7,652,745.310402940959,0,0,1034866.45423873,1034867.50131022,9,0,61,8,16
7,653,486.800648388453,0,0,1034869.27780381,1034870.32486028,9,0,76,8,8
7,654,395.149142714217,1,0,1034872.00724863,1034873.0543178,9,1,75,8,4
7,655,659.365173545666,1,0,1034874.61903397,1034875.66611585,9,1,93,16,4
7,656,436.684890650213,0,0,1034877.43084658,1034878.47791345,9,0,65,4,8
7,657,702.964312280528,1,0,1034879.96028454,1034881.00735256,9,1,69,4,0
7,658,459.576209192164,1,0,1034882.88973852,1034883.9367973,9,1,63,0,8
7,659,509.565699729137,1,0,1034885.44269953,1034886.48977024,9,1,65,16,4
7,660,851.660487940535,1,0,1034888.10156329,1034889.14863285,9,1,96,16,0
7,661,659.615013282746,0,0,1034891.14865672,1034892.19572359,9,0,67,16,0
7,662,465.82489553839,0,0,1034893.91344788,1034894.96046239,9,0,75,0,4
7,663,625.421625794843,0,0,1034896.59578349,1034897.64285035,9,0,85,16,4
7,664,673.219533637166,0,0,1034899.38405072,1034900.43111952,9,0,71,8,4
7,665,612.347966642119,0,0,1034902.28996203,1034903.33703891,9,0,68,16,16
7,666,419.914451311342,1,0,1034905.0311751,1034906.07824505,9,1,65,16,8
7,667,461.628821096383,1,0,1034907.61944357,1034908.66651121,9,1,73,0,8
7,668,482.476766919717,0,0,1034910.2077028,1034911.25477775,9,0,83,4,8
7,669,620.988415437751,0,0,1034912.84303737,1034913.89010039,9,0,79,4,4
7,670,665.655820630491,1,0,1034915.67836724,1034916.72542948,9,1,71,16,0
7,671,667.715746792965,0,0,1034918.49020294,1034919.53724363,9,0,86,4,0
7,672,452.834387891926,1,0,1034921.29019147,1034922.33726449,9,1,96,4,0
7,673,670.520187355578,0,0,1034923.9255345,1034924.97259059,9,0,83,8,8
7,674,571.731890435331,1,0,1034926.70202386,1034927.74912229,9,1,70,8,16
7,675,543.987369048409,1,0,1034929.50210247,1034930.54913199,9,1,90,0,4
7,676,554.041009629145,1,0,1034932.16091234,1034933.20799268,9,1,75,16,16
7,677,532.85545296967,1,0,1034934.91389328,1034935.9610229,9,1,89,8,4
7,678,514.796164352447,1,0,1034937.60803987,1034938.65513561,9,1,69,4,4
7,679,770.168872084469,0,0,1034940.337487,1034941.38455425,9,0,86,4,16
7,680,574.876251630485,1,0,1034943.21986988,1034944.26695638,9,1,89,4,16
7,681,521.640000282787,0,0,1034945.86697078,1034946.91403379,9,0,75,8,16
7,682,636.432279250585,0,0,1034948.45523078,1034949.50231728,9,0,92,4,4
7,683,488.62844298128,0,0,1034951.31408753,1034952.3611544,9,0,96,0,4
7,684,469.56633112859,0,0,1034954.02000277,1034955.0670731,9,0,82,0,16
7,685,497.81823111698,0,0,1034956.58474242,1034957.63181853,9,0,68,4,8
7,686,557.298164232634,1,0,1034959.30241629,1034960.34949047,9,1,62,8,0
7,687,458.640369120985,0,0,1034962.07892643,1034963.12599561,9,0,73,4,8
7,688,505.784228211269,1,0,1034964.78484012,1034965.83191354,9,1,64,8,8
7,689,437.532189767808,0,0,1034967.37310782,1034968.42017123,9,0,85,16,4
7,690,459.987732465379,1,1,1034970.05548269,1034971.10256688,9,0,89,4,8
7,691,885.859649861231,0,0,1034972.65553058,1034973.70265365,9,0,93,4,16
7,692,463.476248783991,0,0,1034975.63202718,1034976.67909905,9,0,64,16,16
7,693,498.705566045828,0,0,1034978.30264957,1034979.34972991,9,0,89,0,4
7,694,664.949417230673,0,0,1034980.9615014,1034982.00857174,9,0,100,8,8
7,695,1354.60928885732,1,0,1034983.79683782,1034984.84390892,9,1,77,8,0
7,696,700.927868834697,0,0,1034987.22040189,1034988.26753536,9,0,78,4,0
7,697,754.609519965015,1,0,1034990.16162413,1034991.20869138,9,1,68,4,0
7,698,615.027294959873,1,0,1034992.98518343,1034994.03225299,9,1,97,0,0
7,699,449.985676794313,1,0,1034995.67933657,1034996.72643154,9,1,97,4,16
7,700,628.825835650787,1,0,1034998.27941602,1034999.32643208,9,1,62,16,8
7,701,591.880747233517,1,0,1035001.09115279,1035002.13823506,9,1,71,16,8
7,702,527.330878190696,1,0,1035003.85590777,1035004.90296925,9,1,96,8,16
7,703,564.076171838678,1,0,1035006.59713354,1035007.64418309,9,1,100,0,0
7,704,412.645233445801,1,0,1035009.38538654,1035010.43245341,9,1,72,0,16
7,705,541.092847590335,0,0,1035011.96188059,1035013.00894977,9,0,93,0,8
7,706,407.042896607891,1,0,1035014.56190846,1035015.60898264,9,1,96,8,16
7,707,646.416241768748,0,0,1035017.12665851,1035018.17371229,9,0,74,8,0
7,708,514.431606396101,0,0,1035019.93844725,1035020.98551758,9,0,92,16,16
7,709,478.781911660917,1,0,1035022.55029534,1035023.59730447,9,1,65,0,16
7,710,520.722253364511,0,0,1035025.10322286,1035026.15028587,9,0,92,0,4
7,711,574.809653451666,0,0,1035027.80914079,1035028.85625346,9,0,66,16,8
7,712,610.524791525677,0,0,1035030.44447728,1035031.49152836,9,0,81,0,0
7,713,652.766942745075,0,0,1035033.16219811,1035034.20920569,9,0,80,8,4
7,714,679.007806698792,1,0,1035035.98569813,1035037.03276884,9,1,93,8,0
7,715,840.390370809473,1,0,1035038.84456566,1035039.89163214,9,1,71,16,0
7,716,1110.07939162664,0,0,1035041.8916537,1035042.93872365,9,0,81,16,0
7,717,518.508727778681,1,0,1035045.22111138,1035046.26818017,9,1,75,8,8
7,718,587.493732105941,1,0,1035047.82114194,1035048.86821112,9,1,100,8,4
7,719,599.857138236985,1,0,1035050.49176011,1035051.53883698,9,1,87,16,4
7,720,525.756772840396,1,0,1035053.23300706,1035054.28004159,9,1,62,4,16
