sub_id,Trial,RT,Resp,Error,Fix_onset,Disp_onset,block,tid,tloc,fish_setsize,bird_setsize
3,1,596.913775894791,0,0,1026974.32272755,1026975.36983599,1,0,78,4,8
3,2,604.527918738313,0,0,1026977.15805973,1026978.2051366,1,0,97,16,4
3,3,598.335821647197,1,0,1026979.86397843,1026980.91105261,1,1,78,0,0
3,4,644.097670912743,1,0,1026982.60518957,1026983.65226029,1,1,84,16,0
3,5,585.745288408361,0,0,1026985.48761249,1026986.53465125,1,0,71,8,0
3,6,622.964084031992,1,0,1026988.14644045,1026989.1935077,1,1,88,16,4
3,7,509.785946458578,0,0,1026990.93470538,1026991.98177263,1,0,77,8,4
3,8,596.170031232759,1,0,1026993.66415173,1026994.71121899,1,1,82,0,8
3,9,429.291764390655,0,0,1026996.41712421,1026997.46418992,1,0,65,16,4
3,10,537.976637715474,1,0,1026999.06421279,1027000.11128081,1,1,93,0,0
3,11,611.027984530665,1,0,1027001.81719181,1027002.86426099,1,1,66,8,4
3,12,528.252138756216,0,0,1027004.58195833,1027005.62902289,1,0,65,16,16
3,13,468.270216486417,0,0,1027007.18196657,1027008.22903536,1,0,85,4,4
3,14,498.878462589346,0,0,1027009.71140608,1027010.75848757,1,0,76,4,16
3,15,573.962018359452,1,0,1027012.37028024,1027013.41733825,1,1,63,0,16
3,16,600.093553308398,1,0,1027015.0879414,1027016.1350098,1,1,70,16,4
3,17,585.772235644981,0,0,1027017.87621441,1027018.92327512,1,0,93,0,16
3,18,692.795617505908,1,0,1027020.676268,1027021.72332601,1,1,70,0,0
3,19,696.044687996618,0,0,1027023.59393216,1027024.64100249,1,0,71,16,0
3,20,602.522272034548,1,0,1027026.41749454,1027027.4645641,1,1,98,4,8
3,21,436.425475985743,0,0,1027029.21752888,1027030.26459729,1,0,86,0,16
3,22,838.680038345046,1,0,1027031.7822797,1027032.82933117,1,1,97,0,4
3,23,454.425865551457,0,0,1027034.86465596,1027035.91172321,1,0,97,0,4
3,24,604.824338690378,0,0,1027037.54704392,1027038.59412118,1,0,83,4,0
3,25,573.786476161331,0,0,1027040.39418708,1027041.44120044,1,0,88,8,8
3,26,424.658759264275,1,0,1027043.14716264,1027044.19418138,1,1,77,8,0
3,27,504.369930713438,0,0,1027045.73538299,1027046.78244485,1,0,95,4,0
3,28,927.385437767953,1,0,1027048.42952765,1027049.47658682,1,1,82,8,0
3,29,694.995669415221,0,0,1027051.47662378,1027052.52369141,1,0,100,0,8
3,30,554.390988079831,0,0,1027054.335489,1027055.3825501,1,0,76,16,16
3,31,547.785827890038,1,0,1027057.01791661,1027058.06495807,1,1,76,16,8
3,32,565.636852639727,0,0,1027059.66496785,1027060.7120351,1,0,61,0,4
3,33,479.196563595906,1,0,1027062.34734426,1027063.3944119,1,1,65,8,8
3,34,540.296797291376,0,0,1027064.99444054,1027066.04151203,1,0,81,4,16
3,35,516.030013212003,0,0,1027067.64153489,1027068.68859791,1,0,91,4,4
3,36,544.854350155219,0,0,1027070.33567764,1027071.38275605,1,0,78,0,8
3,37,528.923125821166,1,0,1027073.04159479,1027074.08873018,1,1,77,4,4
3,38,528.874235809781,1,1,1027075.79456996,1027076.84164607,1,0,100,4,16
3,39,490.838937927037,0,0,1027078.50047981,1027079.54755822,1,0,75,16,4
3,40,445.467823999934,0,0,1027081.17110759,1027082.21816561,1,0,75,16,0
3,41,637.956773629412,0,0,1027083.70055364,1027084.74763206,1,0,70,8,16
3,42,530.770168523304,1,0,1027086.50061916,1027087.54767679,1,1,67,16,8
3,43,483.756041154265,1,0,1027089.14771506,1027090.19475151,1,1,74,4,8
3,44,707.077669096179,1,0,1027091.87711714,1027092.92419132,1,1,61,0,4
3,45,725.625858060084,1,0,1027094.80657651,1027095.85363914,1,1,80,4,0
3,46,747.829636442475,0,0,1027097.71249552,1027098.75956739,1,0,98,4,0
3,47,812.764851376414,0,0,1027100.60668207,1027101.65370813,1,0,100,16,0
3,48,617.329025524668,0,0,1027103.64197221,1027104.68904177,1,0,66,8,4
3,49,956.336041912436,1,0,1027106.4537698,1027107.50084822,1,1,91,4,16
3,50,787.199593964033,0,0,1027109.54793202,1027110.59500158,1,0,97,8,16
3,51,728.05226710625,0,0,1027112.54796513,1027113.59503161,1,0,61,8,16
3,52,873.439318384044,1,0,1027115.35976464,1027116.40683382,1,1,91,8,8
3,53,603.210967150517,0,0,1027118.30098149,1027119.34804951,1,0,78,0,16
3,54,622.776607982814,0,0,1027121.13630866,1027122.18337592,1,0,91,4,4
3,55,813.699151622131,1,0,1027123.84225277,1027124.88930039,1,1,100,8,0
3,56,642.473905580118,1,0,1027126.77167326,1027127.8187432,1,1,91,0,0
3,57,583.494806662202,0,0,1027129.47758002,1027130.52465189,1,0,80,16,16
3,58,660.494698095135,1,0,1027132.24235655,1027133.28939532,1,1,100,16,8
3,59,824.952330440283,1,0,1027135.05413182,1027136.1012033,1,1,69,4,8
3,60,765.167508274317,1,0,1027137.98357656,1027139.03064535,1,1,72,16,8
3,61,944.469620124437,1,0,1027140.94831375,1027141.995386,1,1,70,4,8
3,62,458.58960330952,0,0,1027144.00717851,1027145.05424153,1,0,64,0,8
3,63,585.677150404081,0,0,1027146.7130976,1027147.76014791,1,0,72,8,0
3,64,644.802919472568,1,0,1027149.41900628,1027150.46610356,1,1,100,8,16
3,65,795.661805779673,1,0,1027152.171983,1027153.21906141,1,1,91,16,8
3,66,699.284134432673,0,0,1027155.19555185,1027156.24261948,1,0,89,0,0
3,67,1045.40484433528,1,0,1027158.05440629,1027159.10147316,1,1,79,8,8
3,68,584.252409869805,1,0,1027161.25443932,1027162.30151928,1,1,100,4,0
3,69,766.775875119492,1,0,1027164.03096795,1027165.0780325,1,1,96,16,16
3,70,495.742570608854,1,0,1027166.93693045,1027167.9839415,1,1,99,0,8
3,71,572.047992493026,1,0,1027169.56041669,1027170.60750126,1,1,88,8,4
3,72,632.606971194036,1,0,1027172.24287471,1027173.28988845,1,1,61,8,4
3,73,474.123163032345,0,0,1027175.00754076,1027176.05462842,1,0,75,4,16
3,74,802.223850390874,1,0,1027177.57229504,1027178.61936653,1,1,92,8,8
3,75,492.381476447918,0,0,1027180.48997923,1027181.53703378,1,0,96,8,16
3,76,1831.03047905024,1,0,1027183.12530494,1027184.17237643,1,1,64,4,4
3,77,646.83666813653,1,0,1027187.06653179,1027188.1136029,1,1,85,16,16
3,78,461.462951847352,1,0,1027189.94891891,1027190.99598924,1,1,75,16,0
3,79,483.403031947091,0,0,1027192.49012667,1027193.5371816,1,0,75,0,4
3,80,494.337848038413,0,0,1027195.19603882,1027196.24310761,1,0,76,0,16
3,81,910.614228458144,0,0,1027222.29048784,1027223.33756086,2,0,100,4,16
3,82,578.952267300338,1,0,1027225.40817348,1027226.45524805,2,1,79,4,4
3,83,792.664114851505,1,0,1027228.0552713,1027229.10234471,2,1,81,16,0
3,84,717.454676749185,1,0,1027231.04354501,1027232.09060764,2,1,88,0,0
3,85,661.616859259084,0,0,1027233.91416463,1027234.96127153,2,0,99,4,16
3,86,680.553089012392,1,0,1027236.70243033,1027237.74950027,2,1,68,4,16
3,87,780.203698435798,1,0,1027239.5377575,1027240.58482976,2,1,80,16,8
3,88,551.543431822211,1,0,1027242.4554463,1027243.50250971,2,1,63,0,4
3,89,588.742209482007,1,0,1027245.17313403,1027246.22019358,2,1,67,0,0
3,90,832.407099427655,1,0,1027248.00845312,1027249.05552576,2,1,91,16,0
3,91,555.015394696966,1,0,1027250.99675647,1027252.04378984,2,1,66,8,16
3,92,613.559872843325,0,0,1027253.62027735,1027254.66737424,2,0,64,4,4
3,93,664.415910374373,0,0,1027256.37326022,1027257.4203294,2,0,96,8,0
3,94,547.347742365673,1,1,1027259.26741289,1027260.31448476,2,0,70,8,16
3,95,540.842671995051,1,0,1027261.99688658,1027263.04398656,2,1,67,0,8
3,96,634.541015024297,0,0,1027264.73806732,1027265.78514342,2,0,88,4,4
3,97,497.037194320001,1,0,1027267.56163317,1027268.60870273,2,1,85,0,16
3,98,803.939621313475,1,0,1027270.31461103,1027271.36168637,2,1,78,8,4
3,99,540.466950042173,1,0,1027273.33816987,1027274.38524829,2,1,77,4,4
3,100,578.412167029455,1,0,1027275.94997254,1027276.99704288,2,1,67,16,16
3,101,945.079783326946,0,0,1027278.63239823,1027279.67943084,2,0,61,8,16
3,102,819.96323633939,0,0,1027281.82067917,1027282.867701,2,0,68,4,8
3,103,652.293104794808,1,0,1027284.70302124,1027285.7500935,2,1,88,16,8
3,104,678.241783287376,1,0,1027287.49129233,1027288.5383669,2,1,91,8,8
3,105,725.772528210655,1,0,1027290.2324977,1027291.27958266,2,1,76,0,16
3,106,595.592974801548,1,0,1027293.17371109,1027294.2207818,2,1,75,8,8
3,107,658.910583821125,0,0,1027295.8443304,1027296.89140189,2,0,88,0,8
3,108,772.040601237677,1,0,1027298.64436821,1027299.69144431,2,1,63,16,0
3,109,481.19528091047,0,0,1027301.50327539,1027302.55029376,2,0,86,8,0
3,110,548.84062090423,0,0,1027304.19737387,1027305.24444843,2,0,64,0,4
3,111,503.618101938628,0,0,1027306.89152739,1027307.93859425,2,0,87,0,0
3,112,817.129538743757,1,0,1027309.46802875,1027310.51509832,2,1,63,4,8
3,113,533.481448539533,0,0,1027312.47983589,1027313.52689929,2,0,85,0,16
3,114,598.100610426627,0,0,1027315.17398171,1027316.22105589,2,0,98,0,8
3,115,540.3510768665,1,0,1027317.83283277,1027318.87991042,2,1,94,0,0
3,116,547.07980947569,1,0,1027320.52698629,1027321.57405663,2,1,95,0,4
3,117,645.209823152982,1,0,1027323.13878281,1027324.18585622,2,1,87,16,8
3,118,773.124266415834,0,0,1027325.98587747,1027327.03294934,2,0,92,8,4
3,119,697.360099526122,0,0,1027328.89185191,1027329.93886796,2,0,87,16,16
3,120,596.05184814427,0,0,1027331.69182542,1027332.73890076,2,0,67,0,16
3,121,653.329034801573,0,0,1027334.50362686,1027335.55069796,2,0,83,16,4
3,122,468.516976572573,1,0,1027337.22131074,1027338.26840186,2,1,95,8,0
3,123,871.596895158291,1,0,1027339.77428021,1027340.82135016,2,1,71,0,8
3,124,670.929834945127,1,0,1027342.7978379,1027343.84491362,2,1,67,16,0
3,125,995.414583943784,1,0,1027345.66847562,1027346.71554287,2,1,69,0,16
3,126,784.450202714652,0,0,1027348.72732883,1027349.77440224,2,0,70,16,16
3,127,927.789646666497,1,0,1027351.75098468,1027352.79797494,2,1,91,8,4
3,128,631.105238455348,1,0,1027354.86858256,1027355.91565096,2,1,79,16,8
3,129,456.049630884081,1,0,1027357.65688714,1027358.70392475,2,1,84,4,8
3,130,639.857325819321,0,0,1027360.25690923,1027361.30396224,2,0,64,8,16
3,131,570.359938661568,0,0,1027363.03339243,1027364.08045583,2,0,76,4,16
3,132,590.988841606304,1,0,1027365.71583775,1027366.76284418,2,1,74,16,4
3,133,864.220658200793,0,0,1027368.53934508,1027369.58641233,2,0,98,4,8
3,134,540.925823617727,1,0,1027371.48053767,1027372.52762302,2,1,85,8,0
3,135,863.188962917775,0,0,1027374.19823079,1027375.24531036,2,0,89,8,8
3,136,566.124213160947,1,0,1027377.18650334,1027378.2335806,2,1,87,16,16
3,137,620.618516928516,0,0,1027379.82184368,1027380.86890246,2,0,86,16,0
3,138,744.025067193434,0,0,1027382.53949868,1027383.5865848,2,0,82,4,0
3,139,757.296981289983,0,0,1027385.45719441,1027386.50426012,2,0,64,8,4
3,140,710.080364602618,1,0,1027388.3984101,1027389.4454762,2,1,90,16,4
3,141,779.677841695957,0,0,1027391.32784984,1027392.37491979,2,0,79,4,0
3,142,510.561642819084,0,0,1027394.32788795,1027395.37496213,2,0,87,4,0
3,143,514.433580101468,1,0,1027397.0338028,1027398.08087621,2,1,99,8,4
3,144,506.992284790613,0,0,1027399.70442635,1027400.75150015,2,0,85,8,8
3,145,647.726312861778,1,0,1027402.3985895,1027403.44564789,2,1,88,16,4
3,146,993.445508531295,0,0,1027405.13978679,1027406.18685519,2,0,100,8,0
3,147,696.272969827987,1,0,1027408.38687744,1027409.43395355,2,1,83,0,8
3,148,689.985402394086,1,0,1027411.32810083,1027412.37516732,2,1,63,4,8
3,149,560.453353216872,0,0,1027414.19872431,1027415.24578155,2,0,65,4,0
3,150,678.000797866844,0,0,1027416.88110611,1027417.92818375,2,0,81,16,16
3,151,491.678152815439,0,0,1027419.66946227,1027420.71645176,2,0,84,4,0
3,152,456.101215677336,0,0,1027422.38705529,1027423.43413217,2,0,74,0,0
3,153,523.349660914391,0,0,1027425.05768193,1027426.10474571,2,0,83,0,4
3,154,668.953445274383,0,0,1027427.78712559,1027428.83423172,2,0,87,8,16
3,155,434.119944693521,0,0,1027430.55186286,1027431.59894936,2,0,94,0,4
3,156,534.582051914185,0,0,1027433.0695418,1027434.11660636,2,0,87,8,8
3,157,584.164638770744,1,0,1027435.76369571,1027436.81076527,2,1,97,4,16
3,158,731.804481591098,1,0,1027438.54025513,1027439.5872631,2,1,73,4,4
3,159,636.388057726435,0,0,1027441.4225818,1027442.46965521,2,0,82,16,8
3,160,719.32289225515,0,0,1027444.26967762,1027445.31675257,2,0,68,16,4
3,161,558.339917566627,0,0,1027463.75227469,1027464.79933578,3,0,67,0,8
3,162,628.950226935558,1,0,1027466.43465918,1027467.4817299,3,1,89,16,8
3,163,625.454011489637,0,0,1027469.21115585,1027470.25823234,3,0,89,16,0
3,164,564.91543573793,0,0,1027471.98766523,1027473.03478599,3,0,64,16,4
3,165,721.844386542216,1,0,1027474.72890409,1027475.7759444,3,1,73,16,0
3,166,703.609555843286,1,0,1027477.57596911,1027478.62303829,3,1,90,0,8
3,167,733.563368208706,1,0,1027480.42306493,1027481.47014296,3,1,63,16,8
3,168,564.344538724981,1,0,1027483.27015458,1027484.31722222,3,1,84,16,16
3,169,608.725917991251,0,0,1027486.03489532,1027487.08196372,3,0,92,4,16
3,170,855.800792109221,1,0,1027488.84675874,1027489.89376362,3,1,96,4,16
3,171,545.43718113564,1,0,1027491.94085282,1027492.98791699,3,1,66,4,0
3,172,457.281506038271,0,0,1027494.57597713,1027495.62324848,3,0,95,16,8
3,173,743.729417212307,0,0,1027497.19973753,1027498.24681248,3,0,100,16,16
3,174,560.733604826964,0,0,1027500.11754066,1027501.16451591,3,0,87,0,16
3,175,455.020245164633,0,0,1027502.77627585,1027503.82335234,3,0,76,16,16
3,176,564.87424497027,1,0,1027505.42336866,1027506.47046633,3,1,70,4,16
3,177,473.73627719935,0,0,1027508.17634383,1027509.22343649,3,0,85,0,4
3,178,486.72909475863,0,0,1027510.72931562,1027511.77641097,3,0,66,0,0
3,179,562.242651823908,1,0,1027513.44700219,1027514.49406405,3,1,69,4,0
3,180,703.16685072612,1,0,1027516.10585286,1027517.15291857,3,1,98,16,8
3,181,501.7903073458,1,0,1027518.88243153,1027519.92947761,3,1,85,4,16
3,182,739.900210523047,0,0,1027521.44709881,1027522.49416452,3,0,70,8,4
3,183,511.007812572643,0,0,1027524.24712045,1027525.29425545,3,0,94,4,8
3,184,496.443969430402,0,0,1027526.9295084,1027527.97658374,3,0,75,4,4
3,185,685.394742991775,0,0,1027529.51778881,1027530.56484913,3,0,97,8,4
3,186,459.675193182193,0,0,1027532.43545952,1027533.48253177,3,0,74,8,16
3,187,748.456737841479,0,0,1027535.03549393,1027536.08256118,3,0,98,8,16
3,188,471.127396798693,0,0,1027537.87082573,1027538.91789375,3,0,95,16,8
3,189,485.795949352905,0,0,1027540.50614759,1027541.55324333,3,0,86,4,4
3,190,583.674583467655,0,0,1027543.20030611,1027544.24738222,3,0,78,4,8
3,191,995.569723076187,1,0,1027545.89445501,1027546.94152419,3,1,68,8,0
3,192,455.390192684717,0,0,1027549.00037471,1027550.04744581,3,0,86,0,4
3,193,869.198203436099,0,0,1027551.6945213,1027552.74159087,3,0,98,16,0
3,194,805.970675428398,1,0,1027554.72985495,1027555.77696878,3,1,67,0,16
3,195,889.159199199639,1,0,1027557.64754221,1027558.694606,3,1,100,4,8
3,196,540.224809665233,1,0,1027560.64758455,1027561.69464796,3,1,71,0,16
3,197,681.391918798909,1,0,1027563.3181954,1027564.36526727,3,1,77,16,4
3,198,464.950698195025,0,0,1027566.09470285,1027567.14176856,3,0,84,4,0
3,199,483.798386878334,0,0,1027568.74179413,1027569.78885483,3,0,85,4,0
3,200,640.896720462479,1,0,1027571.38893737,1027572.43594765,3,1,73,8,4
3,201,590.549986111,1,0,1027574.17714455,1027575.22422605,3,1,67,0,4
3,202,537.121639354154,1,0,1027576.87130539,1027577.91837071,3,1,61,8,8
3,203,996.564847184345,1,0,1027579.49487131,1027580.54193625,3,1,88,4,4
3,204,848.029200220481,0,0,1027582.61256004,1027583.65968234,3,0,70,0,8
3,205,720.400013029575,0,0,1027585.58905701,1027586.63612504,3,0,99,8,0
3,206,801.350373891182,1,0,1027588.43614706,1027589.48322278,3,1,78,0,8
3,207,582.015786669217,0,0,1027591.47148609,1027592.51860608,3,0,87,16,4
3,208,539.843698265031,0,0,1027594.21269955,1027595.25975717,3,0,96,8,8
3,209,414.17896701023,0,0,1027596.89507519,1027597.94214552,3,0,76,8,16
3,210,691.029801499099,1,0,1027599.54216415,1027600.58923525,3,1,68,4,8
3,211,577.630696352571,1,0,1027602.42454318,1027603.47168704,3,1,87,8,0
3,212,466.277658590116,0,0,1027605.10694615,1027606.15401071,3,0,78,0,0
3,213,551.928777829744,0,0,1027607.63644494,1027608.68346061,3,0,94,4,8
3,214,559.221478179097,1,0,1027610.30700189,1027611.35407415,3,1,98,0,16
3,215,475.378135684878,1,0,1027613.01292021,1027614.05999015,3,1,84,16,16
3,216,496.74847361166,0,0,1027615.58942658,1027616.63650268,3,0,96,0,4
3,217,582.155142445117,0,0,1027618.30710121,1027619.35417308,3,0,63,8,4
3,218,658.742355764844,1,0,1027620.98949379,1027622.0365595,3,1,68,0,0
3,219,565.371229546145,1,0,1027623.82481327,1027624.87189168,3,1,76,8,0
3,220,646.606076625176,0,0,1027626.63662087,1027627.6836835,3,0,97,8,8
3,221,741.723000770435,1,0,1027629.40135544,1027630.44842539,3,1,81,16,4
3,222,698.282466037199,1,0,1027632.23673073,1027633.28379221,3,1,88,16,16
3,223,505.547911277972,1,0,1027635.10731032,1027636.15437681,3,1,84,8,8
3,224,809.025725582615,1,0,1027637.68381477,1027638.73087663,3,1,88,0,0
3,225,746.389882522635,1,0,1027640.64855273,1027641.69562614,3,1,66,4,4
3,226,619.643410784192,1,0,1027643.51920931,1027644.56624885,3,1,69,8,4
3,227,609.939699876122,0,0,1027646.3309788,1027647.3780757,3,0,81,0,0
3,228,675.339562701993,0,0,1027649.06042054,1027650.10750165,3,0,98,4,0
3,229,761.817193008028,0,0,1027651.83692298,1027652.88401526,3,0,92,16,0
3,230,463.882816489786,0,0,1027654.83699767,1027655.88403797,3,0,75,0,8
3,231,465.611676103435,1,0,1027657.43699359,1027658.48408855,3,1,63,8,0
3,232,715.738520841114,1,0,1027659.9899696,1027661.03703416,3,1,96,8,16
3,233,843.422372359782,1,0,1027662.91941896,1027663.96648314,3,1,64,0,4
3,234,721.112190862186,1,0,1027665.86066892,1027666.9076969,3,1,71,8,16
3,235,475.246864021756,0,0,1027668.82536761,1027669.87244102,3,0,64,0,16
3,236,566.989605431445,1,0,1027671.36657614,1027672.41364686,3,1,84,4,4
3,237,861.326136742719,0,0,1027674.13131649,1027675.1783849,3,0,99,16,0
3,238,809.311751509085,1,0,1027677.14312016,1027678.19019203,3,1,64,4,16
3,239,748.38821485173,0,0,1027680.14315134,1027681.19022322,3,0,100,8,8
3,240,660.110892029479,1,0,1027683.0373071,1027684.08437396,3,1,86,16,4
3,241,537.847675732337,0,0,1027695.57864921,1027696.62570722,4,0,83,16,8
3,242,520.83317108918,0,0,1027698.28456791,1027699.33167789,4,0,65,0,0
3,243,788.165076053701,1,0,1027700.8610762,1027701.90812844,4,1,74,4,16
3,244,886.178446584381,1,0,1027703.75520386,1027704.80228035,4,1,93,16,16
3,245,679.207265377045,1,0,1027706.86113318,1027707.90820236,4,1,61,0,16
3,246,646.212261519395,1,0,1027709.66116944,1027710.708234,4,1,84,16,4
3,247,513.743345160037,1,0,1027712.49649893,1027713.54356271,4,1,66,0,0
3,248,798.504357575439,0,0,1027715.14357788,1027716.19065976,4,0,91,4,8
3,249,728.459940757602,0,0,1027718.03773748,1027719.08480974,4,0,70,4,8
3,250,691.46981195081,0,0,1027720.84953277,1027721.8966031,4,0,71,4,0
3,251,698.817561846226,0,0,1027723.70840685,1027724.75546832,4,0,68,16,0
3,252,461.114177247509,0,0,1027726.63784235,1027727.68491075,4,0,75,8,8
3,253,749.400277156383,1,0,1027729.24964002,1027730.29671535,4,1,66,16,0
3,254,456.03076776024,0,0,1027732.23790987,1027733.28497828,4,0,74,4,16
3,255,730.206123553216,1,0,1027734.89676594,1027735.94384012,4,1,89,16,8
3,256,688.004393246956,1,0,1027737.79096172,1027738.83800126,4,1,77,4,0
3,257,661.532937781885,1,0,1027740.67331111,1027741.72037875,4,1,99,4,16
3,258,449.95300413575,0,0,1027743.54393459,1027744.59100992,4,0,74,16,4
3,259,472.689183428884,1,0,1027746.17925953,1027747.22632716,4,1,69,16,0
3,260,762.475861120038,1,0,1027748.77929394,1027749.82634772,4,1,64,16,16
3,261,783.799233729951,1,0,1027751.69703125,1027752.74404961,4,1,71,16,4
3,262,881.998540484346,1,0,1027754.66171031,1027755.70878796,4,1,69,16,4
3,263,599.738619406708,0,0,1027757.79116691,1027758.83823416,4,0,67,16,0
3,264,689.852975890972,1,0,1027760.5088477,1027761.55594113,4,1,78,0,8
3,265,498.17590881139,1,0,1027763.42653035,1027764.47360106,4,1,84,8,0
3,266,443.454093183391,1,0,1027766.1442046,1027767.19128186,4,1,65,4,4
3,267,679.463649517857,0,0,1027768.8030649,1027769.85013446,4,0,72,4,8
3,268,527.374812867492,1,0,1027771.69722219,1027772.74429021,4,1,70,8,0
3,269,711.331487633288,1,0,1027774.29725199,1027775.34432078,4,1,90,4,0
3,270,846.835821168497,1,0,1027777.0737987,1027778.12088559,4,1,93,8,8
3,271,618.286808370613,1,0,1027780.05026488,1027781.09733522,4,1,86,4,8
3,272,489.741799188778,0,0,1027782.82677849,1027783.87385498,4,0,95,0,16
3,273,759.237569523975,1,0,1027785.5091472,1027786.55622292,4,1,87,4,4
3,274,633.587466785684,1,0,1027788.37977414,1027789.42683716,4,1,64,16,8
3,275,550.126775517128,1,0,1027791.10922589,1027792.1562866,4,1,91,8,4
3,276,594.760689185932,0,0,1027793.79161693,1027794.83880621,4,0,94,8,16
3,277,420.59164668899,1,0,1027796.54458863,1027797.59170555,4,1,64,16,16
3,278,529.331569327042,1,0,1027799.0269605,1027800.07403545,4,1,61,0,8
3,279,796.770878368989,0,0,1027801.80347488,1027802.85054945,4,0,91,4,0
3,280,603.205192834139,0,0,1027804.72114982,1027805.76822208,4,0,78,8,8
3,281,544.194142101333,1,0,1027807.4270666,1027808.47414116,4,1,93,8,4
3,282,494.68700774014,0,0,1027810.2035856,1027811.25063899,4,0,86,0,0
3,283,424.457424553111,0,0,1027812.8977268,1027813.94479636,4,0,74,4,8
3,284,946.367092779838,0,0,1027815.43892647,1027816.48600374,4,0,90,4,4
3,285,465.274835354649,0,0,1027818.48602645,1027819.53309793,4,0,65,0,0
3,286,710.764440242201,0,0,1027821.12136178,1027822.16847677,4,0,81,16,16
3,287,657.404231489636,0,0,1027824.05080537,1027825.097868,4,0,91,4,0
3,288,893.796054064296,0,0,1027826.87441395,1027827.92143462,4,0,90,8,16
3,289,496.30307382904,0,0,1027829.86263761,1027830.90970409,4,0,85,4,4
3,290,561.65135174524,0,0,1027832.47442911,1027833.52151215,4,0,77,0,4
3,291,736.687326454557,1,0,1027835.22741237,1027836.27447462,4,1,61,16,8
3,292,656.839493778534,1,0,1027838.03921342,1027839.08630069,4,1,90,16,16
3,293,766.739303828217,1,0,1027840.89806826,1027841.94514128,4,1,90,0,4
3,294,518.188489368185,0,0,1027843.76868981,1027844.81576168,4,0,86,0,16
3,295,687.520882347599,0,0,1027846.3804921,1027847.4275528,4,0,97,4,16
3,296,725.720558548346,1,0,1027849.15699454,1027850.2040641,4,1,73,4,16
3,297,695.192384417169,1,0,1027852.02761455,1027853.07468912,4,1,75,8,8
3,298,493.862421251833,1,0,1027854.86301872,1027855.91001475,4,1,68,0,16
3,299,646.975254174322,0,0,1027857.52180472,1027858.5688662,4,0,70,0,0
3,300,597.608630312607,0,0,1027860.31006965,1027861.35714113,4,0,65,0,8
3,301,660.339558846317,1,0,1027862.99245915,1027864.03952678,4,1,64,16,4
3,302,607.428984483704,0,0,1027865.8513159,1027866.898382,4,0,95,16,8
3,303,644.201225368306,1,0,1027868.65136064,1027869.69841903,4,1,82,8,4
3,304,671.322879963554,1,0,1027871.45138458,1027872.49845376,4,1,80,8,16
3,305,511.810841155238,0,0,1027874.27494427,1027875.3220223,4,0,95,0,8
3,306,1102.68819029443,0,0,1027876.88674656,1027877.93381304,4,0,70,8,16
3,307,963.172563468106,0,0,1027880.11031302,1027881.15737873,4,0,75,8,4
3,308,613.952917861752,0,0,1027883.25152517,1027884.29860397,4,0,90,8,0
3,309,522.230964386836,1,0,1027885.95744887,1027887.00450881,4,1,69,0,4
3,310,663.692183909006,1,0,1027888.73394901,1027889.78102126,4,1,92,4,4
3,311,446.770916809328,1,0,1027891.55751062,1027892.60463831,4,1,83,0,4
3,312,624.835764290765,1,0,1027894.25166299,1027895.29873486,4,1,93,8,16
3,313,606.115112663247,0,0,1027897.01640102,1027898.06346943,4,0,64,0,4
3,314,770.549647393636,0,0,1027899.74584507,1027900.79291309,4,0,78,0,16
3,315,537.431147997268,1,0,1027902.6988244,1027903.74589588,4,1,68,0,8
3,316,827.742527471855,0,0,1027905.31064362,1027906.35768932,4,0,90,8,0
3,317,663.498163456097,0,0,1027908.3577205,1027909.40481701,4,0,90,8,0
3,318,520.172963151708,0,0,1027911.13422679,1027912.18128981,4,0,85,8,8
3,319,790.228081750683,0,0,1027913.85190759,1027914.89897176,4,0,82,8,4
3,320,923.236713511869,0,0,1027916.74605988,1027917.79312251,4,0,78,16,0
3,321,1083.86475418229,0,0,1027924.24026545,1027925.28733347,5,0,90,0,0
3,322,571.008597849868,0,0,1027927.54619161,1027928.59329236,5,0,85,4,4
3,323,668.320954428054,1,0,1027930.26386586,1027931.31094235,5,1,89,4,8
3,324,791.93153406959,0,0,1027933.09919535,1027934.1462703,5,0,82,8,16
3,325,722.959233564325,0,0,1027936.1109994,1027937.15807205,5,0,94,8,0
3,326,1027.35479478724,1,0,1027939.07574314,1027940.12281501,5,1,93,8,16
3,327,505.511724972166,1,0,1027942.29930806,1027943.34638417,5,1,83,8,4
3,328,532.698822906241,1,0,1027944.89934209,1027945.94641551,5,1,79,0,0
3,329,800.727891968563,0,0,1027947.57000337,1027948.61709295,5,0,77,16,0
3,330,848.857636214234,1,0,1027950.6170737,1027951.66413595,5,1,90,0,4
3,331,820.167265716009,1,0,1027953.53474441,1027954.58181667,5,1,78,4,0
3,332,503.962642047554,1,1,1027956.4288967,1027957.47598936,5,0,88,4,8
3,333,1129.38946741633,0,0,1027959.15833998,1027960.20541378,5,0,80,4,0
3,334,813.733413117006,1,0,1027962.37016128,1027963.41721391,5,1,100,8,16
3,335,891.623334377073,0,0,1027965.32311482,1027966.37019054,5,0,81,16,4
3,336,712.721196818165,0,0,1027968.27609838,1027969.3231664,5,0,93,4,4
3,337,1001.13163911738,0,0,1027971.05260391,1027972.09967347,5,0,88,0,8
3,338,636.737987282686,0,0,1027974.13504484,1027975.18207282,5,0,81,8,4
3,339,497.280874638818,0,0,1027976.92325779,1027977.97033544,5,0,94,8,0
3,340,483.024230459705,0,0,1027979.60565846,1027980.65276921,5,0,85,8,8
3,341,726.038536289707,0,0,1027982.17038964,1027983.21745766,5,0,99,16,16
3,342,1087.36751391552,1,0,1027985.02924409,1027986.0763202,5,1,83,8,8
3,343,823.502952465788,1,0,1027988.19398813,1027989.24106078,5,1,62,0,0
3,344,637.686915928498,0,0,1027991.20579181,1027992.25286406,5,0,65,0,4
3,345,489.16281783022,1,0,1027994.08818508,1027995.13524887,5,1,74,0,4
3,346,968.692133785225,0,0,1027996.80586125,1027997.85292928,5,0,98,4,4
3,347,896.511183585972,1,0,1027999.91177864,1028000.95884859,5,1,75,16,4
3,348,916.188078117557,1,0,1028002.88827832,1028003.93535904,5,1,100,16,0
3,349,824.588157469407,0,0,1028005.92361889,1028006.97068575,5,0,63,0,8
3,350,528.181305970065,0,0,1028008.85306902,1028009.90013935,5,0,87,4,16
3,351,929.598193266429,0,0,1028011.6295653,1028012.67663756,5,0,61,0,4
3,352,678.838472813368,1,0,1028014.68844162,1028015.73555237,5,1,76,4,8
3,353,884.954270673916,1,0,1028017.54729222,1028018.59440489,5,1,98,8,16
3,354,1014.62991023436,1,0,1028020.58261739,1028021.62969426,5,1,91,16,4
3,355,625.962160062045,1,0,1028023.75913354,1028024.80620117,5,1,88,4,0
3,356,706.63419412449,1,0,1028026.500347,1028027.54744081,5,1,61,4,16
3,357,1087.11728930939,0,0,1028029.26508349,1028030.31215075,5,0,79,16,0
3,358,615.592081681825,1,0,1028032.54755707,1028033.5945404,5,1,72,16,8
3,359,1292.22448938526,0,0,1028035.27691719,1028036.3239883,5,0,61,4,4
3,360,609.963567461818,1,0,1028038.72401778,1028039.77109466,5,1,90,0,8
3,361,689.500351669267,1,0,1028041.45346991,1028042.50053216,5,1,100,4,8
3,362,861.985574825667,1,0,1028044.27703268,1028045.32413843,5,1,88,16,8
3,363,678.473914857022,1,0,1028047.25353813,1028048.300605,5,1,79,4,8
3,364,985.392510192469,0,0,1028050.15945252,1028051.20652708,5,0,71,0,16
3,365,612.292196252383,1,0,1028053.30067352,1028054.34774,5,1,66,16,0
3,366,1614.15155779105,0,0,1028056.14775894,1028057.19483428,5,0,94,8,0
3,367,784.495243104175,1,0,1028059.87722301,1028060.92429218,5,1,69,16,8
3,368,607.072895625606,1,0,1028062.80666659,1028063.85374231,5,1,78,4,16
3,369,668.159655760974,0,0,1028065.55964138,1028066.60671594,5,0,66,8,4
3,370,815.159308491275,1,0,1028068.31261578,1028069.35968996,5,1,93,16,16
3,371,789.403495378792,1,0,1028071.27736452,1028072.32443139,5,1,94,8,4
3,372,687.795744510368,0,0,1028074.31268507,1028075.35982239,5,0,83,0,8
3,373,973.367869621143,0,0,1028077.24213636,1028078.28920784,5,0,74,0,8
3,374,501.427289098501,1,0,1028080.30100459,1028081.34806876,5,1,75,16,8
3,375,596.808296511881,1,0,1028082.95989145,1028084.0069279,5,1,92,4,16
3,376,771.304555935785,0,0,1028085.64224053,1028086.68931586,5,0,94,8,8
3,377,873.007007176057,0,0,1028088.58345737,1028089.63052539,5,0,63,8,16
3,378,876.497833174653,1,0,1028091.65407923,1028092.70114879,5,1,67,0,4
3,379,591.084311949089,0,0,1028094.7482299,1028095.7953037,5,0,97,0,16
3,380,1137.62955681887,0,0,1028097.5718046,1028098.61886685,5,0,95,4,0
3,381,944.542762706988,0,0,1028100.87772885,1028101.92479148,5,0,78,8,0
3,382,547.600276768208,1,0,1028104.07776649,1028105.12483259,5,1,75,16,8
3,383,891.825053840876,1,0,1028106.84253918,1028107.88958025,5,1,81,0,16
3,384,1014.32040170766,1,0,1028109.81901383,1028110.86607762,5,1,99,8,8
3,385,997.496837633662,1,0,1028112.98375749,1028114.03082012,5,1,99,0,16
3,386,618.795726681128,1,0,1028116.14855658,1028117.19557071,5,1,90,16,4
3,387,1261.61239377689,0,0,1028118.854426,1028119.90152367,5,0,93,16,4
3,388,1046.57435568515,0,0,1028122.34857383,1028123.3956457,5,0,89,16,16
3,389,536.300517618656,0,0,1028125.48978829,1028126.53685939,5,0,95,0,0
3,390,683.983091148548,1,0,1028128.23100021,1028129.27806861,5,1,93,16,16
3,391,882.839680067264,0,0,1028131.11338809,1028132.16045572,5,0,89,8,8
3,392,634.460943168961,1,0,1028134.16047998,1028135.2075557,5,1,68,16,0
3,393,652.451708680019,0,0,1028136.9016892,1028137.94876569,5,0,77,8,0
3,394,1081.48916007485,0,0,1028139.66643686,1028140.71350104,5,0,80,0,16
3,395,552.678296808153,1,0,1028142.97235533,1028144.01942335,5,1,96,0,0
3,396,685.943697229959,0,0,1028145.78415292,1028146.8312298,5,0,83,4,16
3,397,454.077475820668,1,0,1028148.54889904,1028149.59596475,5,1,66,4,0
3,398,1216.07305190992,0,0,1028151.14892576,1028152.19600148,5,0,100,16,16
3,399,558.280633646064,1,0,1028154.46661633,1028155.51368012,5,1,87,4,4
3,400,1364.48397149798,0,0,1028157.07841015,1028158.12547702,5,0,90,8,4
3,401,837.641028687358,0,0,1028170.96093623,1028172.00801388,6,0,70,16,0
3,402,613.89055417385,0,0,1028173.86686332,1028174.91399756,6,0,85,4,16
3,403,691.11988239456,0,0,1028176.6315952,1028177.6786586,6,0,80,4,8
3,404,847.178051481023,1,0,1028179.53751382,1028180.58457876,6,1,73,4,8
3,405,646.793552441522,1,0,1028182.47872297,1028183.52579523,6,1,74,16,16
3,406,921.507083810866,1,0,1028185.20816894,1028186.2552385,6,1,93,4,8
3,407,835.473313578404,0,0,1028188.36114511,1028189.40822122,6,0,65,4,8
3,408,674.213551799767,0,0,1028191.45533159,1028192.50236766,6,0,63,16,8
3,409,723.106288700365,0,0,1028194.36121402,1028195.40828512,6,0,95,0,16
3,410,674.329810077325,1,0,1028197.26713534,1028198.31420721,6,1,88,16,16
3,411,1136.44272217061,1,0,1028200.1730555,1028201.22012275,6,1,70,8,0
3,412,855.255302391015,1,0,1028203.47898012,1028204.52605084,6,1,74,8,0
3,413,1009.3921313528,1,0,1028206.47901785,1028207.52608356,6,1,82,8,0
3,414,674.62815484032,1,0,1028209.6908176,1028210.73788292,6,1,72,8,4
3,415,933.693793020211,1,0,1028212.561443,1028213.60851987,6,1,89,0,16
3,416,620.262428070419,0,0,1028215.58499799,1028216.63209565,6,0,76,16,8
3,417,560.245474334806,0,0,1028218.27916652,1028219.32622607,6,0,78,16,0
3,418,880.475634825416,0,0,1028221.05566627,1028222.10272159,6,0,83,16,8
3,419,633.824987686239,1,0,1028224.07922627,1028225.1263528,6,1,66,8,16
3,420,541.889380896464,0,0,1028226.78514381,1028227.83221645,6,0,63,8,16
3,421,781.60611120984,0,0,1028229.52635765,1028230.57342144,6,0,81,0,4
3,422,564.680994604714,1,0,1028232.37345193,1028233.42052034,6,1,72,8,4
3,423,1035.09174019564,1,0,1028235.05583219,1028236.10290445,6,1,61,8,8
3,424,651.267953799106,0,0,1028238.26764233,1028239.3147065,6,0,98,0,4
3,425,1204.84412566293,1,0,1028241.04414131,1028242.09121395,6,1,92,16,4
3,426,915.744603145868,0,0,1028244.50301324,1028245.55014285,6,0,88,16,8
3,427,758.102319668978,1,0,1028247.56186722,1028248.6089441,6,1,92,4,4
3,428,776.165842893533,1,0,1028250.52661481,1028251.57368283,6,1,66,4,0
3,429,519.972783396952,0,0,1028253.46782472,1028254.51489467,6,0,84,4,16
3,430,685.129504767247,0,0,1028256.23256738,1028257.27964002,6,0,87,0,0
3,431,979.453332489356,1,0,1028258.99730773,1028260.04437537,6,1,89,8,8
3,432,539.928389713168,0,0,1028262.17381387,1028263.22088497,6,0,75,0,16
3,433,781.306611606851,1,0,1028264.84443011,1028265.89150467,6,1,77,16,8
3,434,631.072901771404,1,0,1028267.83271151,1028268.87977799,6,1,64,8,16
3,435,654.933167039417,0,0,1028270.52690584,1028271.57393459,6,0,86,0,8
3,436,623.676261864603,0,0,1028273.36219105,1028274.40925253,6,0,73,16,4
3,437,744.773046346381,0,0,1028276.18575343,1028277.23284609,6,0,79,4,4
3,438,626.122303889133,0,0,1028279.04461173,1028280.09168168,6,0,79,8,8
3,439,610.0386348553,0,0,1028281.8564074,1028282.90347619,6,0,90,8,16
3,440,1034.26638396923,1,0,1028284.71526801,1028285.7623368,6,1,91,0,16
3,441,687.535510864109,0,0,1028287.98589787,1028289.03296782,6,0,81,4,4
3,442,549.065823084675,0,0,1028290.76240109,1028291.80946795,6,0,86,4,8
3,443,823.717375751585,1,0,1028293.55068257,1028294.59779678,6,1,92,8,8
3,444,750.686046783812,1,0,1028296.55071144,1028297.59777369,6,1,70,16,0
3,445,667.300037923269,1,0,1028299.52721111,1028300.57427759,6,1,94,4,16
3,446,854.593169642612,1,0,1028302.35078042,1028303.39784768,6,1,64,0,16
3,447,663.009263109416,1,0,1028305.32728318,1028306.37434927,6,1,80,0,8
3,448,462.556625949219,1,0,1028308.19790781,1028309.24497506,6,1,87,4,0
3,449,736.157235107385,1,0,1028310.84499985,1028311.89207249,6,1,81,4,0
3,450,681.976289604791,1,0,1028313.83327009,1028314.88033773,6,1,80,16,16
3,451,852.369250147603,0,0,1028316.75095697,1028317.79802537,6,0,81,16,0
3,452,780.784989474341,1,0,1028319.68041903,1028320.72747743,6,1,80,8,4
3,453,756.883148336783,1,0,1028322.64513582,1028323.69221577,6,1,93,16,16
3,454,790.890214615501,1,0,1028325.49223818,1028326.53930812,6,1,88,8,0
3,455,908.079260610975,0,0,1028328.40991312,1028329.4569823,6,0,98,0,0
3,456,684.127451386303,0,0,1028331.56290123,1028332.60996732,6,0,62,0,4
3,457,628.335059387609,1,0,1028334.31587101,1028335.36294096,6,1,78,16,0
3,458,883.237729663961,1,0,1028337.11591266,1028338.16297991,6,1,91,0,8
3,459,757.543741259724,0,0,1028340.18653683,1028341.23359985,6,0,80,4,0
3,460,493.535589426756,0,0,1028343.13950807,1028344.18658379,6,0,75,0,4
3,461,595.311953336932,0,0,1028345.73954672,1028346.78661282,6,0,63,8,16
3,462,978.63375057932,1,0,1028348.55134008,1028349.59841503,6,1,86,16,4
3,463,799.636912764981,0,0,1028351.70431972,1028352.75139236,6,0,88,4,4
3,464,608.031448442489,0,0,1028354.58671299,1028355.63377754,6,0,80,16,4
3,465,715.566443279386,0,0,1028357.3632112,1028358.41028769,6,0,62,8,0
3,466,672.476992942393,0,0,1028360.21031279,1028361.25737427,6,0,80,0,0
3,467,1051.32631387096,1,0,1028363.05740437,1028364.1044697,6,1,82,8,8
3,468,685.723499627784,1,0,1028366.17508386,1028367.22215727,6,1,87,16,4
3,469,567.087770439684,0,0,1028369.10453476,1028370.15160008,6,0,94,4,4
3,470,593.542287824675,0,0,1028371.77516177,1028372.82222825,6,0,73,4,16
3,471,506.081082159653,0,0,1028374.50459966,1028375.55166422,6,0,95,16,16
3,472,400.25107935071,1,0,1028377.21051643,1028378.25758445,6,1,76,4,0
3,473,389.654644066468,1,0,1028379.73996287,1028380.78703166,6,1,95,0,4
3,474,866.090413648635,0,0,1028382.26939968,1028383.31646808,6,0,70,0,8
3,475,654.185572871938,0,0,1028385.22237862,1028386.26944395,6,0,90,0,8
3,476,748.873265576549,0,0,1028388.11653553,1028389.1636024,6,0,62,0,0
3,477,513.11508892104,1,0,1028391.02245338,1028392.06952679,6,1,86,8,4
3,478,609.210198861547,1,0,1028393.58718726,1028394.63426067,6,1,91,0,0
3,479,609.373037354089,1,0,1028396.3401555,1028397.38723084,6,1,88,8,4
3,480,825.970552163199,0,0,1028399.17549114,1028400.22256687,6,0,71,4,16
3,481,878.214374068193,1,0,1028415.10511528,1028416.15216905,7,1,68,8,8
3,482,610.274615930393,0,1,1028418.06984323,1028419.11691164,7,1,99,16,4
3,483,705.385765642859,0,0,1028420.82281185,1028421.86988604,7,0,94,0,16
3,484,515.957255614921,0,0,1028423.59932354,1028424.6463881,7,0,64,16,16
3,485,731.737883295864,0,0,1028426.35229794,1028427.39937482,7,0,61,0,8
3,486,565.660335239954,0,0,1028429.34056471,1028430.38763158,7,0,67,8,4
3,487,741.314172162674,1,0,1028431.98765599,1028433.03472901,7,1,74,4,16
3,488,869.59201854188,0,0,1028434.79946128,1028435.8465216,7,0,70,16,4
3,489,677.051868988201,0,0,1028437.92890979,1028438.97597473,7,0,87,4,0
3,490,501.177834463306,1,0,1028440.83481994,1028441.88190105,7,1,67,16,4
3,491,649.576050345786,1,0,1028443.41132362,1028444.45839126,7,1,75,0,4
3,492,551.37212423142,1,0,1028446.152534,1028447.19960933,7,1,76,0,0
3,493,870.313050458208,1,0,1028448.90551571,1028449.95257719,7,1,98,8,4
3,494,1409.15830607992,0,0,1028451.84672217,1028452.89379096,7,0,95,0,8
3,495,796.5133395046,0,0,1028455.4702954,1028456.51736458,7,0,71,4,8
3,496,659.918796503916,1,0,1028458.49386541,1028459.54093689,7,1,86,0,8
3,497,678.017351194285,1,0,1028461.34096122,1028462.38803194,7,1,63,4,16
3,498,485.375956865028,1,0,1028464.1645186,1028465.21159047,7,1,66,0,16
3,499,648.808823083527,0,0,1028466.89396881,1028467.94108572,7,0,87,8,0
3,500,999.584481003694,1,0,1028469.68223374,1028470.7293033,7,1,97,16,4
3,501,896.891525015235,1,0,1028472.81169149,1028473.85876105,7,1,61,4,4
3,502,786.715313093737,0,0,1028475.84702051,1028476.89409046,7,0,81,0,0
3,503,724.867484997958,1,0,1028478.71764283,1028479.76471085,7,1,69,0,4
3,504,790.169182699174,1,0,1028481.63532278,1028482.68239042,7,1,81,16,8
3,505,561.270625446923,0,0,1028484.54124717,1028485.58831058,7,0,74,16,0
3,506,797.481516259722,0,0,1028487.30598098,1028488.35305208,7,0,81,8,0
3,507,556.25496909488,1,0,1028490.29424929,1028491.34132424,7,1,75,0,16
3,508,701.943444670178,0,0,1028493.08252461,1028494.12959148,7,0,92,0,8
3,509,805.062167579308,1,0,1028496.03550202,1028497.08257004,7,1,99,0,0
3,510,768.231027526781,0,0,1028499.00023844,1028500.04731223,7,0,84,16,8
3,511,588.181321392767,1,0,1028502.00028117,1028503.0473515,7,1,98,16,0
3,512,839.896515011787,0,0,1028504.8473689,1028505.89443923,7,0,96,4,16
3,513,603.161692153662,0,0,1028507.81211186,1028508.8591795,7,0,82,4,8
3,514,482.782474835403,1,0,1028510.58863163,1028511.63569157,7,1,87,0,16
3,515,925.512217683718,1,0,1028513.28276745,1028514.32983701,7,1,97,16,4
3,516,958.310506655835,1,0,1028516.37692543,1028517.42399461,7,1,64,0,0
3,517,508.2568814978,1,0,1028519.52989891,1028520.57697309,7,1,73,4,8
3,518,948.680708068423,0,0,1028522.15347176,1028523.20053132,7,0,68,8,8
3,519,496.740389382467,1,0,1028525.35350133,1028526.40057859,7,1,73,4,8
3,520,520.484781474806,1,0,1028527.95353497,1028529.00060723,7,1,75,0,0
3,521,1094.93430657312,0,0,1028530.71828148,1028531.76535374,7,0,62,4,0
3,522,818.782946094871,0,0,1028534.01242669,1028535.05950125,7,0,92,8,16
3,523,523.664943990298,1,0,1028537.07130146,1028538.11836101,7,1,84,4,16
3,524,1235.66294531338,0,0,1028539.76543881,1028540.81251877,7,0,67,8,0
3,525,932.388005428948,0,0,1028543.21254133,1028544.25961281,7,0,99,16,8
3,526,678.444657824002,0,0,1028546.27140686,1028547.31847296,7,0,99,4,0
3,527,775.874427403323,1,0,1028549.18909259,1028550.23615791,7,1,66,4,0
3,528,686.548085999675,0,0,1028552.22442084,1028553.27148539,7,0,93,0,4
3,529,718.427473097108,1,0,1028555.130341,1028556.17740748,7,1,63,8,16
3,530,504.857676220126,0,0,1028558.09508319,1028559.14215776,7,0,74,8,0
3,531,944.641312817112,1,0,1028560.78923287,1028561.83630089,7,1,62,4,0
3,532,1004.57588490099,0,0,1028563.84813613,1028564.89516527,7,0,90,8,4
3,533,577.023612800986,0,0,1028567.07166833,1028568.11874058,7,0,99,4,4
3,534,801.79692863021,0,0,1028569.80110891,1028570.84817886,7,0,99,0,8
3,535,1022.15628209524,0,0,1028572.68349025,1028573.73056828,7,0,81,8,8
3,536,814.619208336808,1,0,1028575.76589769,1028576.8130042,7,1,68,8,16
3,537,735.360750928521,1,0,1028578.64827787,1028579.6953482,7,1,93,16,16
3,538,1029.75233166944,1,0,1028581.47183563,1028582.51892136,7,1,100,8,16
3,539,786.378857097588,0,0,1028584.64835294,1028585.69541672,7,0,68,4,4
3,540,851.689024129882,1,0,1028587.56604097,1028588.61309667,7,1,65,16,0
3,541,822.534005739726,0,0,1028590.51900875,1028591.56607793,7,0,71,8,0
3,542,549.074677284807,1,0,1028593.40139509,1028594.4484685,7,1,65,16,8
3,543,887.835318455473,0,0,1028596.04848059,1028597.09556286,7,0,71,16,0
3,544,858.554417849518,0,0,1028599.08381539,1028600.1308861,7,0,95,8,4
3,545,683.490341063589,0,0,1028602.17797568,1028603.2250541,7,0,67,0,4
3,546,821.100795990787,1,0,1028605.10741619,1028606.15449268,7,1,98,16,16
3,547,565.867829252966,1,0,1028608.06039244,1028609.10746469,7,1,73,16,8
3,548,816.39310833998,0,0,1028610.83691528,1028611.88397561,7,0,69,16,16
3,549,831.122869742103,1,0,1028613.7310591,1028614.77812328,7,1,100,16,0
3,550,670.300423749723,0,0,1028616.74285277,1028617.78992618,7,0,81,0,16
3,551,549.394964706153,1,0,1028619.49583602,1028620.54290405,7,1,67,16,16
3,552,646.279244683683,0,0,1028622.23703716,1028623.2841098,7,0,80,8,4
3,553,661.183778196573,1,0,1028625.08413837,1028626.1312037,7,1,97,8,8
3,554,773.533864761703,1,0,1028627.95475684,1028629.00183372,7,1,80,8,16
3,555,524.026422295719,0,0,1028630.89597022,1028631.94304556,7,0,77,8,8
3,556,512.828677892685,1,0,1028633.57843748,1028634.62542543,7,1,77,4,4
3,557,1294.950397918,0,0,1028636.14309475,1028637.19017086,7,0,76,0,4
3,558,522.50082208775,0,0,1028639.57842824,1028640.62549395,7,0,96,4,8
3,559,689.653566107154,1,0,1028642.23735168,1028643.2843685,7,1,71,4,16
3,560,490.800441708416,0,0,1028645.04908767,1028646.09620305,7,0,65,4,4
3,561,732.042387477122,0,0,1028665.57874776,1028666.62581617,8,0,73,4,16
3,562,421.969037037343,1,0,1028668.484666,1028669.53173902,8,1,69,0,0
3,563,866.133914212696,1,0,1028671.13175573,1028672.17883107,8,1,93,16,8
3,564,458.677759277634,0,0,1028674.22591449,1028675.27303332,8,0,73,0,4
3,565,492.254054406658,0,0,1028676.89653419,1028677.94360452,8,0,84,16,16
3,566,616.725406725891,1,0,1028679.53186221,1028680.57894024,8,1,83,0,16
3,567,481.951344176196,1,0,1028682.39072012,1028683.4378328,8,1,85,4,8
3,568,526.571014313959,1,0,1028685.12016379,1028686.1672372,8,1,75,8,4
3,569,457.143689971417,1,0,1028687.70843649,1028688.75549951,8,1,66,4,16
3,570,534.447315498255,1,0,1028690.32023108,1028691.36729833,8,1,88,4,16
3,571,574.903247877955,1,0,1028693.04967397,1028694.09675161,8,1,83,0,4
3,572,799.164950614795,1,0,1028695.86147002,1028696.90854112,8,1,61,16,4
3,573,1018.6793145258,0,0,1028698.84975104,1028699.89681713,8,0,98,0,8
3,574,643.933677580208,1,0,1028702.06154462,1028703.10862805,8,1,80,16,8
3,575,988.52840217296,0,0,1028704.80275808,1028705.84982803,8,0,90,4,8
3,576,506.433706381358,0,0,1028707.99103402,1028709.03810127,8,0,76,4,8
3,577,723.909317166545,1,0,1028710.57930403,1028711.62637667,8,1,93,8,4
3,578,897.261087666266,0,0,1028713.43815617,1028714.48522688,8,0,78,0,4
3,579,566.626202315092,0,0,1028716.56763317,1028717.61467655,8,0,89,0,16
3,580,575.538433506154,1,0,1028719.36763902,1028720.41471051,8,1,83,8,4
3,581,692.475329968147,1,0,1028722.15591511,1028723.20297967,8,1,63,16,4
3,582,922.417131485417,0,0,1028725.01476186,1028726.0618422,8,0,96,4,16
3,583,498.186687706038,1,0,1028728.10892408,1028729.15599749,8,1,65,4,16
3,584,791.348703205585,1,0,1028730.86190233,1028731.90899576,8,1,80,16,16
3,585,607.530614128336,0,0,1028733.88546926,1028734.93253535,8,0,75,0,8
3,586,1269.50948289596,0,0,1028736.68550706,1028737.73257508,8,0,82,4,0
3,587,716.373321367428,1,0,1028740.13262574,1028741.1796749,8,1,68,0,0
3,588,533.285503392108,0,0,1028743.02675609,1028744.07382796,8,0,66,16,0
3,589,540.846906602383,0,0,1028745.75621592,1028746.80332436,8,0,77,16,0
3,590,767.361015779898,0,0,1028748.43859079,1028749.48565689,8,0,73,16,4
3,591,787.666936521418,0,0,1028751.45038946,1028752.49745748,8,0,61,0,16
3,592,1004.46424609981,0,0,1028754.39160207,1028755.43866663,8,0,97,4,4
3,593,967.463338398375,1,0,1028757.49751984,1028758.54458555,8,1,78,16,16
3,594,910.773987183347,0,0,1028760.57991458,1028761.62704265,8,0,71,8,16
3,595,901.755891740322,0,0,1028763.72112519,1028764.76819436,8,0,100,8,0
3,596,562.994865584187,1,0,1028766.79175166,1028767.83882277,8,1,77,0,4
3,597,618.438867968507,0,0,1028769.52120149,1028770.56826835,8,0,92,8,8
3,598,695.988483726978,1,0,1028772.34475925,1028773.39183035,8,1,64,8,8
3,599,678.664855426177,1,0,1028775.23891539,1028776.28603461,8,1,80,4,4
3,600,525.373785640113,0,0,1028778.01541591,1028779.0624897,8,0,84,16,16
3,601,580.459004617296,0,0,1028780.78015664,1028781.82722928,8,0,94,8,0
3,602,609.188256086782,0,0,1028783.46254113,1028784.50961455,8,0,96,8,16
3,603,669.126677676104,0,0,1028786.1684606,1028787.21553517,8,0,65,8,0
3,604,900.17755178269,1,0,1028789.07437961,1028790.1214484,8,1,100,16,4
3,605,633.732212125324,1,0,1028792.20387894,1028793.25089884,8,1,63,4,8
3,606,700.632267748006,1,0,1028795.00386515,1028796.05092856,8,1,63,16,0
3,607,846.991730388254,0,0,1028797.78036875,1028798.82743331,8,0,89,0,16
3,608,539.014492416754,0,0,1028800.78040032,1028801.82747566,8,0,78,8,8
3,609,597.916599130258,0,0,1028803.52164997,1028804.5686895,8,0,88,0,8
3,610,790.909847710282,1,0,1028806.36874347,1028807.41577223,8,1,91,4,0
3,611,650.645087007433,1,0,1028809.22759715,1028810.27469597,8,1,69,8,4
3,612,634.765447233804,1,0,1028812.02759992,1028813.07468026,8,1,70,8,0
3,613,509.443331276998,0,0,1028814.92175375,1028815.96882062,8,0,86,0,16
3,614,892.455235007219,0,0,1028817.5217847,1028818.56885041,8,0,79,4,0
3,615,600.464270799421,0,0,1028820.52181858,1028821.56888737,8,0,73,16,16
3,616,516.622468247078,0,0,1028823.28655431,1028824.33362618,8,0,73,8,16
3,617,541.786211309955,1,0,1028826.05130351,1028827.09841349,8,1,86,0,0
3,618,555.946230422705,0,0,1028828.85138597,1028829.89840394,8,0,64,4,0
3,619,652.488664956763,1,0,1028831.63959969,1028832.68667157,8,1,84,16,0
3,620,591.353784664534,1,0,1028834.48669667,1028835.53376353,8,1,85,4,4
3,621,816.374245332554,1,0,1028837.18085173,1028838.22791359,8,1,98,0,8
3,622,666.030821623281,0,0,1028840.16912081,1028841.2162512,8,0,97,0,0
3,623,856.750105856918,0,0,1028842.92211176,1028843.96922868,8,0,100,0,8
3,624,775.829002028331,0,0,1028845.87506761,1028846.92219915,8,0,80,0,4
3,625,1042.70126356278,0,0,1028848.91040741,1028849.9574712,8,0,100,8,16
3,626,507.005373481661,0,0,1028852.03985977,1028853.08692549,8,0,75,16,8
3,627,506.696634809487,1,0,1028854.72224119,1028855.7693069,8,1,78,16,0
3,628,837.44431368541,1,0,1028857.31050658,1028858.35762079,8,1,98,8,16
3,629,716.725560720079,0,0,1028860.32230602,1028861.36937519,8,0,61,4,4
3,630,455.230048974045,1,0,1028863.20469467,1028864.25176731,8,1,64,16,8
3,631,639.990522409789,1,0,1028865.79302165,1028866.84003847,8,1,97,16,4
3,632,629.12807893008,1,0,1028868.51063816,1028869.55771118,8,1,63,8,4
3,633,658.995275152847,1,0,1028871.3106775,1028872.35774783,8,1,91,4,8
3,634,657.971278997138,1,0,1028874.1577764,1028875.20484249,8,1,62,4,0
3,635,681.716055958532,0,0,1028876.89898793,1028877.94604864,8,0,62,4,4
3,636,584.699349477887,1,0,1028879.75788588,1028880.80491733,8,1,89,8,8
3,637,556.821631616913,0,0,1028882.40498947,1028883.45199782,8,0,67,8,8
3,638,502.721527940594,1,0,1028885.11084696,1028886.15791691,8,1,72,0,0
3,639,677.839114214294,0,0,1028887.71093373,1028888.75795209,8,0,62,16,8
3,640,490.721909678541,1,0,1028890.51092187,1028891.55798027,8,1,90,8,0
3,641,539.423321024515,0,0,1028903.86402154,1028904.91108648,9,0,75,4,0
3,642,514.829705003649,0,0,1028906.48758439,1028907.53464971,9,0,67,8,0
3,643,620.052239275537,1,0,1028909.20526095,1028910.2523282,9,1,89,4,4
3,644,824.053061543964,0,0,1028912.05236716,1028913.09942363,9,0,82,16,4
3,645,634.508678223938,0,0,1028915.13474187,1028916.18181066,9,0,66,8,0
3,646,442.379282205366,1,0,1028917.9700729,1028919.01714092,9,1,86,4,0
3,647,751.440955209546,1,0,1028920.4759859,1028921.52305122,9,1,67,8,8
3,648,627.234456012957,1,0,1028923.3701405,1028924.41720659,9,1,69,8,8
3,649,689.667424652725,1,0,1028926.09957992,1028927.14665718,9,1,98,4,8
3,650,1335.59303637594,1,0,1028929.00549931,1028930.05256772,9,1,82,0,0
3,651,695.724015473388,1,0,1028932.55848573,1028933.60555182,9,1,85,0,4
3,652,669.737610733137,1,0,1028935.41734903,1028936.46445632,9,1,99,0,8
3,653,792.398491757922,0,0,1028938.19384839,1028939.24091988,9,0,87,8,16
3,654,823.216926422901,0,0,1028941.04094074,1028942.08801108,9,0,81,8,4
3,655,460.418937844224,1,0,1028943.95862377,1028945.00569256,9,1,96,16,4
3,656,388.041272643022,0,0,1028946.54689417,1028947.59396219,9,0,84,16,0
3,657,612.767623155378,0,0,1028949.13519844,1028950.18223027,9,0,75,8,4
3,658,431.810948881321,1,0,1028951.99402209,1028953.04109319,9,1,95,4,0
3,659,861.888949642889,0,0,1028954.5469958,1028955.59406574,9,0,93,4,4
3,660,812.008787994273,1,0,1028957.54702621,1028958.59410578,9,1,96,16,0
3,661,844.403252820484,1,0,1028960.57058582,1028961.61766731,9,1,66,16,0
3,662,548.956109210849,0,0,1028963.5118119,1028964.55887685,9,0,77,4,16
3,663,683.091906481422,1,0,1028966.12360611,1028967.17068337,9,1,76,4,16
3,664,556.132166530006,1,0,1028969.01775339,1028970.0648295,9,1,83,0,0
3,665,646.168760955334,1,0,1028971.77072779,1028972.81780159,9,1,96,8,0
3,666,777.919725049287,1,0,1028974.52370335,1028975.57077637,9,1,81,16,8
3,667,682.022484950721,1,0,1028977.38256742,1028978.42963621,9,1,69,0,0
3,668,1095.97870556172,0,0,1028980.17089009,1028981.21791038,9,0,82,4,16
3,669,737.661662627943,1,0,1028983.51204904,1028984.55911437,9,1,85,16,0
3,670,486.522370600142,1,0,1028986.40620595,1028987.45327012,9,1,73,0,16
3,671,963.25917984359,0,0,1028989.05329684,1028990.10036563,9,0,79,8,4
3,672,1078.14538909588,0,0,1028992.10039412,1028993.14746214,9,0,61,0,4
3,673,772.245400468819,0,0,1028995.30043099,1028996.34749786,9,0,98,0,8
3,674,1334.01777606923,0,0,1028998.20634538,1028999.25342919,9,0,96,16,8
3,675,722.000295761973,1,0,1029001.70050668,1029002.74758663,9,1,73,16,0
3,676,1101.41358454712,0,0,1029004.52407291,1029005.57113978,9,0,92,8,16
3,677,777.78614347335,0,0,1029007.85352981,1029008.90060669,9,0,78,4,4
3,678,919.966470100917,0,0,1029010.86532887,1029011.91239304,9,0,91,16,16
3,679,869.217066559941,0,0,1029013.87713177,1029014.92420056,9,0,93,16,8
3,680,824.558900319971,1,0,1029016.90069793,1029017.94776556,9,1,81,16,8
3,681,721.544502070174,0,0,1029019.85367225,1029020.90074412,9,0,63,0,16
3,682,1429.33372512925,1,0,1029022.79488794,1029023.84195789,9,1,62,16,16
3,683,826.698128366843,0,0,1029026.41846003,1029027.46552959,9,0,65,4,8
3,684,695.231265388429,0,0,1029029.30084829,1029030.34791362,9,0,82,16,16
3,685,592.807012377307,1,0,1029032.23029534,1029033.2773676,9,1,87,16,16
3,686,515.782483387738,1,0,1029034.93620827,1029035.98333827,9,1,85,0,0
3,687,730.538344942033,0,0,1029037.52448174,1029038.57154476,9,0,98,4,4
3,688,530.792496167123,0,0,1029040.48922047,1029041.53629581,9,0,94,4,16
3,689,787.047534249723,0,0,1029043.10101352,1029044.14808423,9,0,72,0,4
3,690,654.053146368824,0,0,1029046.05399169,1029047.10105894,9,0,95,4,8
3,691,667.674605036154,1,0,1029048.79522055,1029049.84232861,9,1,77,0,4
3,692,2417.20706992783,0,0,1029051.51288402,1029052.55995551,9,0,95,8,16
3,693,884.785272763111,0,0,1029055.99528976,1029057.04235625,9,0,93,8,4
3,694,525.382639840245,1,0,1029059.08944313,1029060.13652078,9,1,75,4,0
3,695,925.794778973795,0,0,1029061.86594827,1029062.91302245,9,0,65,0,0
3,696,624.177481047809,1,0,1029064.98364354,1029066.03070271,9,1,68,16,4
3,697,578.753242501989,1,0,1029067.81902538,1029068.86604413,9,1,98,0,16
3,698,849.090537521988,0,0,1029070.63076907,1029071.67783094,9,0,63,0,16
3,699,682.752755936235,0,0,1029073.67785942,1029074.72497172,9,0,61,0,16
3,700,720.304157817736,1,0,1029076.45436418,1029077.50143836,9,1,68,8,0
3,701,573.06236459408,0,0,1029079.33675245,1029080.38382124,9,0,83,16,16
3,702,886.134561034851,1,0,1029081.99561198,1029083.04268115,9,1,70,16,8
3,703,557.859101332724,0,0,1029085.04270579,1029086.08983618,9,0,76,4,16
3,704,561.9185147807,1,0,1029087.84273666,1029088.88982008,9,1,61,0,8
3,705,790.464832796715,1,0,1029090.47806507,1029091.52513271,9,1,77,8,16
3,706,591.266398550943,0,0,1029093.4192823,1029094.46634532,9,0,77,8,16
3,707,734.965395997278,1,0,1029096.10166449,1029097.14874675,9,1,64,16,4
3,708,1128.56950063724,0,0,1029098.98404852,1029100.03112308,9,0,61,8,8
3,709,542.096104938537,1,0,1029102.3135085,1029103.36057075,9,1,85,0,4
3,710,758.188550942577,1,0,1029104.98412551,1029106.0311943,9,1,95,4,4
3,711,596.014122129418,1,0,1029107.97239421,1029109.01946531,9,1,69,8,8
3,712,1037.46848914307,1,0,1029110.74890128,1029111.79597199,9,1,88,8,8
3,713,805.415561655536,0,0,1029113.89012343,1029114.93718568,9,0,89,8,4
3,714,908.213611925021,0,0,1029116.93721763,1029117.98428219,9,0,84,4,8
3,715,587.503020069562,1,0,1029119.91372,1029120.96078918,9,1,88,16,4
3,716,599.118447280489,0,0,1029122.73728315,1029123.78435618,9,0,69,0,8
3,717,499.238786054775,1,0,1029125.5020235,1029126.54909037,9,1,85,4,8
3,718,829.695434425958,0,0,1029128.18443841,1029129.23148641,9,0,67,8,0
3,719,758.173152571544,0,0,1029131.16091267,1029132.20798531,9,0,83,0,8
3,720,571.293469052762,1,0,1029134.06683052,1029135.11390278,9,1,66,4,0
