sub_id,Trial,RT,Resp,Error,Fix_onset,Disp_onset,block,tid,tloc,fish_setsize,bird_setsize
37,1,518.79728352651,1,0,2549087.50261771,2549088.54970613,1,1,63,4,16
37,2,582.59647898376,0,0,2549090.14970244,2549091.19679394,1,0,82,16,4
37,3,401.334145572037,1,0,2549092.98488801,2549094.03218502,1,1,64,0,4
37,4,612.707740161568,0,0,2549095.54985858,2549096.59693122,1,0,90,8,16
37,5,527.957045007497,1,0,2549098.373466,2549099.42059562,1,1,98,4,8
37,6,598.444551695138,0,0,2549101.16178251,2549102.20887132,1,0,98,16,16
37,7,630.272353999317,0,0,2549103.99716859,2549105.04424931,1,0,81,16,0
37,8,525.221127551049,1,0,2549106.79724412,2549107.84432831,1,1,71,16,0
37,9,553.013768512756,0,0,2549109.44437389,2549110.49147348,1,0,69,4,4
37,10,552.053675986826,0,0,2549112.11504402,2549113.16213206,1,0,75,0,0
37,11,463.833712507039,1,0,2549114.84456429,2549115.89161422,1,1,86,0,0
37,12,521.055464632809,0,0,2549117.40930779,2549118.45639776,1,0,89,4,8
37,13,581.681426614523,0,0,2549120.044677,2549121.09176697,1,0,68,16,8
37,14,549.89250516519,0,0,2549122.72710769,2549123.77419958,1,0,95,8,8
37,15,658.128128852695,0,0,2549125.48012983,2549126.52721287,1,0,71,8,4
37,16,561.643438413739,1,0,2549128.26844827,2549129.3155186,1,1,70,8,8
37,17,670.380666851997,0,0,2549131.0685211,2549132.11561184,1,0,66,16,16
37,18,700.011881999671,1,0,2549133.89213468,2549134.93923851,1,1,98,4,16
37,19,668.717250227928,1,0,2549136.78634241,2549137.83342544,1,1,63,0,0
37,20,502.041857689619,1,0,2549139.56288835,2549140.60997678,1,1,93,0,4
37,21,581.87390724197,0,0,2549142.21002043,2549143.25718585,1,0,66,8,8
37,22,526.658571325243,1,0,2549144.99834156,2549146.04542652,1,1,69,4,4
37,23,618.90638154,0,0,2549147.62173501,2549148.66903287,1,0,84,8,0
37,24,605.07896868512,1,0,2549150.48084509,2549151.52793082,1,1,90,16,4
37,25,621.042144950479,0,0,2549153.23386491,2549154.28097875,1,0,80,4,8
37,26,806.481689680368,0,0,2549155.91629676,2549156.96338133,1,0,62,4,16
37,27,539.627905935049,0,0,2549158.83402714,2549159.88111941,1,0,64,16,8
37,28,558.539113495499,0,0,2549161.52822916,2549162.57531066,1,0,93,8,0
37,29,790.475012734532,0,0,2549164.18711333,2549165.23421061,1,0,80,16,4
37,30,553.621622268111,1,0,2549167.19903942,2549168.24606433,1,1,99,16,16
37,31,497.194814030081,1,0,2549169.97551838,2549171.02261951,1,1,76,8,4
37,32,525.902123190463,1,0,2549172.59913397,2549173.65798141,1,1,74,8,8
37,33,634.419153444469,1,0,2549175.352215,2549176.39926262,1,1,62,16,0
37,34,535.52884189412,1,0,2549178.15223202,2549179.19931698,1,1,96,4,8
37,35,542.238326743245,1,0,2549180.90525454,2549181.9523318,1,1,94,8,16
37,36,649.02688190341,0,0,2549183.55238277,2549184.59947235,1,0,76,16,16
37,37,445.439123082906,0,0,2549186.42305359,2549187.47014818,1,0,86,16,16
37,38,592.275167349726,0,0,2549188.96430408,2549190.01139559,1,0,82,0,8
37,39,513.743516523391,0,0,2549191.74091201,2549192.78796001,1,0,88,8,16
37,40,434.33723365888,1,0,2549194.43505398,2549195.48214125,1,1,86,0,8
37,41,591.36935416609,0,0,2549196.94099739,2549197.98809159,1,0,93,0,4
37,42,655.345246195793,1,0,2549199.7410914,2549200.78817713,1,1,63,4,0
37,43,670.869566965848,1,0,2549202.52939983,2549203.57655254,1,1,63,8,4
37,44,479.251783806831,0,0,2549205.35301264,2549206.40009799,1,0,73,8,4
37,45,640.564285218716,0,0,2549207.96485188,2549209.01193954,1,0,97,4,0
37,46,499.538841657341,1,0,2549210.72964151,2549211.77672454,1,1,97,4,4
37,47,401.798408478498,0,0,2549213.44736465,2549214.4944473,1,0,85,0,16
37,48,459.324279800057,1,0,2549215.91801984,2549216.96510942,1,1,74,0,0
37,49,659.260299056768,1,0,2549218.57691248,2549219.62401014,1,1,90,0,16
37,50,511.28246076405,0,0,2549221.32995232,2549222.3770319,1,0,88,0,8
37,51,599.948208779097,0,0,2549224.02413703,2549225.07122199,1,0,66,16,8
37,52,418.707048986107,1,0,2549226.70656464,2549227.75364652,1,1,78,16,8
37,53,798.373256810009,1,0,2549229.20075673,2549230.24784246,1,1,91,4,16
37,54,744.94375474751,1,0,2549232.0949991,2549233.14206481,1,1,70,8,0
37,55,601.30134690553,1,0,2549234.90680439,2549235.95388935,1,1,67,16,4
37,56,886.371097993106,0,0,2549237.67159555,2549238.71870092,1,0,67,0,4
37,57,645.975681487471,0,0,2549240.80109334,2549241.84817715,1,0,97,4,8
37,58,722.096322104335,1,0,2549243.61293636,2549244.66001901,1,1,80,0,0
37,59,615.851716604084,1,0,2549246.41300919,2549247.46013573,1,1,85,8,16
37,60,475.439130328596,1,0,2549249.1425106,2549250.18958824,1,1,77,8,8
37,61,457.433351315558,1,0,2549251.69552396,2549252.74260507,1,1,86,0,16
37,62,680.669133085757,0,0,2549254.31913146,2549255.3662168,1,0,99,16,8
37,63,778.78875285387,1,0,2549257.22518327,2549258.27219625,1,1,65,8,16
37,64,461.257168557495,1,0,2549260.21340924,2549261.26050113,1,1,84,0,4
37,65,630.729687400162,0,0,2549262.74292228,2549263.78999453,1,0,69,8,4
37,66,528.303894679993,1,0,2549265.62533287,2549266.67242245,1,1,97,4,4
37,67,480.193013325334,0,0,2549268.36658367,2549269.41367748,1,0,86,4,0
37,68,517.761353868991,0,0,2549271.0607857,2549272.10788182,1,0,67,16,0
37,69,444.541778881103,0,0,2549273.64914386,2549274.69617839,1,0,78,8,0
37,70,674.606382846832,0,0,2549276.21387928,2549277.26096193,1,0,93,16,0
37,71,524.886596016586,0,0,2549279.13159426,2549280.17870463,1,0,84,0,16
37,72,591.86903340742,1,0,2549281.8257986,2549282.87288394,1,1,90,0,8
37,73,517.886080779135,0,0,2549284.59057359,2549285.63774478,1,0,85,4,4
37,74,486.731960438192,1,0,2549287.33183363,2549288.37892205,1,1,64,0,16
37,75,583.143508061767,1,0,2549289.96725674,2549291.01431898,1,1,70,4,0
37,76,422.233291435987,1,0,2549292.61434531,2549293.66143335,1,1,76,0,8
37,77,646.734439302236,0,0,2549295.10853664,2549296.1556524,1,0,72,8,0
37,78,737.72111767903,0,0,2549297.89684738,2549298.94393426,1,0,68,4,0
37,79,569.791906978935,1,0,2549300.75575071,2549301.80283644,1,1,66,16,4
37,80,641.622927971184,1,0,2549303.50877478,2549304.55586397,1,1,89,4,16
37,81,504.950237926096,0,0,2549326.76832816,2549327.81536153,2,0,89,0,4
37,82,618.069091811776,1,0,2549329.38009157,2549330.42721502,2,1,96,8,0
37,83,484.200457111001,0,0,2549332.23900684,2549333.2860968,2,0,95,8,0
37,84,556.134647224098,0,0,2549334.80381886,2549335.85089343,2,0,92,0,16
37,85,429.430135991424,0,0,2549337.46269187,2549338.50977567,2,0,86,16,0
37,86,461.878111120313,1,0,2549340.03924251,2549341.08632131,2,1,76,4,4
37,87,487.498032394797,0,0,2549342.63930734,2549343.68640077,2,0,88,16,4
37,88,602.109379600734,1,0,2549345.27467886,2549346.32176305,2,1,100,4,16
37,89,511.083820834756,0,0,2549348.07476401,2549349.12184897,2,0,83,4,0
37,90,502.22278945148,1,0,2549350.674835,2549351.72192419,2,1,93,0,0
37,91,583.902651444077,1,0,2549353.36902124,2549354.4161959,2,1,79,16,0
37,92,717.807856854051,0,0,2549356.01615987,2549357.06325445,2,0,73,16,16
37,93,476.065847091377,1,0,2549358.94565427,2549359.99274693,2,1,98,0,8
37,94,439.568853005767,1,0,2549361.6751422,2549362.72224179,2,1,89,4,4
37,95,597.835158463568,1,0,2549364.3340972,2549365.3811325,2,1,66,16,8
37,96,707.875864114612,1,0,2549367.00471921,2549368.05180379,2,1,91,8,0
37,97,850.496971048415,1,0,2549369.84008488,2549370.88718293,2,1,92,4,16
37,98,576.967579778284,0,0,2549372.75787916,2549373.80491523,2,0,78,16,8
37,99,555.063301231712,1,0,2549375.58143654,2549376.62852535,2,1,100,16,16
37,100,668.225654866546,0,0,2549378.24032687,2549379.28741529,2,0,65,4,4
37,101,453.474028035998,0,0,2549381.05217951,2549382.09926793,2,0,67,4,4
37,102,612.369359470904,0,0,2549383.60519133,2549384.65228245,2,0,74,4,0
37,103,441.76890514791,0,0,2549386.47586292,2549387.52295366,2,0,67,8,8
37,104,588.00749015063,1,0,2549389.09946118,2549390.14655692,2,1,63,8,4
37,105,614.97362004593,0,0,2549391.89955134,2549392.94664015,2,0,95,16,16
37,106,540.408606640995,1,0,2549394.67610075,2549395.72318456,2,1,78,8,16
37,107,480.07675493136,0,0,2549397.37028507,2549398.41738812,2,0,98,0,8
37,108,556.528847198933,1,0,2549400.09979341,2549401.14687182,2,1,72,16,0
37,109,493.386395741254,1,0,2549402.79397811,2549403.84106692,2,1,83,0,16
37,110,635.470096953213,1,0,2549405.34700263,2549406.39408182,2,1,78,4,8
37,111,794.461668469012,0,0,2549408.11177224,2549409.15886797,2,0,86,0,0
37,112,686.657585669309,1,0,2549411.06480777,2549412.11189157,2,1,72,8,0
37,113,712.784116622061,1,0,2549413.84136026,2549414.88847486,2,1,64,4,0
37,114,629.898171871901,1,0,2549416.68849342,2549417.73559724,2,1,65,4,8
37,115,700.688642915338,0,0,2549419.39446216,2549420.4415475,2,0,68,0,4
37,116,707.505531609058,0,0,2549422.33571904,2549423.38280477,2,0,84,4,16
37,117,497.520876582712,1,0,2549425.19462738,2549426.24171119,2,1,65,0,0
37,118,520.491112023592,1,0,2549427.74764036,2549428.79471877,2,1,71,0,8
37,119,542.111289221793,0,0,2549430.33594809,2549431.38303729,2,0,87,8,16
37,120,602.006595116109,0,0,2549433.08898678,2549434.13607482,2,0,83,8,16
37,121,573.822063859552,0,0,2549435.83026838,2549436.87737374,2,0,88,0,8
37,122,633.718139491975,0,0,2549438.63036623,2549439.67739076,2,0,73,16,8
37,123,561.542578507215,0,0,2549441.32449935,2549442.37159317,2,0,68,0,4
37,124,573.099106550217,0,0,2549444.11281625,2549445.15990775,2,0,93,0,16
37,125,627.894835080951,1,0,2549446.80700596,2549447.85409862,2,1,75,8,8
37,126,651.728922966868,0,0,2549449.54826985,2549450.59535635,2,0,70,8,8
37,127,654.654626734555,0,0,2549452.36011209,2549453.40719551,2,0,93,0,4
37,128,551.095508504659,1,0,2549455.1248867,2549456.17199014,2,1,71,8,4
37,129,499.626227654517,0,0,2549457.77204188,2549458.81918805,2,0,68,8,8
37,130,734.771932009608,0,0,2549460.38385417,2549461.43102229,2,0,98,16,8
37,131,491.595942061394,0,0,2549463.26630557,2549464.31339438,2,0,96,8,8
37,132,432.809708639979,0,0,2549465.9369811,2549466.98408299,2,0,98,8,0
37,133,701.678377576172,1,0,2549468.53704977,2549469.58413396,2,1,67,16,0
37,134,998.221120331436,1,0,2549471.32536128,2549472.37244701,2,1,98,8,16
37,135,657.124536111951,0,0,2549474.51368842,2549475.56077915,2,0,78,16,0
37,136,723.228107206523,0,0,2549477.32552989,2549478.37262602,2,0,95,4,8
37,137,544.372165109962,1,0,2549480.19628387,2549481.24331224,2,1,98,0,16
37,138,682.373740244657,1,0,2549482.90216677,2549483.9492575,2,1,67,0,4
37,139,711.540307383984,1,0,2549485.81989753,2549486.86698403,2,1,84,0,16
37,140,561.43517466262,1,0,2549488.76115672,2549489.808249,2,1,86,16,4
37,141,683.505525346845,1,0,2549491.47888795,2549492.52597098,2,1,86,4,8
37,142,775.039232801646,0,0,2549494.36135782,2549495.40842508,2,0,69,4,0
37,143,643.689398188144,0,0,2549497.33787559,2549498.38496594,2,0,97,16,4
37,144,810.04103878513,1,0,2549500.17324973,2549501.22034239,2,1,63,4,0
37,145,733.665938489139,1,0,2549503.20864728,2549504.25571183,2,1,99,8,16
37,146,968.685375526547,1,0,2549506.06757256,2549507.11468139,2,1,82,16,4
37,147,669.271979015321,0,0,2549509.1029216,2549510.15000309,2,0,71,0,8
37,148,686.040108557791,1,0,2549511.98535952,2549513.03244949,2,1,87,16,16
37,149,640.160846058279,0,0,2549514.80896541,2549515.85605614,2,0,63,0,0
37,150,519.167616032064,0,0,2549517.59728654,2549518.64437843,2,0,76,8,4
37,151,553.814487531781,1,0,2549520.33855312,2549521.38562114,2,1,96,16,16
37,152,654.410176444799,0,0,2549522.98567635,2549524.03276323,2,0,67,4,4
37,153,679.570069536567,0,0,2549525.75046482,2549526.79754285,2,0,92,4,8
37,154,682.995067443699,0,0,2549528.62113834,2549529.66821714,2,0,89,16,4
37,155,804.498370736837,1,0,2549531.44476193,2549532.49182995,2,1,63,8,4
37,156,632.550168316811,1,0,2549534.36246497,2549535.40955378,2,1,79,0,0
37,157,554.50857244432,0,0,2549537.06843757,2549538.11552406,2,0,88,4,16
37,158,519.365870859474,1,0,2549539.8567483,2549540.90383249,2,1,65,4,16
37,159,695.065133273602,1,0,2549542.55093839,2549543.59803413,2,1,61,8,4
37,160,591.921388171613,1,0,2549545.3510274,2549546.39810966,2,1,67,16,8
37,161,732.586508151144,1,0,2549581.19911256,2549582.24619714,3,1,71,16,8
37,162,503.996689338237,0,0,2549584.03449055,2549585.0815759,3,0,79,8,16
37,163,544.760590884835,1,0,2549586.7757733,2549587.8228421,3,1,98,16,8
37,164,483.676140196621,0,0,2549589.52876926,2549590.5758523,3,0,84,0,16
37,165,471.800094936043,1,0,2549592.1876669,2549593.23475802,3,1,85,16,0
37,166,555.878648068756,0,0,2549594.79949344,2549595.84659111,3,0,97,4,8
37,167,521.73530543223,1,0,2549597.52899216,2549598.57608481,3,1,87,0,0
37,168,540.472510270774,0,0,2549600.1408391,2549601.18792213,3,0,99,4,4
37,169,594.006336759776,0,0,2549602.91738697,2549603.96447732,3,0,69,8,4
37,170,552.879032678902,0,0,2549605.62336533,2549606.67044606,3,0,63,4,8
37,171,513.298501260579,0,0,2549608.38813417,2549609.43522067,3,0,97,8,16
37,172,726.861753966659,1,0,2549611.02354534,2549612.07064262,3,1,63,8,4
37,173,745.834169909358,0,0,2549613.88240441,2549614.92950169,3,0,80,0,4
37,174,653.84120400995,0,0,2549616.74131468,2549617.78846123,3,0,87,4,0
37,175,486.148359719664,0,0,2549619.56492249,2549620.61201361,3,0,88,8,16
37,176,551.871589850634,1,0,2549622.15327873,2549623.20034174,3,1,89,16,0
37,177,591.236157808453,0,0,2549624.92978541,2549625.9768696,3,0,83,8,4
37,178,685.831844806671,0,0,2549627.7534013,2549628.80048472,3,0,82,16,16
37,179,561.759312171489,0,0,2549630.61234159,2549631.65939807,3,0,66,0,4
37,180,594.235003460199,1,0,2549633.34179141,2549634.38888253,3,1,61,0,0
37,181,449.927767273039,0,0,2549636.17717402,2549637.22427477,3,0,65,0,8
37,182,661.709805950522,1,0,2549638.71840989,2549639.76550409,3,1,91,8,16
37,183,650.443923659623,1,0,2549641.47144049,2549642.51852276,3,1,75,16,0
37,184,571.210873313248,1,0,2549644.36563513,2549645.41272971,3,1,63,0,0
37,185,602.734556421638,1,0,2549647.17748045,2549648.22460006,3,1,68,16,16
37,186,657.69273834303,0,0,2549650.00109519,2549651.04824559,3,0,93,4,16
37,187,702.814782503992,0,0,2549652.86000507,2549653.90710197,3,0,89,16,16
37,188,644.536312669516,1,0,2549655.80125964,2549656.84834922,3,1,66,0,16
37,189,697.304450906813,0,0,2549658.63664264,2549659.68372683,3,0,89,8,8
37,190,576.67308440432,1,0,2549661.41317473,2549662.46028278,3,1,79,0,8
37,191,748.469612561166,1,0,2549664.15444208,2549665.20153089,3,1,80,0,0
37,192,772.240951657295,1,0,2549667.04864403,2549668.09573053,3,1,92,16,4
37,193,725.340003147721,0,0,2549670.01343242,2549671.06052277,3,0,92,16,8
37,194,659.913962706923,1,0,2549672.80175085,2549673.84884505,3,1,62,4,0
37,195,621.274276636541,0,0,2549675.56659591,2549676.61362621,3,0,92,8,8
37,196,680.102855432779,0,0,2549678.23720291,2549679.28428556,3,0,72,8,8
37,197,495.832437649369,0,0,2549680.96669161,2549682.01378158,3,0,72,0,4
37,198,653.39734358713,1,0,2549683.54323109,2549684.59032414,3,1,84,0,0
37,199,568.056118208915,0,0,2549686.43743535,2549687.48452685,3,0,97,8,0
37,200,578.979385551065,1,0,2549689.1316343,2549690.17875313,3,1,93,16,4
37,201,1015.95973642543,1,0,2549691.83759534,2549692.88468222,3,1,98,16,8
37,202,513.392431661487,1,0,2549695.06121878,2549696.10830451,3,1,76,0,8
37,203,597.528344485909,1,0,2549697.63778982,2549698.6848898,3,1,74,4,8
37,204,497.143999207765,1,0,2549700.32018818,2549701.36727698,3,1,64,8,16
37,205,577.290946617723,1,0,2549703.0732542,2549704.12030451,3,1,70,0,4
37,206,512.682948727161,1,0,2549705.89682351,2549706.94391001,3,1,72,4,0
37,207,627.312774304301,1,0,2549708.49693453,2549709.54401333,3,1,88,0,4
37,208,595.563118811697,1,0,2549711.20284822,2549712.24994127,3,1,99,4,16
37,209,522.779319901019,0,0,2549713.87352259,2549714.92060909,3,0,96,8,4
37,210,548.649466130883,1,0,2549716.62654627,2549717.67363431,3,1,82,0,16
37,211,612.332403194159,0,0,2549719.35608078,2549720.40312224,3,0,62,16,4
37,212,525.371261872351,1,0,2549722.22670195,2549723.27378922,3,1,63,4,4
37,213,687.404025346041,1,0,2549724.87384326,2549725.92093092,3,1,92,16,4
37,214,909.757476300001,0,0,2549727.65039575,2549728.69747879,3,0,79,16,8
37,215,565.161211881787,0,0,2549730.62694855,2549731.67403621,3,0,79,8,0
37,216,606.814372818917,1,0,2549733.30943968,2549734.3564592,3,1,96,4,8
37,217,522.995667997748,1,0,2549736.12122534,2549737.16830799,3,1,63,0,8
37,218,409.847942180932,0,0,2549738.78011874,2549739.82725221,3,0,98,16,16
37,219,570.787416305393,0,0,2549741.33314442,2549742.3802417,3,0,94,8,4
37,220,638.129021972418,1,0,2549744.05086063,2549745.09794636,3,1,100,16,0
37,221,428.498146124184,0,0,2549746.87449192,2549747.92158112,3,0,75,16,16
37,222,642.38900039345,1,0,2549749.52161091,2549750.56869125,3,1,98,4,8
37,223,625.921910163015,1,0,2549752.35697312,2549753.40412699,3,1,99,0,16
37,224,704.946696292609,1,0,2549755.06293609,2549756.11003144,3,1,71,0,16
37,225,879.484916105866,0,0,2549757.8394932,2549758.88656969,3,0,80,8,0
37,226,509.046222548932,0,0,2549760.93370046,2549761.98078349,3,0,65,4,16
37,227,573.258095886558,0,0,2549763.6514236,2549764.6985178,3,0,62,8,8
37,228,937.192104291171,0,0,2549766.2985603,2549767.34564795,3,0,99,8,0
37,229,639.26003780216,1,0,2549769.35747164,2549770.40455622,3,1,89,4,16
37,230,580.321744084358,0,0,2549772.21637768,2549773.26347034,3,0,84,8,0
37,231,542.394235730171,1,0,2549774.96940713,2549776.01648362,3,1,84,16,4
37,232,544.467635452747,1,0,2549777.64006379,2549778.68715221,3,1,92,4,4
37,233,684.544150251895,0,0,2549780.38131998,2549781.42840532,3,0,98,4,4
37,234,563.392701093107,1,0,2549783.24022601,2549784.28731174,3,1,69,0,8
37,235,637.78024725616,0,0,2549785.91089268,2549786.95798149,3,0,90,8,8
37,236,465.509447269142,0,0,2549788.69919687,2549789.74629607,3,0,87,4,0
37,237,629.626774229109,0,0,2549791.31104497,2549792.35812839,3,0,62,16,0
37,238,572.947432287037,0,0,2549794.1464245,2549795.19351523,3,0,75,4,0
37,239,630.680027417839,0,0,2549796.8759132,2549797.92300278,3,0,91,4,4
37,240,718.167795334011,1,0,2549799.71128849,2549800.75837422,3,1,75,4,16
37,241,746.749221812934,0,0,2549827.94739737,2549828.99448271,4,0,93,8,4
37,242,522.91367109865,0,0,2549830.91218846,2549831.9592815,4,0,66,8,16
37,243,580.601996276528,1,0,2549833.5004935,2549834.54758115,4,1,90,4,4
37,244,591.193426866084,0,0,2549836.22998181,2549837.27707447,4,0,80,16,16
37,245,482.358803972602,1,0,2549838.99477182,2549840.0418564,4,1,97,4,16
37,246,752.368497196585,1,0,2549841.5595519,2549842.60664109,4,1,89,8,16
37,247,415.664317086339,1,0,2549844.41847217,2549845.46554366,4,1,68,0,0
37,248,643.135439604521,0,0,2549846.90094028,2549847.9479852,4,0,64,16,0
37,249,478.742480743676,0,0,2549849.68919635,2549850.73628555,4,0,67,8,4
37,250,658.406070899218,1,0,2549852.38340608,2549853.43049181,4,1,92,8,0
37,251,587.746871169657,0,0,2549855.1952387,2549856.24232366,4,0,72,4,16
37,252,557.480855844915,0,0,2549857.94826199,2549858.99534772,4,0,89,0,8
37,253,555.132978595793,1,0,2549860.73658197,2549861.78366885,4,1,93,0,16
37,254,597.526419907808,0,0,2549863.5484246,2549864.59551341,4,0,100,4,0
37,255,462.25614240393,1,0,2549866.34850629,2549867.39558432,4,1,77,16,0
37,256,424.54498168081,1,0,2549868.96034784,2549870.00742857,4,1,76,8,0
37,257,991.418090183288,0,0,2549871.61925126,2549872.66632852,4,0,81,8,16
37,258,582.776255439967,1,0,2549874.74874404,2549875.79589791,4,1,98,8,0
37,259,525.967181660235,1,0,2549877.56058937,2549878.60768241,4,1,74,16,4
37,260,658.96618925035,0,0,2549880.16065804,2549881.20775378,4,0,99,4,4
37,261,557.734929956496,0,0,2549882.96074435,2549884.00782354,4,0,63,8,8
37,262,760.771040339023,1,0,2549885.65494099,2549886.70202556,4,1,92,8,16
37,263,496.611598413438,0,0,2549888.5020803,2549889.5491695,4,0,65,4,16
37,264,614.876225125045,0,0,2549891.18451099,2549892.2316075,4,0,98,0,0
37,265,540.990668348968,0,0,2549894.03171691,2549895.07874374,4,0,62,0,4
37,266,562.670129816979,0,0,2549896.66702799,2549897.71411257,4,0,77,4,4
37,267,567.837075795978,1,0,2549899.43180337,2549900.47888448,4,1,86,16,0
37,268,581.702214665711,1,0,2549902.19659607,2549903.24368565,4,1,84,16,16
37,269,580.635487567633,0,0,2549904.93784803,2549905.98493491,4,0,81,0,8
37,270,636.276975274086,1,0,2549907.63204312,2549908.67913501,4,1,99,16,16
37,271,571.874930988997,0,0,2549910.42036041,2549911.46745268,4,0,66,4,8
37,272,570.057915057987,1,0,2549913.12631683,2549914.1734041,4,1,93,8,8
37,273,494.730294216424,1,0,2549915.77351628,2549916.82053271,4,1,96,8,8
37,274,491.791887208819,0,0,2549918.43236002,2549919.47949233,4,0,93,16,8
37,275,558.353947009891,1,0,2549921.00889873,2549922.05598908,4,1,65,4,0
37,276,572.420420590788,1,0,2549923.76192356,2549924.80900583,4,1,89,16,16
37,277,630.786276888102,0,0,2549926.5855818,2549927.63263481,4,0,81,16,8
37,278,623.858904466033,1,0,2549929.30326221,2549930.35038143,4,1,88,16,8
37,279,545.704515185207,0,0,2549932.04456883,2549933.09162607,4,0,77,4,16
37,280,483.120256569237,0,0,2549934.66812205,2549935.71521009,4,0,97,0,8
37,281,634.704409632832,1,0,2549937.35054196,2549938.39763655,4,1,90,8,16
37,282,694.849940016866,1,0,2549940.06827704,2549941.11536508,4,1,90,4,8
37,283,672.513350378722,1,0,2549942.85659586,2549943.90367466,4,1,89,8,4
37,284,581.331882160157,0,0,2549945.65666484,2549946.70376058,4,0,75,4,0
37,285,556.439151521772,1,0,2549948.36263012,2549949.409712,4,1,76,16,0
37,286,474.000531248748,1,0,2549951.1038867,2549952.15097781,4,1,67,0,4
37,287,542.783046141267,0,0,2549953.79813877,2549954.84517484,4,0,92,16,4
37,288,503.873887006193,1,0,2549956.55111124,2549957.59823739,4,1,70,4,16
37,289,405.732709448785,1,0,2549959.25710154,2549960.30420421,4,1,75,8,8
37,290,490.618526469916,0,0,2549961.79836474,2549962.84540081,4,0,89,8,4
37,291,654.979148413986,1,0,2549964.5278007,2549965.57488951,4,1,91,8,0
37,292,559.639331884682,0,0,2549967.41023555,2549968.45731319,4,0,94,0,8
37,293,484.285918530077,0,0,2549970.04560976,2549971.09269434,4,0,76,16,8
37,294,531.895580235869,0,0,2549972.69275378,2549973.73983489,4,0,81,0,4
37,295,591.425173450261,1,0,2549975.4692978,2549976.51638353,4,1,62,4,4
37,296,778.395322617143,0,0,2549978.17529387,2549979.22234573,4,0,73,4,0
37,297,668.248752597719,0,0,2549981.02239354,2549982.06948427,4,0,70,16,4
37,298,520.195077173412,1,0,2549983.91660203,2549984.96368468,4,1,78,8,0
37,299,688.319462351501,1,0,2549986.54020299,2549987.58728718,4,1,67,16,4
37,300,623.41465940699,0,0,2549989.44616703,2549990.49325353,4,0,71,0,8
37,301,643.771009985358,0,0,2549992.32864038,2549993.37574574,4,0,61,16,4
37,302,656.954768113792,0,0,2549995.0816271,2549996.12872476,4,0,81,8,8
37,303,498.07522026822,1,0,2549997.79940683,2549998.84643789,4,1,84,0,16
37,304,547.31172695756,0,0,2550000.36413339,2550001.41121566,4,0,92,16,0
37,305,548.126689624041,1,0,2550003.15244721,2550004.19953256,4,1,73,16,8
37,306,658.617414534092,1,0,2550005.83487828,2550006.88196325,4,1,82,4,8
37,307,581.273367628455,1,0,2550008.72913952,2550009.7761856,4,1,71,0,16
37,308,699.437134899199,1,0,2550011.43504051,2550012.48211969,4,1,100,0,0
37,309,723.452924285084,1,0,2550014.35276896,2550015.39986008,4,1,99,4,4
37,310,870.8202149719,0,0,2550017.2235033,2550018.27053052,4,0,68,0,16
37,311,815.775801893324,1,0,2550020.32941646,2550021.37649526,4,1,99,4,8
37,312,592.774461489171,0,0,2550023.27067835,2550024.31775753,4,0,98,0,4
37,313,632.04394467175,1,0,2550026.0001632,2550027.04725547,4,1,92,4,8
37,314,606.093726120889,0,0,2550028.85906846,2550029.90615997,4,0,68,0,16
37,315,724.878049921244,1,0,2550031.65919943,2550032.70624781,4,1,74,0,0
37,316,512.843092437834,1,0,2550034.44747359,2550035.49454546,4,1,89,16,16
37,317,577.341376803815,0,0,2550037.08284511,2550038.12993854,4,0,66,0,4
37,318,523.486877791584,0,0,2550039.89468005,2550040.94176655,4,0,66,4,0
37,319,711.792456917465,0,0,2550042.67126911,2550043.71832481,4,0,83,0,0
37,320,578.925875946879,0,0,2550045.62426614,2550046.67134764,4,0,90,8,4
37,321,524.421178270131,1,0,2550066.94251914,2550067.98960526,5,1,76,16,4
37,322,531.298120506108,1,0,2550069.55435569,2550070.60144835,5,1,61,0,0
37,323,503.99053003639,1,0,2550072.14267267,2550073.18976148,5,1,82,0,16
37,324,611.14017944783,0,0,2550074.75450999,2550075.80159379,5,0,71,8,8
37,325,433.94264858216,1,0,2550077.44874242,2550078.49589745,5,1,86,0,16
37,326,572.333034593612,0,0,2550080.01348285,2550081.06057281,5,0,89,4,8
37,327,610.110023524612,0,0,2550082.81356608,2550083.86065027,5,0,62,4,8
37,328,460.764418821782,0,0,2550085.56658282,2550086.61385872,5,0,88,16,0
37,329,582.956032361835,1,0,2550088.11960042,2550089.166695,5,1,66,8,0
37,330,543.445179238915,0,0,2550090.8020338,2550091.84912146,5,0,63,16,4
37,331,495.290027465671,1,0,2550093.54328229,2550094.59036879,5,1,65,16,8
37,332,715.99700069055,1,0,2550096.19042784,2550097.23749625,5,1,81,8,8
37,333,573.961034417152,1,0,2550098.99050491,2550100.03759103,5,1,79,16,0
37,334,477.850911207497,0,0,2550101.63771552,2550102.68477277,5,0,64,8,4
37,335,476.694488432258,0,0,2550104.23771953,2550105.28479833,5,0,85,8,0
37,336,529.095374047756,0,0,2550106.96722979,2550108.01431282,5,0,64,0,0
37,337,576.005177106708,1,0,2550109.72022575,2550110.76731302,5,1,67,8,8
37,338,671.746892854571,0,0,2550112.55559719,2550113.6026783,5,0,83,4,8
37,339,598.489206749946,0,0,2550115.44979876,2550116.49688449,5,0,95,8,0
37,340,438.444767147303,0,0,2550118.2498866,2550119.29697156,5,0,86,16,16
37,341,476.58592928201,0,0,2550120.76762484,2550121.81468939,5,0,85,4,16
37,342,790.061564650387,1,0,2550123.34414699,2550124.3912308,5,1,70,16,16
37,343,677.332291379571,0,0,2550126.35599455,2550127.40308105,5,0,70,16,8
37,344,570.224988739938,1,0,2550129.26196629,2550130.30904933,5,1,73,0,8
37,345,607.878404669464,1,0,2550131.89733782,2550132.94448629,5,1,88,8,16
37,346,545.425033196807,0,0,2550134.68564663,2550135.73273736,5,0,66,16,0
37,347,574.906883761287,1,0,2550137.36808271,2550138.41516613,5,1,99,4,0
37,348,460.212384816259,0,0,2550140.08580623,2550141.13289235,5,0,73,4,8
37,349,535.397185012698,1,0,2550142.79176343,2550143.83885031,5,1,100,0,4
37,350,765.993420500308,1,0,2550145.42713302,2550146.47423569,5,1,75,0,4
37,351,493.955752812326,1,0,2550148.28604522,2550149.33313133,5,1,76,4,4
37,352,568.60468769446,1,0,2550150.96847013,2550152.01555663,5,1,71,8,0
37,353,563.063559588045,0,0,2550153.60384011,2550154.65092623,5,0,94,4,4
37,354,696.629186160862,0,0,2550156.22743106,2550157.27434168,5,0,73,8,4
37,355,595.058819744736,0,0,2550159.01575989,2550160.06284678,5,0,94,0,16
37,356,594.540662132204,0,0,2550161.74524551,2550162.79233933,5,0,78,8,16
37,357,627.35011568293,0,0,2550164.39238568,2550165.43946987,5,0,91,0,8
37,358,532.950373366475,0,0,2550167.22776521,2550168.27485209,5,0,97,4,4
37,359,474.371248856187,0,0,2550169.89843072,2550170.94551915,5,0,75,0,4
37,360,672.4748541601,1,0,2550172.46323351,2550173.51029768,5,1,76,8,16
37,361,661.687477957457,0,0,2550175.36917022,2550176.41626057,5,0,92,16,4
37,362,490.157343447208,1,0,2550178.11042526,2550179.15752292,5,1,96,8,8
37,363,568.101158365607,0,0,2550180.80462998,2550181.85171494,5,0,72,4,4
37,364,535.767902620137,0,0,2550183.49886011,2550184.5459262,5,0,96,16,8
37,365,804.605004843324,1,0,2550186.08713011,2550187.13421546,5,1,91,16,8
37,366,637.17085449025,0,0,2550188.98133822,2550190.02840778,5,0,64,0,4
37,367,935.700380243361,1,0,2550191.71082423,2550192.75791112,5,1,69,16,16
37,368,557.675646152347,1,0,2550194.71091354,2550195.7579985,5,1,70,8,0
37,369,369.206458795816,0,0,2550197.34627813,2550198.39336771,5,0,74,0,8
37,370,377.991653047502,1,0,2550199.78171941,2550200.82876126,5,1,67,0,0
37,371,481.847960967571,1,0,2550202.39348282,2550203.44057548,5,1,74,16,8
37,372,573.066000360996,0,0,2550205.05238392,2550206.09947235,5,0,79,4,16
37,373,590.173280332237,1,0,2550207.81717008,2550208.86425774,5,1,96,8,16
37,374,505.372925195843,1,0,2550210.58195739,2550211.62903966,5,1,83,0,8
37,375,467.874262481928,0,0,2550213.26438577,2550214.31147612,5,0,96,0,4
37,376,566.645621322095,1,0,2550215.89975884,2550216.94683956,5,1,78,0,16
37,377,496.738250833005,0,0,2550218.72336664,2550219.7705105,5,0,82,0,8
37,378,614.666421897709,1,0,2550221.46462553,2550222.51171318,5,1,81,16,16
37,379,491.991297341883,0,0,2550224.18234674,2550225.22946866,5,0,67,0,0
37,380,572.528594639152,1,0,2550226.91184468,2550227.95892541,5,1,84,16,16
37,381,448.751711752266,1,0,2550229.64132299,2550230.68842412,5,1,67,16,0
37,382,435.136797837913,0,0,2550232.26493627,2550233.312022,5,0,64,4,4
37,383,486.067132558674,1,0,2550234.81793962,2550235.86504036,5,1,63,4,16
37,384,548.16326033324,1,0,2550237.418026,2550238.4651075,5,1,68,16,0
37,385,701.005850918591,1,0,2550240.12398358,2550241.17106546,5,1,84,4,0
37,386,539.628291036934,0,0,2550243.05348068,2550244.10057026,5,0,83,4,16
37,387,418.190431315452,0,0,2550245.7829713,2550246.83004626,5,0,95,4,0
37,388,541.071124840528,1,0,2550248.39481209,2550249.44190282,5,1,88,0,0
37,389,585.591475013644,1,0,2550251.07724932,2550252.12433043,5,1,62,4,8
37,390,596.492799464613,1,0,2550253.81849858,2550254.8655897,5,1,83,8,4
37,391,614.296859130263,0,0,2550256.51268944,2550257.55977402,5,0,83,8,4
37,392,670.468052383512,1,0,2550259.38336412,2550260.43044561,5,1,82,8,16
37,393,600.655382499099,0,0,2550262.19522831,2550263.24229979,5,0,94,8,8
37,394,905.314256902784,1,0,2550265.03058666,2550266.07767008,5,1,93,4,16
37,395,799.611676018685,0,0,2550268.16015721,2550269.20717057,5,0,79,8,4
37,396,557.377686258405,1,0,2550271.04252392,2550272.08960888,5,1,73,16,4
37,397,653.300333302468,0,0,2550273.84260638,2550274.88968941,5,0,92,16,4
37,398,579.262332059443,1,0,2550276.6426796,2550277.6897788,5,1,97,4,0
37,399,437.411532271653,0,0,2550279.4074696,2550280.45455764,5,0,96,0,16
37,400,687.207695096731,0,0,2550282.06637032,2550283.11346221,5,0,66,4,0
37,401,616.553499829024,0,0,2550313.64378443,2550314.69083898,6,0,72,4,0
37,402,681.415572762489,0,0,2550316.33794796,2550317.38503677,6,0,93,16,0
37,403,552.864019293338,1,0,2550319.11456474,2550320.16164316,6,1,93,4,16
37,404,501.716180704534,0,0,2550321.76164023,2550322.80871903,6,0,83,4,16
37,405,482.657533604652,1,0,2550324.37348179,2550325.42055905,6,1,93,4,8
37,406,421.159250196069,0,0,2550327.10296741,2550328.15005391,6,0,94,4,8
37,407,483.107937965542,0,0,2550329.75009679,2550330.79718368,6,0,96,4,4
37,408,537.42169495672,1,0,2550332.37370622,2550333.42079426,6,1,87,8,0
37,409,515.722985379398,1,0,2550335.15025717,2550336.19736754,6,1,75,0,16
37,410,799.882689025253,0,0,2550337.90334167,2550338.95036388,6,0,69,8,0
37,411,758.666458539665,1,0,2550340.90336938,2550341.95044895,6,1,65,0,8
37,412,538.611994124949,1,0,2550343.90344638,2550344.95053634,6,1,66,16,0
37,413,500.034671742469,1,0,2550346.58591056,2550347.63298512,6,1,67,16,16
37,414,546.985279768705,1,0,2550349.28007447,2550350.32716559,6,1,74,16,0
37,415,712.777187116444,1,0,2550352.08014962,2550353.12723881,6,1,91,4,16
37,416,663.506804034114,1,0,2550354.8684719,2550355.91555532,6,1,66,0,8
37,417,558.979123830795,1,0,2550357.69208664,2550358.73917006,6,1,98,16,8
37,418,976.645598188043,1,0,2550360.49217449,2550361.53924521,6,1,61,8,8
37,419,661.724049132317,0,0,2550363.53931411,2550364.58639599,6,0,62,16,16
37,420,1180.26145920157,0,0,2550366.28056376,2550367.32763871,6,0,74,0,16
37,421,613.988505210727,1,0,2550369.66889505,2550370.71603352,6,1,63,0,8
37,422,455.671000294387,1,0,2550372.36309554,2550373.41017665,6,1,95,0,16
37,423,590.98015865311,1,0,2550374.98669187,2550376.03377645,6,1,61,0,0
37,424,883.416907861829,0,0,2550377.70442233,2550378.75151075,6,0,97,8,8
37,425,522.168001625687,0,0,2550380.75156619,2550381.79866039,6,0,87,4,8
37,426,710.109022911638,0,0,2550383.41046999,2550384.4575588,6,0,98,8,16
37,427,674.613697454333,1,0,2550386.18702402,2550387.23410705,6,1,67,0,8
37,428,732.836732640862,1,0,2550389.10482138,2550390.15184436,6,1,97,8,8
37,429,956.302336417139,1,0,2550391.98719232,2550393.03427228,6,1,70,4,4
37,430,1643.68516393006,0,0,2550395.10492378,2550396.15201413,6,0,78,4,0
37,431,519.649972207844,1,0,2550398.86974073,2550399.9168257,6,1,73,8,0
37,432,622.170080430806,1,0,2550401.59922751,2550402.6463144,6,1,92,8,8
37,433,550.451468676329,0,0,2550404.46989141,2550405.51700293,6,0,91,0,4
37,434,482.549744192511,0,0,2550407.2229147,2550408.27001236,6,0,77,16,8
37,435,666.553769726306,1,0,2550409.82300031,2550410.87008335,6,1,95,4,8
37,436,465.19223973155,1,0,2550412.65836791,2550413.70546057,6,1,77,8,0
37,437,514.895319472998,0,0,2550415.21138204,2550416.25847277,6,0,74,4,4
37,438,665.380408521742,0,0,2550417.83499647,2550418.88208335,6,0,61,16,0
37,439,506.271808873862,1,0,2550420.635072,2550421.68216119,6,1,84,8,0
37,440,516.919828951359,0,0,2550423.37632973,2550424.42348244,6,0,94,16,8
37,441,428.910438902676,0,0,2550426.03523237,2550427.08231772,6,0,84,4,0
37,442,509.257566183805,1,0,2550428.5529452,2550429.60003555,6,1,95,0,0
37,443,734.753069002181,0,0,2550431.18831826,2550432.23541169,6,0,69,16,4
37,444,643.661681097001,1,0,2550433.97667019,2550435.02373397,6,1,72,4,16
37,445,727.826080750674,0,0,2550436.84736218,2550437.89439825,6,0,70,16,16
37,446,577.81333848834,0,0,2550439.80033458,2550440.84745842,6,0,62,0,16
37,447,757.633608300239,1,0,2550442.44746204,2550443.49454854,6,1,76,4,4
37,448,622.371030040085,0,0,2550445.29460444,2550446.3416971,6,0,72,4,8
37,449,654.681188520044,0,0,2550448.01233836,2550449.05941793,6,0,95,4,0
37,450,709.266343154013,1,0,2550450.74183053,2550451.7889151,6,1,73,16,0
37,451,855.763622093946,1,0,2550453.53019824,2550454.57723007,6,1,79,8,4
37,452,507.231901399791,0,0,2550456.60081355,2550457.64789928,6,0,96,8,4
37,453,526.968849822879,0,0,2550459.20087838,2550460.24799452,6,0,76,0,16
37,454,730.224387720227,1,0,2550461.85979103,2550462.90687946,6,1,61,16,16
37,455,542.994004674256,0,0,2550464.81281617,2550465.85990498,6,0,65,0,0
37,456,625.56235678494,1,0,2550467.58936866,2550468.6364517,6,1,94,8,16
37,457,616.69824551791,1,0,2550470.41303498,2550471.46007721,6,1,75,0,4
37,458,621.765871532261,1,0,2550473.21306701,2550474.26014658,6,1,92,16,8
37,459,726.635011844337,1,0,2550476.07197767,2550477.11906609,6,1,61,4,16
37,460,662.900105118752,0,0,2550478.98969573,2550480.03679454,6,0,86,16,4
37,461,629.691832698882,0,0,2550481.88393078,2550482.93103768,6,0,61,8,16
37,462,562.212410848588,1,0,2550484.6604467,2550485.70753512,6,1,81,4,4
37,463,568.122716620564,0,0,2550487.3546391,2550488.40172753,6,0,82,8,16
37,464,654.425959568471,0,0,2550490.08413319,2550491.13122662,6,0,69,0,8
37,465,563.855039421469,0,0,2550492.81362228,2550493.86071148,6,0,93,0,0
37,466,587.177514098585,0,0,2550495.48428702,2550496.53138084,6,0,71,0,4
37,467,644.967853557318,1,0,2550498.17848751,2550499.22556824,6,1,68,16,16
37,468,665.189082734287,1,0,2550500.94326212,2550501.99035516,6,1,99,8,8
37,469,549.703489523381,1,0,2550503.76688379,2550504.81397144,6,1,64,16,4
37,470,618.174570612609,1,0,2550506.40223914,2550507.44933526,6,1,85,16,4
37,471,481.369069311768,0,0,2550509.21410256,2550510.26118559,6,0,86,0,4
37,472,651.584947947413,0,0,2550511.87299904,2550512.9200713,6,0,75,16,4
37,473,493.957677856088,0,0,2550514.75543774,2550515.80258353,6,0,75,8,16
37,474,520.812938921154,0,0,2550517.40258137,2550518.44968789,6,0,68,4,0
37,475,642.812072299421,1,0,2550520.10854934,2550521.15568512,6,1,83,8,4
37,476,586.192783899605,0,0,2550522.97920207,2550524.0262905,6,0,61,0,4
37,477,477.629558648914,0,0,2550525.70869001,2550526.75577997,6,0,75,8,4
37,478,515.411936677992,0,0,2550528.30876715,2550529.3558575,6,0,64,0,0
37,479,435.387022327632,0,0,2550530.95589384,2550532.00302846,6,0,75,8,4
37,480,706.76024723798,1,0,2550533.62656629,2550534.67364971,6,1,92,16,8
37,481,708.46485439688,0,0,2550569.54524174,2550570.59233902,7,0,76,0,16
37,482,505.634698551148,0,0,2550572.45121695,2550573.49830576,7,0,86,16,8
37,483,618.294678628445,0,0,2550575.19247122,2550576.23955502,7,0,100,8,4
37,484,511.362532619387,1,0,2550577.9454768,2550578.99258216,7,1,87,16,0
37,485,596.949363127351,0,0,2550580.63968883,2550581.68678034,7,0,89,0,16
37,486,698.2441409491,1,0,2550583.29857993,2550584.34566951,7,1,66,8,8
37,487,468.649189453572,1,0,2550586.13401489,2550587.18104981,7,1,64,4,4
37,488,383.108553942293,1,0,2550588.81639477,2550589.86348396,7,1,65,4,16
37,489,524.780732113868,1,0,2550591.44002845,2550592.48708646,7,1,100,0,16
37,490,653.373476583511,0,0,2550594.04007518,2550595.08716476,7,0,99,4,8
37,491,616.600850597024,1,0,2550596.94603037,2550597.99313766,7,1,71,4,8
37,492,510.666138026863,1,0,2550599.6519995,2550600.69908408,7,1,71,0,4
37,493,849.351327400655,0,0,2550602.39324183,2550603.44034373,7,0,66,8,16
37,494,977.275779470801,1,0,2550605.34628352,2550606.39336463,7,1,91,16,4
37,495,784.252888988703,1,0,2550608.55814332,2550609.6052252,7,1,78,16,0
37,496,491.762245539576,1,0,2550611.59351315,2550612.640642,7,1,73,0,0
37,497,453.81856802851,1,0,2550614.25242465,2550615.29950422,7,1,72,4,16
37,498,653.10862287879,0,0,2550616.77014325,2550617.81722975,7,0,89,16,16
37,499,562.121559865773,1,0,2550619.47609544,2550620.52319541,7,1,85,4,0
37,500,506.629822775722,1,0,2550622.14676904,2550623.19384168,7,1,64,4,0
37,501,362.881164997816,0,0,2550624.81743185,2550625.86451797,7,0,75,16,0
37,502,372.87937104702,1,0,2550627.32338874,2550628.37048063,7,1,65,16,16
37,503,657.245798502117,1,0,2550629.8528679,2550630.89995632,7,1,91,4,4
37,504,618.155707605183,1,0,2550632.74706369,2550633.79416058,7,1,77,8,0
37,505,601.551956497133,0,0,2550635.42952979,2550636.47659435,7,0,85,16,4
37,506,543.718501459807,1,0,2550638.19429285,2550639.24137204,7,1,88,4,16
37,507,596.009673550725,1,0,2550640.91201176,2550641.95909941,7,1,99,4,4
37,508,515.969745349139,0,0,2550643.66503813,2550644.71211885,7,0,74,8,4
37,509,772.714068647474,1,0,2550646.35921744,2550647.40632396,7,1,68,16,8
37,510,548.87582315132,1,0,2550649.35932292,2550650.4063998,7,1,98,4,8
37,511,792.793632484972,0,0,2550652.01825521,2550653.06530937,7,0,75,8,4
37,512,619.843376334757,0,0,2550655.03011239,2550656.07720659,7,0,93,0,8
37,513,612.974517978728,1,0,2550657.7360307,2550658.7831711,7,1,62,4,16
37,514,842.490938026458,0,0,2550660.57140022,2550661.61849404,7,0,93,0,16
37,515,659.317658748478,0,0,2550663.46560718,2550664.5126879,7,0,71,8,8
37,516,635.024697054178,0,0,2550666.30097092,2550667.34809476,7,0,88,8,16
37,517,543.474436271936,0,0,2550669.13642244,2550670.18344157,7,0,96,4,4
37,518,618.61034668982,1,0,2550671.90117973,2550672.94823042,7,1,64,8,8
37,519,586.64896292612,0,0,2550674.7130135,2550675.76015082,7,0,96,8,16
37,520,622.90035141632,1,0,2550677.41902228,2550678.46603987,7,1,64,16,0
37,521,570.594551041722,1,0,2550680.20726296,2550681.25434291,7,1,80,0,0
37,522,585.184956435114,1,0,2550682.84263063,2550683.88972175,7,1,98,16,16
37,523,466.684348415583,1,0,2550685.63094175,2550686.67806405,7,1,81,0,8
37,524,943.30181973055,0,0,2550688.16043284,2550689.20752473,7,0,78,4,0
37,525,583.404896780849,0,0,2550691.1722854,2550692.21937267,7,0,94,0,4
37,526,558.795882388949,0,0,2550693.90183762,2550694.94886908,7,0,90,0,0
37,527,514.092290773988,1,0,2550696.57243192,2550697.61952804,7,1,66,0,8
37,528,564.584540203214,0,0,2550699.30192832,2550700.34902175,7,0,93,0,8
37,529,635.104383807629,0,0,2550702.12553998,2550703.17264419,7,0,94,16,8
37,530,505.868369713426,1,0,2550704.83150218,2550705.87859099,7,1,69,4,4
37,531,512.643682770431,0,0,2550707.52568727,2550708.57281303,7,0,66,16,16
37,532,577.627787366509,1,0,2550710.21989738,2550711.26698118,7,1,78,8,0
37,533,855.479905381799,0,0,2550712.9258538,2550713.97293837,7,0,70,8,0
37,534,604.443398304284,0,0,2550715.97299843,2550717.02009109,7,0,88,0,4
37,535,510.267318692058,0,0,2550718.67895216,2550719.72606137,7,0,79,0,4
37,536,508.488414343446,0,0,2550721.44374563,2550722.49083675,7,0,74,0,4
37,537,532.392564695328,0,0,2550724.13794535,2550725.18503185,7,0,65,8,8
37,538,672.173429746181,0,0,2550726.78507666,2550727.83216162,7,0,70,4,0
37,539,550.433760508895,1,0,2550729.70280434,2550730.749897,7,1,95,0,16
37,540,556.808329187334,1,0,2550732.43230267,2550733.47943382,7,1,85,8,4
37,541,551.857730839401,0,0,2550735.13826101,2550736.18534674,7,0,95,0,0
37,542,717.646558303386,0,0,2550737.92657252,2550738.97366249,7,0,70,8,16
37,543,620.709923561662,1,0,2550740.8443106,2550741.8913894,7,1,94,4,16
37,544,586.328289937228,0,0,2550743.67967935,2550744.72680858,7,0,62,16,8
37,545,920.680359005928,1,0,2550746.50329871,2550747.55039367,7,1,62,4,8
37,546,465.064817573875,1,0,2550749.57402104,2550750.62106558,7,1,62,0,0
37,547,477.520614396781,1,0,2550752.15051779,2550753.19759851,7,1,82,16,16
37,548,517.886850982904,0,0,2550754.77411759,2550755.82121217,7,0,92,8,16
37,549,510.956013575196,1,0,2550757.37419627,2550758.42128316,7,1,81,16,0
37,550,593.682199716568,0,0,2550760.06838367,2550761.11547594,7,0,89,8,0
37,551,487.755956593901,0,0,2550762.73905688,2550763.78614184,7,0,93,16,4
37,552,460.443746298552,1,0,2550765.37442109,2550766.4215149,7,1,92,8,8
37,553,608.685282990336,0,0,2550768.04509469,2550769.09217464,7,0,92,16,4
37,554,568.667436484247,1,0,2550770.75107344,2550771.79814839,7,1,68,4,8
37,555,619.627798441797,0,0,2550773.45705412,2550774.5041537,7,0,71,4,0
37,556,732.408656273037,0,0,2550776.13943245,2550777.18653165,7,0,78,16,8
37,557,454.194290097803,1,0,2550779.08070512,2550780.12779162,7,1,85,8,0
37,558,555.30082155019,0,0,2550781.5984214,2550782.64550174,7,0,77,16,4
37,559,805.795689113438,1,0,2550784.26908692,2550785.31617573,7,1,62,0,8
37,560,636.277745012194,0,0,2550787.16328964,2550788.21038114,7,0,78,8,4
37,561,670.145455282182,1,0,2550802.62256038,2550803.6696438,8,1,70,8,8
37,562,483.690768945962,1,0,2550805.51676387,2550806.56384421,8,1,84,4,8
37,563,403.752470389009,1,0,2550808.08153124,2550809.12868781,8,1,67,8,0
37,564,507.001695223153,1,0,2550810.69337857,2550811.7404643,8,1,84,16,4
37,565,536.494323983788,1,0,2550813.2699627,2550814.31703111,8,1,79,8,4
37,566,431.833447888494,1,0,2550816.04647208,2550817.09360901,8,1,74,16,0
37,567,624.791665002704,0,0,2550818.59949275,2550819.64658233,8,0,71,0,16
37,568,623.861214146018,0,0,2550821.45839763,2550822.50554726,8,0,82,16,16
37,569,748.535056132823,0,0,2550824.34083594,2550825.38791936,8,0,70,16,0
37,570,492.996815126389,0,0,2550827.17620315,2550828.22329312,8,0,85,8,8
37,571,511.759812477976,1,0,2550829.76452051,2550830.81160624,8,1,86,4,8
37,572,623.263369780034,1,0,2550832.38812416,2550833.43520874,8,1,95,0,0
37,573,758.469358086586,1,0,2550835.1529057,2550836.19999643,8,1,61,16,8
37,574,468.903263565153,0,0,2550838.09416451,2550839.14125216,8,0,80,4,4
37,575,576.387058477849,0,0,2550840.62365406,2550841.67074979,8,0,81,4,8
37,576,537.52139955759,0,0,2550843.37667234,2550844.42375961,8,0,90,0,4
37,577,546.472512185574,1,0,2550846.0826534,2550847.12971411,8,1,69,4,4
37,578,568.686684127897,1,0,2550848.70623973,2550849.75333585,8,1,91,16,4
37,579,555.072539951652,1,0,2550851.37690139,2550852.42399097,8,1,69,16,8
37,580,815.953269135207,1,0,2550854.17698732,2550855.22407151,8,1,64,4,0
37,581,496.376387309283,0,0,2550857.04765583,2550858.09473925,8,0,64,8,4
37,582,490.799842868,1,0,2550859.77720035,2550860.82424297,8,1,66,4,16
37,583,627.53297155723,1,0,2550862.47133848,2550863.51842498,8,1,89,4,16
37,584,623.747650533915,0,0,2550865.1772949,2550866.22439487,8,0,80,0,0
37,585,572.716070804745,0,0,2550867.98915986,2550869.03623635,8,0,79,16,0
37,586,617.267987690866,0,0,2550870.62450328,2550871.6715944,8,0,87,8,0
37,587,560.204454697669,0,0,2550873.31871339,2550874.36579411,8,0,73,0,16
37,588,380.708707496524,1,0,2550876.1070299,2550877.1541522,8,1,77,4,16
37,589,522.18647999689,0,0,2550878.7306324,2550879.77773276,8,0,92,8,8
37,590,566.597501281649,0,0,2550881.41306463,2550882.46015344,8,0,73,8,0
37,591,600.275810807943,1,0,2550884.20138075,2550885.2484634,8,1,90,0,4
37,592,482.067003380507,0,0,2550886.98970804,2550888.03678338,8,0,95,4,8
37,593,459.776993840933,1,0,2550889.62506609,2550890.67214913,8,1,85,16,8
37,594,531.33661672473,1,0,2550892.26043761,2550893.30752373,8,1,85,0,4
37,595,491.069700568914,0,0,2550895.01345359,2550896.06055626,8,0,99,8,16
37,596,600.683099590242,0,0,2550897.59000115,2550898.63708342,8,0,72,0,8
37,597,644.609069917351,1,0,2550900.24889571,2550901.29600685,8,1,61,4,4
37,598,493.059563916177,1,0,2550902.97838673,2550904.02547554,8,1,96,0,16
37,599,494.154392741621,0,0,2550905.73140963,2550906.77850229,8,0,82,8,16
37,600,663.330106530339,0,0,2550908.40208131,2550909.44916088,8,0,71,16,16
37,601,595.729806926101,1,0,2550911.11979059,2550912.1669048,8,1,69,16,16
37,602,502.369844354689,0,0,2550913.96694838,2550915.01402757,8,0,79,4,0
37,603,535.131176933646,1,0,2550916.66114001,2550917.70822497,8,1,61,0,4
37,604,634.258624631912,1,0,2550919.32003881,2550920.367123,8,1,80,0,8
37,605,556.032247841358,0,0,2550922.15541064,2550923.20250638,8,0,62,16,16
37,606,620.584811549634,1,0,2550924.8849082,2550925.93198931,8,1,91,8,0
37,607,402.141408529133,1,0,2550927.67321855,2550928.72031313,8,1,75,8,4
37,608,696.020991541445,0,0,2550930.2262346,2550931.27331879,8,0,90,8,16
37,609,670.009949244559,1,0,2550933.08514256,2550934.13223407,8,1,89,16,4
37,610,475.896849296987,1,0,2550935.8263976,2550936.87354646,8,1,72,0,0
37,611,589.206258300692,1,0,2550938.35588137,2550939.40296826,8,1,80,4,0
37,612,478.344816248864,1,0,2550941.1559619,2550942.20305225,8,1,93,8,4
37,613,483.82858466357,1,0,2550943.6972097,2550944.74434586,8,1,88,4,16
37,614,704.466264694929,0,0,2550946.28552475,2550947.33261087,8,0,73,0,16
37,615,382.684326730669,1,0,2550949.14443386,2550950.19151651,8,1,88,4,0
37,616,627.145701088011,1,0,2550951.7209718,2550952.76806408,8,1,61,4,4
37,617,526.910720858723,1,0,2550954.47398778,2550955.52107697,8,1,65,8,0
37,618,605.056256055832,0,0,2550957.08583588,2550958.13291275,8,0,71,8,4
37,619,428.612479474396,0,0,2550959.8153292,2550960.86241185,8,0,95,16,0
37,620,545.502410735935,0,0,2550962.36838683,2550963.41542213,8,0,71,0,16
37,621,519.285799004138,0,0,2550965.06253919,2550966.10962646,8,0,71,8,16
37,622,558.245003223419,1,0,2550967.80379307,2550968.85087534,8,1,66,0,8
37,623,457.386001478881,0,0,2550970.52151737,2550971.56860502,8,0,71,8,8
37,624,469.213926699013,0,0,2550973.12159413,2550974.16867332,8,0,67,16,0
37,625,495.747745968401,0,0,2550975.69813515,2550976.74522242,8,0,99,4,8
37,626,513.612629380077,0,0,2550978.40414162,2550979.45118423,8,0,92,16,8
37,627,435.372394043952,0,0,2550981.09829475,2550982.14538164,8,0,87,16,4
37,628,486.251529306173,1,0,2550983.6983642,2550984.74545493,8,1,95,0,4
37,629,485.69410527125,1,0,2550986.41609812,2550987.46319193,8,1,95,4,0
37,630,598.915359005332,0,0,2550989.02793043,2550990.07502848,8,0,72,16,16
37,631,484.399866778404,1,0,2550991.76919047,2550992.81627004,8,1,96,8,8
37,632,523.618534673005,0,0,2550994.47514921,2550995.5222384,8,0,82,0,0
37,633,518.006188794971,0,0,2550997.09875632,2550998.14583782,8,0,81,0,8
37,634,514.965381938964,0,0,2550999.86352746,2551000.9106259,8,0,96,16,8
37,635,650.296483188868,1,0,2551002.47537826,2551003.52246745,8,1,69,4,4
37,636,690.248886588961,1,0,2551005.18133853,2551006.2284285,8,1,95,16,4
37,637,472.688969224691,0,0,2551008.11085141,2551009.15792559,8,0,97,4,16
37,638,521.508178673685,0,0,2551010.65208766,2551011.69917262,8,0,63,0,0
37,639,516.068295110017,0,0,2551013.24039539,2551014.28748382,8,0,90,8,16
37,640,463.274364359677,0,0,2551015.95791385,2551017.00522467,8,0,93,0,8
37,641,457.631991710514,0,0,2551043.52361579,2551044.57070691,9,0,76,0,16
37,642,570.658839307725,0,0,2551046.13546196,2551047.18254885,9,0,63,8,16
37,643,401.672526262701,0,1,2551048.88848641,2551049.93557368,9,1,82,16,0
37,644,492.771998047829,1,0,2551051.50032411,2551052.54740561,9,1,83,8,0
37,645,650.748427491635,0,0,2551054.05334248,2551055.10042551,9,0,88,4,4
37,646,749.279570300132,0,0,2551056.88871123,2551057.93580235,9,0,61,4,16
37,647,484.626223798841,0,0,2551059.80643698,2551060.85351925,9,0,67,16,8
37,648,543.124506715685,1,0,2551062.44181351,2551063.48890348,9,1,63,0,0
37,649,663.207303732634,0,0,2551065.20658966,2551066.25369733,9,0,100,16,8
37,650,558.774709235877,1,0,2551067.93609261,2551068.98318219,9,1,67,0,0
37,651,632.791153620929,0,0,2551070.63036085,2551071.67737266,9,0,61,16,8
37,652,507.90596799925,0,0,2551073.34807359,2551074.39510504,9,0,96,4,0
37,653,512.487773317844,0,0,2551075.93632012,2551076.98340931,9,0,65,0,4
37,654,464.522022753954,0,0,2551078.64228001,2551079.68937344,9,0,87,16,0
37,655,471.758903935552,0,0,2551081.26588404,2551082.31299133,9,0,76,8,8
37,656,490.599278360605,0,0,2551083.96009877,2551085.00715563,9,0,75,16,4
37,657,498.603771440685,0,0,2551086.66607521,2551087.7131263,9,0,77,0,4
37,658,562.287863343954,0,0,2551089.25437448,2551090.3014348,9,0,73,0,16
37,659,597.839778289199,1,0,2551091.88972098,2551092.93688139,9,1,72,4,4
37,660,490.23164017126,0,0,2551094.56038457,2551095.60747145,9,0,64,16,4
37,661,603.353573940694,1,0,2551097.26635177,2551098.31343827,9,1,92,4,8
37,662,477.860920131207,0,0,2551100.00760218,2551101.05469446,9,0,67,8,4
37,663,438.40434635058,1,0,2551102.53709404,2551103.58417823,9,1,77,16,16
37,664,500.65792305395,0,0,2551105.20775917,2551106.2548834,9,0,62,8,8
37,665,607.743283733726,0,0,2551107.91380414,2551108.96079825,9,0,63,0,4
37,666,597.866725176573,0,0,2551110.67849867,2551111.72558325,9,0,82,0,8
37,667,532.121937256306,0,0,2551113.38445933,2551114.43153544,9,0,62,4,4
37,668,597.096418496221,1,0,2551116.0433639,2551117.09044694,9,1,70,4,0
37,669,633.841326925904,1,0,2551118.87873535,2551119.92582685,9,1,61,8,8
37,670,582.342019304633,0,0,2551121.76117674,2551122.80826054,9,0,66,8,16
37,671,533.15825201571,1,0,2551124.42007246,2551125.46716319,9,1,67,16,4
37,672,595.379492733628,0,0,2551127.13779637,2551128.18488364,9,0,73,16,8
37,673,676.985441707075,1,0,2551129.9614034,2551131.00850607,9,1,89,16,4
37,674,591.196121647954,1,0,2551132.78501737,2551133.83210772,9,1,80,0,0
37,675,601.658975705504,1,0,2551135.50274898,2551136.54982855,9,1,64,8,4
37,676,527.242172509432,0,0,2551138.34987136,2551139.39699482,9,0,74,4,16
37,677,658.65013608709,1,0,2551140.9735393,2551142.02058422,9,1,84,0,16
37,678,571.792164351791,1,0,2551143.89120731,2551144.93832076,9,1,74,4,0
37,679,647.965544834733,1,0,2551146.55012574,2551147.59720916,9,1,81,4,0
37,680,621.448278427124,1,0,2551149.37373278,2551150.42081235,9,1,68,8,4
37,681,646.931539755315,1,0,2551152.20910769,2551153.25619457,9,1,99,4,8
37,682,597.732373978943,0,0,2551155.05628242,2551156.10334967,9,0,93,16,4
37,683,515.105123165995,1,0,2551157.83279834,2551158.87989677,9,1,77,0,4
37,684,586.185084655881,1,0,2551160.47993696,2551161.52702847,9,1,75,16,0
37,685,606.500629801303,1,0,2551163.20942682,2551164.25651371,9,1,92,8,16
37,686,622.195872943848,1,0,2551165.99774718,2551167.04483176,9,1,100,16,8
37,687,471.147585660219,1,0,2551168.6919392,2551169.73902763,9,1,84,8,4
37,688,746.124430559576,0,0,2551171.39789793,2551172.44498674,9,0,90,16,16
37,689,469.634304288775,0,0,2551174.24511386,2551175.29218804,9,0,79,4,8
37,690,658.343322109431,1,0,2551176.82158905,2551177.86866053,9,1,82,4,4
37,691,414.73348159343,0,0,2551179.65696011,2551180.70405354,9,0,86,0,4
37,692,484.011826571077,1,0,2551182.17471682,2551183.22178676,9,1,99,8,8
37,693,487.11538175121,1,0,2551184.83357404,2551185.88066477,9,1,63,0,8
37,694,450.254214927554,1,0,2551187.39836258,2551188.445446,9,1,97,0,8
37,695,529.512287117541,1,0,2551189.91608272,2551190.9631569,9,1,71,0,8
37,696,515.204443130642,0,0,2551192.69262328,2551193.73971671,9,0,77,8,16
37,697,631.47497177124,1,0,2551195.31622077,2551196.3633269,9,1,70,4,4
37,698,510.134506970644,1,0,2551198.15161531,2551199.19869219,9,1,67,4,16
37,699,456.890941597521,1,0,2551200.85757096,2551201.90465862,9,1,85,0,0
37,700,613.887645769864,0,0,2551203.55179955,2551204.59890492,9,0,100,4,16
37,701,669.576867949218,0,0,2551206.35185583,2551207.39893309,9,0,91,0,16
37,702,611.216016579419,0,0,2551209.11663429,2551210.1637335,9,0,98,8,0
37,703,657.076416071504,1,0,2551211.83452874,2551212.88144432,9,1,80,0,0
37,704,749.427780508995,1,0,2551214.61090415,2551215.65799642,9,1,70,4,8
37,705,588.276577647775,0,0,2551217.44628483,2551218.49337018,9,0,84,8,0
37,706,661.71788983047,1,0,2551220.28166783,2551221.32874432,9,1,98,16,0
37,707,553.614308126271,1,0,2551223.17586131,2551224.22295474,9,1,65,8,4
37,708,557.172501925379,1,0,2551225.91716215,2551226.96422632,9,1,64,16,16
37,709,601.005696691573,0,0,2551228.56425227,2551229.61134608,9,0,71,16,0
37,710,583.749051671475,1,0,2551231.24669066,2551232.29377177,9,1,71,8,0
37,711,626.666424795985,0,0,2551234.01150145,2551235.05856678,9,0,93,16,16
37,712,584.837721660733,1,0,2551236.81155273,2551237.85863885,9,1,61,4,0
37,713,504.990273620933,0,0,2551239.48221401,2551240.52930744,9,0,76,8,8
37,714,480.433229357004,0,0,2551242.15287991,2551243.19996525,9,0,75,0,16
37,715,614.639859646559,0,0,2551244.87059419,2551245.91768339,9,0,62,0,8
37,716,530.147472396493,1,0,2551247.55303181,2551248.60012755,9,1,72,4,16
37,717,546.31775803864,1,0,2551250.176637,2551251.22372966,9,1,96,4,8
37,718,641.49473560974,0,0,2551252.77673032,2551253.8238045,9,0,80,16,16
37,719,565.317890606821,0,0,2551255.63562519,2551256.68270938,9,0,65,8,0
37,720,439.058010000736,0,0,2551258.27099132,2551259.3180859,9,0,86,8,16
