sub_id,Trial,RT,Resp,Error,Fix_onset,Disp_onset,block,tid,tloc,fish_setsize,bird_setsize
20,1,465.665838681161,1,0,1638460.64446264,1638461.69154182,1,1,77,8,4
20,2,571.897740941495,0,0,1638463.25631805,1638464.30333179,1,0,70,8,16
20,3,523.113563191146,1,0,1638465.9268854,1638466.97395457,1,1,98,4,8
20,4,495.158852776513,0,0,1638468.67986211,1638469.72692898,1,0,74,8,0
20,5,477.091865148395,0,0,1638471.2328362,1638472.27990384,1,0,85,16,16
20,6,644.654207630083,0,0,1638473.80932987,1638474.85640405,1,0,79,16,8
20,7,533.069038530812,1,0,1638476.58584078,1638477.63290726,1,1,79,0,4
20,8,688.451600959525,1,0,1638479.25644971,1638480.30352735,1,1,99,8,8
20,9,769.699151627719,0,0,1638482.02125627,1638483.06826347,1,0,66,4,16
20,10,711.923440918326,1,0,1638484.92712176,1638485.97418671,1,1,92,4,0
20,11,615.215088007972,1,0,1638487.80950503,1638488.85657613,1,1,72,8,4
20,12,601.491229841486,0,0,1638490.66835947,1638491.71543327,1,0,87,16,16
20,13,584.797397488728,1,0,1638493.49192263,1638494.53901644,1,1,98,16,0
20,14,547.143981093541,0,0,1638496.31547731,1638497.36256304,1,0,75,4,0
20,15,694.877754431218,0,0,1638499.10375494,1638500.15082219,1,0,81,16,16
20,16,476.976376725361,1,0,1638501.95085153,1638502.99793187,1,1,63,0,4
20,17,494.301544735208,1,0,1638504.52735366,1638505.57442053,1,1,61,16,8
20,18,515.810853568837,0,0,1638507.20973931,1638508.25686238,1,0,79,0,8
20,19,524.008982116356,0,0,1638509.8215366,1638510.86860154,1,0,76,4,8
20,20,675.692839780822,0,0,1638512.44509636,1638513.49215938,1,0,72,16,0
20,21,549.228929448873,0,0,1638515.23336475,1638516.2804347,1,0,81,8,0
20,22,576.185051118955,0,0,1638517.92751096,1638518.9745863,1,0,95,8,8
20,23,637.117056874558,0,0,1638520.63342427,1638521.6804996,1,0,80,0,8
20,24,594.084965763614,0,0,1638523.32758048,1638524.37465312,1,0,67,16,4
20,25,726.273630512878,0,0,1638526.13937923,1638527.18644841,1,0,62,0,8
20,26,543.044146848843,1,0,1638529.09236664,1638530.1394235,1,1,63,4,0
20,27,474.521480733529,0,0,1638531.82180222,1638532.86886986,1,0,76,0,4
20,28,624.215860385448,1,0,1638534.5041794,1638535.5512532,1,1,68,8,4
20,29,442.715236218646,0,0,1638537.37480326,1638538.4218709,1,0,63,0,16
20,30,748.169055208564,0,0,1638539.90424392,1638540.95131695,1,0,70,16,8
20,31,592.147072311491,1,0,1638542.90428588,1638543.9513539,1,1,95,4,8
20,32,577.136289561167,0,0,1638545.71607693,1638546.76314264,1,0,69,4,16
20,33,508.706399006769,0,0,1638548.3984772,1638549.44559373,1,0,72,4,4
20,34,400.633228709921,0,0,1638551.13967449,1638552.18673405,1,0,65,8,16
20,35,546.33363825269,0,0,1638553.63382694,1638554.68089727,1,0,92,0,0
20,36,337.677867850289,0,0,1638556.39856536,1638557.44563492,1,0,84,16,0
20,37,588.872209424153,0,0,1638558.91624046,1638559.96331425,1,0,78,16,4
20,38,480.868717189878,0,0,1638561.62215338,1638562.66922294,1,0,83,4,8
20,39,687.440693611279,1,0,1638564.33983264,1638565.38690374,1,1,84,4,16
20,40,524.894392350689,0,0,1638567.1163447,1638568.16341311,1,0,61,4,4
20,41,702.370634535328,0,0,1638569.84580261,1638570.89285177,1,0,91,16,16
20,42,443.063240963966,1,0,1638572.63404752,1638573.68112055,1,1,74,0,4
20,43,448.181681800634,1,0,1638575.24585096,1638576.29291013,1,1,94,8,16
20,44,610.907759750262,0,0,1638577.89294031,1638578.94001565,1,0,100,16,0
20,45,484.445389360189,0,0,1638580.7165,1638581.76357187,1,0,63,0,4
20,46,508.15744465217,1,0,1638583.39888334,1638584.44595598,1,1,75,16,8
20,47,497.690356103703,0,0,1638586.12833316,1638587.17540657,1,0,81,0,16
20,48,459.516087546945,1,0,1638588.88130371,1638589.92837597,1,1,67,0,0
20,49,1095.53742362186,1,0,1638591.52839922,1638592.57549534,1,1,77,0,16
20,50,435.277020558715,1,0,1638594.86960706,1638595.91670049,1,1,64,4,16
20,51,457.649411633611,1,0,1638597.43434864,1638598.48142128,1,1,87,4,0
20,52,602.890177862719,1,0,1638600.05796576,1638601.10498412,1,1,83,4,16
20,53,456.106872996315,1,0,1638602.71676601,1638603.76383441,1,1,67,8,0
20,54,677.632273407653,1,0,1638605.35208748,1638606.39916089,1,1,88,8,4
20,55,428.031670162454,0,0,1638608.28153954,1638609.32860063,1,0,81,16,16
20,56,588.999246479943,1,0,1638610.88157164,1638611.92864852,1,1,90,4,4
20,57,760.422747582197,0,0,1638613.70513403,1638614.75219781,1,0,90,16,4
20,58,555.056083714589,1,0,1638616.68163793,1638617.72871558,1,1,69,4,0
20,59,580.885039409623,0,0,1638619.32873075,1638620.37580146,1,0,72,8,16
20,60,411.568814888597,1,0,1638622.02288119,1638623.0699827,1,1,75,4,4
20,61,578.616464277729,1,0,1638624.57584335,1638625.62292022,1,1,91,0,8
20,62,622.063928516582,0,0,1638627.35236273,1638628.39941997,1,0,98,4,4
20,63,641.343928175047,1,0,1638630.07003198,1638631.11712579,1,1,71,8,8
20,64,484.516607131809,1,0,1638632.8818365,1638633.9289049,1,1,62,0,0
20,65,594.370221951976,1,0,1638635.51715836,1638636.56422561,1,1,81,0,0
20,66,618.980776052922,1,0,1638638.21130072,1638639.25837644,1,1,98,8,0
20,67,465.437171980739,1,0,1638640.98781086,1638642.03488042,1,1,62,0,16
20,68,2341.72804234549,1,0,1638643.65843557,1638644.7055417,1,1,72,0,8
20,69,515.458999434486,1,0,1638648.23495618,1638649.2820319,1,1,74,16,4
20,70,853.722655912861,0,0,1638650.95264083,1638651.99970423,1,0,80,0,0
20,71,698.433253681287,0,0,1638653.94090337,1638654.98797947,1,0,75,8,4
20,72,827.947594923899,1,0,1638656.87035465,1638657.91743307,1,1,64,8,8
20,73,468.924533110112,0,0,1638659.82333667,1638660.87040662,1,0,64,0,16
20,74,581.086373887956,1,0,1638662.34099676,1638663.38807979,1,1,73,8,16
20,75,510.797122027725,0,0,1638665.12928055,1638666.17635434,1,0,80,16,4
20,76,580.546658718959,0,0,1638667.71754786,1638668.76461781,1,0,61,4,8
20,77,664.179812418297,1,0,1638670.45875709,1638671.50582049,1,1,95,16,0
20,78,786.125820828602,1,0,1638673.24702086,1638674.29409581,1,1,63,16,8
20,79,1397.16242067516,1,0,1638676.15298259,1638677.20000558,1,1,71,8,0
20,80,767.110674176365,1,0,1638679.75296504,1638680.80004615,1,1,99,8,8
20,81,538.987428182736,1,0,1638693.61203776,1638694.65904919,2,1,63,0,4
20,82,462.808273732662,1,0,1638696.36500523,1638697.41201551,2,1,75,16,8
20,83,575.920197879896,1,0,1638699.02379855,1638700.0708762,2,1,79,8,4
20,84,606.362910708413,1,0,1638701.69442249,1638702.74148858,2,1,94,0,0
20,85,679.236405761912,1,0,1638704.43567098,1638705.4827005,2,1,75,8,16
20,86,550.810734042898,0,0,1638707.17684286,1638708.2239182,2,0,70,0,8
20,87,525.617734063417,0,0,1638709.81216318,1638710.85923621,2,0,93,0,8
20,88,669.385254615918,0,0,1638712.55341668,1638713.60044043,2,0,87,4,4
20,89,732.041500508785,0,0,1638715.2945874,1638716.34165504,2,0,69,4,4
20,90,483.346710912883,1,0,1638718.11822524,1638719.16521203,2,1,97,0,4
20,91,750.622026389465,1,0,1638720.72994283,1638721.77701663,2,1,90,8,8
20,92,825.64013870433,0,0,1638723.58880691,1638724.63586377,2,0,91,4,16
20,93,612.086125416681,1,0,1638726.56531274,1638727.61237191,2,1,94,16,0
20,94,507.745536509901,0,0,1638729.38886165,1638730.43594006,2,0,74,4,0
20,95,711.026481818408,1,0,1638732.05949559,1638733.10656131,2,1,96,4,0
20,96,546.383298235014,1,0,1638734.83599342,1638735.88306337,2,1,94,0,0
20,97,668.609558138996,0,0,1638737.44779032,1638738.4948618,2,0,71,4,0
20,98,923.40328451246,1,0,1638740.34193953,1638741.3890114,2,1,70,16,4
20,99,673.096663085744,1,0,1638743.48315322,1638744.53022278,2,1,100,4,4
20,100,637.922395253554,0,0,1638746.31848578,1638747.36555958,2,0,86,8,8
20,101,820.007005007938,0,0,1638749.17733407,1638750.22441056,2,0,93,16,8
20,102,632.145286072046,0,0,1638752.23620422,1638753.2832734,2,0,64,0,0
20,103,654.572726925835,0,0,1638754.96564365,1638756.01271706,2,0,99,0,4
20,104,791.257350472733,1,0,1638757.75391397,1638758.80101356,2,1,78,16,0
20,105,696.658198954538,0,0,1638760.62453667,1638761.67160662,2,0,71,8,0
20,106,636.841809842736,0,0,1638763.5422224,1638764.58934046,2,0,92,4,0
20,107,588.740937877446,1,0,1638766.23637168,1638767.28344509,2,1,92,0,4
20,108,646.733381785452,1,0,1638768.94230732,1638769.98941076,2,1,72,16,4
20,109,514.240212738514,1,0,1638771.7187909,1638772.765862,2,1,93,8,4
20,110,587.207253091037,1,0,1638774.42469766,1638775.47177031,2,1,78,0,16
20,111,513.682404533029,1,0,1638777.0953497,1638778.14239232,2,1,96,0,0
20,112,610.142072429881,1,0,1638779.67182605,1638780.71889176,2,1,99,4,16
20,113,441.446790006012,0,0,1638782.38950107,1638783.43656909,2,0,67,4,16
20,114,93.9590835478157,1,1,1638785.01306507,1638786.0601327,2,0,68,8,8
20,115,721.98016080074,0,0,1638787.31897468,1638788.36604463,2,0,61,8,0
20,116,699.95269482024,0,0,1638790.17783375,1638791.22490062,2,0,63,4,8
20,117,1062.64366419055,0,0,1638793.11907369,1638794.16617097,2,0,98,16,8
20,118,395.214518299326,0,0,1638796.34260782,1638797.38967969,2,0,78,4,4
20,119,669.520760886371,1,0,1638798.81322721,1638799.86029293,2,1,84,16,16
20,120,466.827650787309,0,0,1638801.68385454,1638802.73092526,2,0,93,0,16
20,121,454.761819681153,0,0,1638804.22508424,1638805.27212532,2,0,84,16,4
20,122,941.634650807828,1,0,1638806.91920466,1638807.96627345,2,1,80,0,16
20,123,1026.2667783536,0,0,1638810.10747405,1638811.15454207,2,0,91,0,0
20,124,493.822268443182,0,0,1638813.28399212,1638814.33105476,2,0,63,16,0
20,125,494.137166533619,1,0,1638815.96637392,1638817.01343386,2,1,67,16,8
20,126,585.309780668467,1,0,1638818.62522229,1638819.67230263,2,1,90,0,16
20,127,447.559969732538,1,0,1638821.34290424,1638822.38997765,2,1,75,16,16
20,128,505.387265700847,1,0,1638824.03705468,1638825.08412886,2,1,87,0,16
20,129,419.933631550521,0,0,1638826.70772712,1638827.75475357,2,0,64,8,8
20,130,416.357729118317,1,1,1638829.34300587,1638830.39006889,2,0,89,16,8
20,131,811.605232069269,1,0,1638831.84891386,1638832.89599575,2,1,71,8,0
20,132,608.631485840306,1,0,1638834.90777209,1638835.95484203,2,1,89,4,16
20,133,367.301768856123,0,0,1638837.64898593,1638838.69605511,2,0,75,16,4
20,134,669.948837487027,1,0,1638840.22548191,1638841.27259035,2,1,100,16,16
20,135,784.837356768548,1,0,1638843.02556552,1638844.0725912,2,1,70,8,4
20,136,2586.30567463115,1,0,1638845.89613818,1638846.94320813,2,1,100,16,16
20,137,1527.51597645693,0,0,1638850.66090586,1638851.7079735,2,0,96,8,4
20,138,641.610321355984,0,0,1638854.27269429,1638855.31976924,2,0,70,8,4
20,139,949.966745916754,1,0,1638857.1433347,1638858.19042159,2,1,80,0,4
20,140,498.048369772732,1,0,1638860.20219562,1638861.24926287,2,1,84,4,8
20,141,830.464469501749,0,0,1638862.93163582,1638863.97870538,2,0,95,4,8
20,142,546.673943754286,0,0,1638865.8493508,1638866.89640149,2,0,61,8,0
20,143,474.366726353765,1,0,1638868.5787679,1638869.62583361,2,1,73,16,0
20,144,680.873644538224,1,0,1638871.15529813,1638872.20234537,2,1,98,16,0
20,145,717.483047163114,0,0,1638873.94353534,1638874.99060568,2,0,72,8,0
20,146,580.709497211501,0,0,1638876.86123954,1638877.90829371,2,0,96,0,8
20,147,739.991714479402,1,0,1638879.6259491,1638880.67302135,2,1,73,16,16
20,148,719.378594774753,1,0,1638882.60246378,1638883.64952949,2,1,82,8,16
20,149,646.38884156011,0,0,1638885.54366908,1638886.59073864,2,0,96,8,16
20,150,459.13382107392,1,0,1638888.29664848,1638889.34372228,2,1,65,4,8
20,151,627.486488549039,0,0,1638890.9084423,1638891.95551186,2,0,68,8,8
20,152,659.755841130391,1,0,1638893.62618123,1638894.67318996,2,1,61,4,4
20,153,676.640998804942,0,0,1638896.52027808,1638897.56734071,2,0,99,4,0
20,154,1922.50632541254,1,0,1638899.41443191,1638900.46149724,2,1,82,4,16
20,155,513.16001242958,0,0,1638903.50859529,1638904.55565638,2,0,78,4,8
20,156,613.08817868121,1,0,1638906.20274034,1638907.24981144,2,1,96,8,16
20,157,474.288964178413,0,0,1638909.0263058,1638910.07336997,2,0,80,0,8
20,158,854.959920514375,0,0,1638911.70869607,1638912.75576602,2,0,73,8,16
20,159,536.196461180225,0,0,1638914.77931408,1638915.8263821,2,0,87,0,8
20,160,518.288847291842,0,0,1638917.47346028,1638918.52053293,2,0,100,16,4
20,161,1393.75205151737,1,0,1638925.36767763,1638926.41474488,3,1,75,8,16
20,162,719.602257013321,1,0,1638928.81483635,1638929.86184509,3,1,91,4,4
20,163,471.553046721965,0,0,1638931.66187019,1638932.7089409,3,0,66,16,4
20,164,612.61775624007,0,0,1638934.30896031,1638935.35602987,3,0,92,4,16
20,165,466.457703383639,0,0,1638937.15608153,1638938.20312029,3,0,66,16,16
20,166,365.736902691424,0,0,1638939.87372768,1638940.92079762,3,0,65,8,0
20,167,458.692655898631,0,0,1638942.32082211,1638943.36788667,3,0,86,16,8
20,168,675.41027860716,0,0,1638944.9090798,1638945.95615321,3,0,91,0,4
20,169,698.463665787131,1,0,1638947.82676899,1638948.87383778,3,1,78,8,16
20,170,487.931210780516,0,0,1638950.65033252,1638951.69742133,3,0,83,0,4
20,171,498.52687632665,0,0,1638953.23860908,1638954.28566439,3,0,74,4,0
20,172,498.571146978065,1,0,1638955.8856888,1638956.93275875,3,1,95,0,16
20,173,1806.93103605881,1,0,1638958.50923663,1638959.5563162,3,1,71,4,0
20,174,932.323215063661,1,0,1638962.42693698,1638963.47401424,3,1,83,4,0
20,175,839.071426773444,0,0,1638965.61521099,1638966.6622898,3,0,76,8,0
20,176,860.904487548396,0,0,1638968.52114578,1638969.5681961,3,0,98,16,0
20,177,608.454788569361,0,0,1638971.54469308,1638972.59176495,3,0,93,0,4
20,178,629.480971489102,1,0,1638974.4035968,1638975.45063672,3,1,71,0,16
20,179,569.126406684518,0,0,1638977.13300043,1638978.18006691,3,0,69,0,16
20,180,1148.50766677409,1,0,1638979.90949864,1638980.95656781,3,1,92,16,4
20,181,804.558136500418,1,0,1638983.26248705,1638984.30955315,3,1,89,8,0
20,182,497.659174492583,0,0,1638986.22727698,1638987.27429842,3,0,100,8,8
20,183,676.108982646838,0,0,1638988.95666598,1638990.00373862,3,0,70,8,4
20,184,477.917991345748,0,0,1638991.74493976,1638992.79200509,3,0,95,4,8
20,185,701.245778705925,1,0,1638994.41555985,1638995.46262017,3,1,62,0,16
20,186,520.856921793893,0,0,1638997.29794619,1638998.34503423,3,0,91,4,8
20,187,565.287961158901,0,0,1638999.92150865,1639000.96857167,3,0,81,4,4
20,188,727.145567070693,0,0,1639002.7215349,1639003.76860523,3,0,79,8,4
20,189,609.230484813452,1,0,1639005.52156924,1639006.56864304,3,1,100,0,0
20,190,488.083655480295,1,0,1639008.32160589,1639009.36867545,3,1,79,0,8
20,191,673.25796186924,0,0,1639010.87457536,1639011.92164531,3,0,68,16,4
20,192,396.820575231686,0,0,1639013.75701367,1639014.80403627,3,0,86,0,0
20,193,471.310136374086,1,0,1639016.33346115,1639017.38053302,3,1,78,16,16
20,194,426.072988891974,0,0,1639019.02760658,1639020.074685,3,0,77,8,16
20,195,420.952623011544,1,0,1639021.627641,1639022.67471403,3,1,75,4,8
20,196,395.055529428646,0,0,1639024.23944406,1639025.28650977,3,0,77,4,0
20,197,597.58811048232,1,0,1639026.72183017,1639027.76889011,3,1,63,4,16
20,198,582.86450849846,0,0,1639029.47485423,1639030.52186682,3,0,77,8,8
20,199,462.888730457053,1,0,1639032.13369836,1639033.18072866,3,1,64,16,0
20,200,1206.39963587746,1,0,1639034.81603281,1639035.86310353,3,1,62,4,16
20,201,656.005936441943,1,0,1639038.1454901,1639039.19256197,3,1,96,0,0
20,202,657.727096928284,0,0,1639040.98081034,1639042.02788337,3,0,74,16,0
20,203,659.954481059685,1,0,1639043.80437273,1639044.85145037,3,1,81,16,8
20,204,818.823635112494,0,0,1639046.59268077,1639047.63971491,3,0,79,8,16
20,205,628.921622876078,0,0,1639049.60450869,1639050.6515259,3,0,81,16,16
20,206,666.069200960919,1,0,1639052.4633362,1639053.51037419,3,1,100,0,8
20,207,645.93381783925,1,0,1639055.21627364,1639056.26334859,3,1,80,16,16
20,208,585.17658431083,1,0,1639058.12217763,1639059.16925412,3,1,82,0,0
20,209,369.765134062618,1,0,1639060.8634215,1639061.91052879,3,1,76,16,4
20,210,579.582716571167,1,0,1639063.40460617,1639064.45168035,3,1,98,16,8
20,211,487.883475609124,0,0,1639066.21641608,1639067.26348256,3,0,73,8,0
20,212,649.80998961255,0,0,1639068.9223444,1639069.96950096,3,0,65,4,8
20,213,585.19583218731,1,0,1639071.79294709,1639072.8400128,3,1,96,0,8
20,214,713.354340754449,0,0,1639074.49885847,1639075.54593727,3,0,93,16,16
20,215,623.153368011117,1,0,1639077.4047767,1639078.45184781,3,1,87,8,0
20,216,597.337501123548,1,0,1639080.26363269,1639081.31070379,3,1,63,4,4
20,217,543.881437042728,1,0,1639082.99308367,1639084.04019904,3,1,77,0,4
20,218,1517.76799513027,1,0,1639085.64017533,1639086.68724989,3,1,75,8,4
20,219,566.230730386451,0,0,1639089.31079888,1639090.35786844,3,0,66,16,0
20,220,934.430106310174,0,0,1639091.93436596,1639092.98142936,3,0,99,8,8
20,221,1693.87608580291,0,0,1639095.00499128,1639096.05207085,3,0,91,4,4
20,222,976.862813346088,1,0,1639098.91091914,1639099.95802643,3,1,96,0,8
20,223,492.75785125792,1,0,1639101.95801065,1639103.00512602,3,1,67,8,8
20,224,572.457859059796,0,0,1639104.54627681,1639105.59334598,3,0,83,16,0
20,225,421.528139617294,1,0,1639107.20513095,1639108.25219512,3,1,87,0,4
20,226,438.275096472353,1,0,1639109.74633755,1639110.79340827,3,1,73,4,4
20,227,629.50830347836,1,0,1639112.29930664,1639113.34638044,3,1,82,4,0
20,228,704.594938782975,0,0,1639115.15817033,1639116.20524143,3,0,66,16,4
20,229,550.079308450222,1,0,1639117.99350289,1639119.04058208,3,1,70,0,0
20,230,682.08742653951,0,0,1639120.68764371,1639121.73471481,3,0,71,8,4
20,231,632.615708513185,0,0,1639123.62886171,1639124.67594244,3,0,69,8,4
20,232,512.426661560312,0,0,1639126.51124382,1639127.55831607,3,0,97,16,8
20,233,1301.14314798266,1,0,1639129.20539849,1639130.25246344,3,1,90,4,16
20,234,1292.9692720063,0,0,1639132.75837644,1639133.80545216,3,0,87,0,8
20,235,778.559413272887,0,0,1639136.24079488,1639137.28783981,3,0,99,16,8
20,236,652.521654730663,1,0,1639139.0878676,1639140.13493023,3,1,80,8,16
20,237,1179.44120476022,1,0,1639141.82907452,1639142.87614908,3,1,97,4,16
20,238,440.590636571869,1,0,1639145.08793574,1639146.13500954,3,1,65,0,16
20,239,1399.49528407305,1,0,1639147.68796361,1639148.73503972,3,1,72,4,8
20,240,932.929143542424,0,0,1639151.32330819,1639152.3703789,3,0,61,8,8
20,241,617.565659573302,1,0,1639159.60575404,1639160.65282284,4,1,62,8,16
20,242,453.514545923099,1,0,1639162.46461388,1639163.51168768,4,1,84,0,0
20,243,684.551946585998,0,0,1639165.01759259,1639166.06465831,4,0,90,4,8
20,244,581.645337399095,0,0,1639167.92350621,1639168.97057231,4,0,89,4,4
20,245,642.064575338736,1,0,1639170.59412245,1639171.64119008,4,1,83,8,0
20,246,732.933840015903,1,0,1639173.44121326,1639174.48829668,4,1,69,8,8
20,247,624.332503415644,0,0,1639176.41772179,1639177.46479019,4,0,96,4,8
20,248,671.698869904503,0,0,1639179.18246098,1639180.229529,4,0,80,8,8
20,249,392.697258619592,0,0,1639182.08837999,1639183.13544493,4,0,84,0,16
20,250,578.679213067517,1,0,1639184.68840632,1639185.73547588,4,1,82,16,4
20,251,605.597993126139,0,0,1639187.39432232,1639188.44139496,4,0,67,0,4
20,252,1093.09022664092,1,0,1639190.0649401,1639191.11201158,4,1,99,8,4
20,253,387.323203496635,0,0,1639193.28850733,1639194.3355792,4,0,95,0,8
20,254,612.600818043575,0,0,1639195.75926608,1639196.80621053,4,0,72,0,4
20,255,701.336629455909,0,0,1639198.59446044,1639199.64152808,4,0,90,4,0
20,256,673.58864331618,1,0,1639201.35925854,1639202.40627767,4,1,81,8,4
20,257,602.063281694427,0,0,1639204.2298158,1639205.27688343,4,0,79,0,4
20,258,453.779784031212,0,0,1639207.02984629,1639208.07692278,4,0,96,16,16
20,259,475.204786518589,0,0,1639209.59459056,1639210.64165242,4,0,78,4,4
20,260,542.396642500535,0,0,1639212.20638207,1639213.25345086,4,0,76,16,0
20,261,414.715100778267,0,0,1639214.97111895,1639216.01819198,4,0,76,16,16
20,262,731.721597956494,1,0,1639217.58292162,1639218.6299858,4,1,62,0,8
20,263,567.467225249857,0,0,1639220.46530335,1639221.51237252,4,0,76,16,16
20,264,1391.02383307181,1,0,1639223.15945417,1639224.20652489,4,1,86,8,8
20,265,531.434494070709,1,0,1639226.77125723,1639227.81832872,4,1,96,0,16
20,266,670.65254598856,0,0,1639229.54776776,1639230.59483309,4,0,82,16,4
20,267,638.991431798786,1,0,1639232.35956496,1639233.40662837,4,1,62,8,0
20,268,712.390013504773,1,0,1639235.07724383,1639236.12430955,4,1,80,4,16
20,269,513.232385041192,0,0,1639237.98315591,1639239.03022971,4,0,78,0,4
20,270,703.30724446103,0,0,1639240.64200774,1639241.68906922,4,0,71,8,8
20,271,955.648769624531,0,0,1639243.50087374,1639244.54794138,4,0,99,0,4
20,272,689.174557570368,1,0,1639246.58325462,1639247.63032918,4,1,100,4,16
20,273,456.37673093006,1,0,1639249.39504489,1639250.44214063,4,1,67,4,0
20,274,462.218128377572,1,1,1639252.04214733,1639253.08921728,4,0,72,8,4
20,275,455.332331592217,0,0,1639254.75983621,1639255.80689499,4,0,69,0,0
20,276,726.791017921641,0,0,1639257.3833875,1639258.43046823,4,0,77,0,8
20,277,542.062111431733,0,0,1639260.24224542,1639261.28931382,4,0,62,4,16
20,278,805.055506294593,1,0,1639262.8540504,1639263.90113074,4,1,64,16,0
20,279,885.446903761476,1,0,1639265.86584522,1639266.91290977,4,1,69,4,4
20,280,679.466997040436,0,0,1639268.98352239,1639270.03060004,4,0,94,16,0
20,281,539.44822633639,1,0,1639271.78355481,1639272.83063284,4,1,63,0,16
20,282,610.062770545483,0,0,1639274.46594046,1639275.51301194,4,0,62,8,16
20,283,594.168117502704,0,0,1639277.17186185,1639278.21892448,4,0,78,16,0
20,284,758.750092238188,1,0,1639279.94841934,1639280.99542808,4,1,71,4,0
20,285,477.211202960461,1,0,1639282.77192206,1639283.81899662,4,1,82,4,0
20,286,717.597380513325,0,0,1639285.44254137,1639286.48961094,4,0,76,8,16
20,287,469.231732189655,1,0,1639288.33669443,1639289.38376862,4,1,82,16,0
20,288,797.619215445593,0,0,1639290.9132547,1639291.96026498,4,0,99,0,0
20,289,474.827524740249,1,0,1639293.7721103,1639294.81912828,4,1,86,0,0
20,290,731.275813421234,1,0,1639296.44267457,1639297.48974452,4,1,91,16,4
20,291,722.835544031113,0,0,1639299.43094866,1639300.47806134,4,0,66,8,0
20,292,493.968938477337,1,0,1639302.23098146,1639303.27804871,4,1,99,4,4
20,293,481.194778811187,1,0,1639304.79571534,1639305.84278721,4,1,84,4,0
20,294,538.509306730703,0,0,1639307.52515977,1639308.57222972,4,0,69,0,0
20,295,770.716218510643,0,0,1639310.28990243,1639311.33697122,4,0,68,16,8
20,296,731.846325332299,0,0,1639313.14875457,1639314.19582567,4,0,82,8,0
20,297,601.910837227479,1,0,1639316.05467165,1639317.10174275,4,1,87,8,16
20,298,920.081841526553,1,0,1639318.7605915,1639319.80765567,4,1,91,16,16
20,299,934.737690258771,1,0,1639321.85474025,1639322.90182521,4,1,79,16,4
20,300,604.135141475126,0,0,1639324.97242127,1639326.01949122,4,0,93,4,8
20,301,885.190134868026,0,0,1639327.77247563,1639328.81954943,4,0,62,4,16
20,302,576.235095970333,0,0,1639330.73719126,1639331.78427238,4,0,70,4,8
20,303,723.130809376016,1,0,1639333.43134787,1639334.47841974,4,1,62,8,4
20,304,1030.07827675901,1,0,1639336.23138644,1639337.27845715,4,1,66,0,16
20,305,1163.23858289979,1,0,1639339.44318695,1639340.49026075,4,1,80,4,8
20,306,1244.89650200121,1,0,1639342.83146474,1639343.87853199,4,1,70,16,4
20,307,648.672814946622,1,0,1639346.21973752,1639347.26680593,4,1,99,16,8
20,308,692.74391583167,0,0,1639348.96094905,1639350.00801323,4,0,64,16,16
20,309,1159.75584113039,1,0,1639351.77274318,1639352.81981852,4,1,81,8,4
20,310,507.653915788978,0,0,1639355.03166446,1639356.07869668,4,0,95,4,4
20,311,918.838802492246,1,0,1639357.78457649,1639358.83164952,4,1,61,8,8
20,312,610.437337541953,1,0,1639360.83167377,1639361.87874795,4,1,99,4,16
20,313,595.013106707484,1,0,1639363.60818199,1639364.65524809,4,1,67,8,16
20,314,466.378016630188,0,0,1639366.27879554,1639367.32586818,4,0,61,16,8
20,315,1718.84003421292,1,0,1639368.96118272,1639370.00825267,4,1,88,16,8
20,316,923.887565499172,1,0,1639372.85535465,1639373.90245,4,1,86,0,16
20,317,793.569040950388,1,0,1639375.99656372,1639377.0436302,4,1,88,16,8
20,318,496.742582414299,0,0,1639378.96130052,1639380.00839588,4,0,73,8,0
20,319,1886.91745465621,0,0,1639381.52603979,1639382.57311436,4,0,70,0,8
20,320,1416.43895604648,1,0,1639385.60844146,1639386.6555114,4,1,92,0,8
20,321,834.944260306656,0,0,1639405.65573507,1639406.70280424,5,0,61,4,0
20,322,754.638324026018,0,0,1639408.73812787,1639409.78519782,5,0,67,8,4
20,323,726.688618538901,1,0,1639411.64409654,1639412.69111298,5,1,80,4,8
20,324,989.208896178752,1,0,1639414.62055849,1639415.66761842,5,1,89,4,0
20,325,441.140360897407,0,0,1639417.72646548,1639418.77354274,5,0,66,8,16
20,326,619.553213007748,0,0,1639420.35003025,1639421.39710174,5,0,90,4,0
20,327,519.534965977073,1,0,1639423.09123832,1639424.13830981,5,1,64,16,0
20,328,983.161544660106,1,0,1639425.72656711,1639426.77363706,5,1,91,8,4
20,329,466.658268356696,1,0,1639428.91484613,1639429.96191146,5,1,94,4,16
20,330,1053.78725240007,1,0,1639431.46781445,1639432.51487785,5,1,86,0,4
20,331,694.625219795853,0,1,1639434.62079562,1639435.66785595,5,1,70,8,0
20,332,494.862433057278,1,0,1639437.38552173,1639438.4325936,5,1,75,8,8
20,333,491.131776245311,1,0,1639440.09144004,1639441.13850999,5,1,73,16,8
20,334,620.518695330247,1,0,1639442.82088794,1639443.86795365,5,1,71,0,0
20,335,617.694236570969,0,0,1639445.58562059,1639446.63269207,5,0,91,4,8
20,336,988.136395113543,0,0,1639448.45624945,1639449.5033117,5,0,94,8,16
20,337,825.871885288507,0,0,1639451.69158455,1639452.7386468,5,0,95,8,0
20,338,598.061612574384,0,0,1639454.71513493,1639455.76221142,5,0,91,16,8
20,339,775.106313405558,1,0,1639457.40929153,1639458.45636186,5,1,72,0,4
20,340,609.403717331588,1,0,1639460.38580005,1639461.43286423,5,1,92,0,4
20,341,468.345552217215,1,0,1639463.13877407,1639464.18583516,5,1,85,0,0
20,342,886.313835857436,0,0,1639465.69175971,1639466.73881618,5,0,70,16,0
20,343,619.749928126112,1,0,1639468.80942842,1639469.85649375,5,1,84,8,4
20,344,547.997439512983,1,0,1639471.66834754,1639472.71536706,5,1,76,4,8
20,345,579.984230920672,1,0,1639474.37420349,1639475.42127459,5,1,66,16,8
20,346,572.628011694178,0,0,1639477.05657798,1639478.10366948,5,0,73,16,4
20,347,958.331947447732,0,0,1639479.75073458,1639480.79780953,5,0,68,16,4
20,348,1210.30391007662,1,0,1639482.90370921,1639483.95078493,5,1,95,4,16
20,349,477.98304958269,1,0,1639486.24493321,1639487.29199623,5,1,66,16,16
20,350,523.408442968503,0,0,1639488.82142688,1639489.86849914,5,0,62,0,4
20,351,972.892326069996,0,0,1639491.57439974,1639492.63323679,5,0,65,0,16
20,352,998.718971852213,0,0,1639494.68031559,1639495.72738669,5,0,92,8,8
20,353,643.667937722057,1,0,1639497.89212843,1639498.93921685,5,1,78,16,0
20,354,2848.33435737528,0,0,1639500.62157055,1639501.66863472,5,0,99,8,8
20,355,655.720295384526,1,0,1639505.5981426,1639506.64516712,5,1,62,0,16
20,356,1220.74674605392,1,0,1639508.40989245,1639509.45698742,5,1,100,4,0
20,357,2230.21062626503,1,0,1639511.8334496,1639512.88053802,5,1,65,16,8
20,358,613.60518145375,0,0,1639516.16292575,1639517.21003265,5,0,91,8,8
20,359,1327.98917056061,1,0,1639519.03355385,1639520.08062264,5,1,83,0,4
20,360,1309.10414084792,1,0,1639522.43359065,1639523.48066098,5,1,80,4,4
20,361,586.896204855293,0,0,1639525.9865709,1639527.03364354,5,0,94,16,0
20,362,1060.71039033122,0,0,1639528.82188768,1639529.86896148,5,0,99,8,0
20,363,892.066692467779,0,0,1639532.1395848,1639533.18669363,5,0,87,0,16
20,364,475.06235097535,0,0,1639535.09256644,1639536.13963061,5,0,75,4,4
20,365,739.101299783215,0,0,1639537.75141365,1639538.79849938,5,0,78,0,8
20,366,1002.47965543531,0,0,1639540.66909437,1639541.71617201,5,0,73,0,8
20,367,898.631046758965,0,0,1639543.88089912,1639544.92797407,5,0,69,0,0
20,368,1123.66767576896,1,0,1639546.99861825,1639548.04565086,5,1,99,16,16
20,369,1437.65684915707,1,0,1639550.24570583,1639551.29274922,5,1,97,16,16
20,370,1061.24818092212,1,0,1639553.77512262,1639554.82221528,5,1,95,4,0
20,371,864.013047190383,1,0,1639556.91634786,1639557.96342705,5,1,87,4,4
20,372,1091.48609428667,1,0,1639559.89285947,1639560.93992711,5,1,93,8,16
20,373,399.095309665427,1,0,1639563.17524527,1639564.22231676,5,1,68,0,16
20,374,652.741852449253,0,0,1639565.71645919,1639566.76355763,5,0,82,0,8
20,375,875.854831654578,0,0,1639568.51652625,1639569.56355578,5,0,91,8,8
20,376,726.598537527025,0,0,1639571.51652625,1639572.56359119,5,0,95,8,4
20,377,588.147328002378,0,0,1639574.44596522,1639575.49304325,5,0,71,4,16
20,378,701.047908747569,0,0,1639577.19893923,1639578.24601226,5,0,98,4,16
20,379,1100.17427825369,1,0,1639580.04603697,1639581.09310384,5,1,72,8,4
20,380,855.533127207309,1,0,1639583.32842393,1639584.37550042,5,1,91,8,0
20,381,716.845166869462,0,0,1639586.34023492,1639587.38733836,5,0,89,16,8
20,382,1459.02603212744,0,0,1639589.15202789,1639590.19908667,5,0,71,4,4
20,383,938.585760071874,0,0,1639592.834417,1639593.88148888,5,0,63,16,0
20,384,1726.50383738801,1,0,1639595.89328062,1639596.94034902,5,1,83,0,0
20,385,2163.06342557073,1,0,1639599.76391833,1639600.81098674,5,1,91,4,8
20,386,498.713582288474,1,0,1639604.15219881,1639605.19927107,5,1,100,0,16
20,387,897.088123252615,0,0,1639606.88164325,1639607.92871281,5,0,98,16,16
20,388,942.68174469471,1,0,1639609.91698574,1639610.96405492,5,1,78,4,16
20,389,745.710694463924,1,0,1639613.01113218,1639614.05820367,5,1,92,4,4
20,390,909.30447448045,0,0,1639615.95233825,1639616.99940665,5,0,62,16,4
20,391,534.364046994597,0,0,1639619.01119839,1639620.05827065,5,0,97,0,0
20,392,518.771973438561,0,0,1639621.63476547,1639622.68185698,5,0,71,16,16
20,393,672.258988255635,1,0,1639624.25832331,1639625.30538748,5,1,89,16,4
20,394,872.352841543034,0,0,1639627.07011282,1639628.11718238,5,0,90,8,16
20,395,701.780489413068,0,0,1639630.03486926,1639631.08192381,5,0,88,16,4
20,396,565.292195649818,0,0,1639632.85842048,1639633.90549196,5,0,80,0,8
20,397,610.73491233401,0,0,1639635.54082152,1639636.58787569,5,0,65,4,8
20,398,467.81700081192,1,0,1639638.39970561,1639639.44674168,5,1,83,8,16
20,399,1104.06430880539,0,0,1639641.05851702,1639642.1055862,5,0,72,0,8
20,400,2500,-1,-1,1639644.27032755,1639645.31739018,5,1,87,8,0
20,401,583.05082982406,0,0,1639654.48220621,1639655.52927654,6,0,71,8,4
20,402,539.359300630167,1,0,1639657.14105342,1639658.18813145,6,1,63,4,16
20,403,546.069940086454,1,0,1639659.88226688,1639660.92933952,6,1,75,0,0
20,404,853.13790012151,1,0,1639662.49406801,1639663.54123998,6,1,91,16,16
20,405,895.960572408512,0,0,1639665.52943669,1639666.57647199,6,0,78,8,16
20,406,608.312353026122,0,0,1639668.55296358,1639669.60002852,6,0,61,4,4
20,407,524.988322751597,0,0,1639671.40005516,1639672.44711933,6,0,83,4,0
20,408,721.090901177377,1,0,1639674.15302994,1639675.20009489,6,1,74,4,4
20,409,616.229460109025,1,0,1639677.05893779,1639678.10601466,6,1,85,8,4
20,410,521.279224194586,1,0,1639679.82367505,1639680.87074885,6,1,64,16,4
20,411,554.367003496736,1,0,1639682.52958913,1639683.57666254,6,1,63,4,8
20,412,591.598503058776,1,0,1639685.23550745,1639686.28258278,6,1,77,4,16
20,413,891.309089260176,1,0,1639688.02377584,1639689.07084424,6,1,100,4,16
20,414,580.252548446879,0,0,1639691.12970054,1639692.17676394,6,0,67,8,0
20,415,537.666242336854,0,0,1639693.90620106,1639694.95326793,6,0,82,0,8
20,416,713.211135240272,1,0,1639696.52975813,1639697.57682654,6,1,64,8,8
20,417,595.431944355369,1,0,1639699.40038507,1639700.44745155,6,1,99,8,4
20,418,741.734432522208,0,0,1639702.16513042,1639703.21218921,6,0,79,8,4
20,419,759.217434795573,0,0,1639705.09456284,1639706.14163741,6,0,98,16,16
20,420,1480.76323769055,0,0,1639707.91814871,1639708.96519671,6,0,97,16,8
20,421,1140.55899297819,1,0,1639711.61229107,1639712.65936217,6,1,80,16,8
20,422,522.802899591625,0,0,1639714.98880059,1639716.03587593,6,0,62,16,16
20,423,450.997286243364,0,0,1639717.58883616,1639718.63591958,6,0,87,0,0
20,424,2346.91038681194,1,0,1639720.20062998,1639721.24769608,6,1,70,8,0
20,425,1404.42124451511,1,0,1639724.77714867,1639725.82421823,6,1,86,16,8
20,426,679.504338419065,0,0,1639728.3772085,1639729.4242796,6,0,81,0,8
20,427,593.812028644606,1,0,1639731.20080398,1639732.24782851,6,1,84,4,0
20,428,665.58145545423,0,0,1639733.94195084,1639734.98903619,6,0,77,16,4
20,429,392.933624563739,1,0,1639736.71846984,1639737.76553748,6,1,65,8,8
20,430,758.343958295882,1,0,1639739.23614879,1639740.28320988,6,1,63,16,4
20,431,866.308569675311,0,0,1639742.08323729,1639743.13031609,6,0,69,16,16
20,432,984.402273781598,0,0,1639745.20092332,1639746.24799481,6,0,81,8,16
20,433,1207.21305860206,1,0,1639748.29507977,1639749.34214202,6,1,63,0,8
20,434,684.769834624603,1,0,1639751.56571656,1639752.61276996,6,1,89,8,4
20,435,580.050829099491,0,0,1639754.34219822,1639755.3892751,6,0,83,4,16
20,436,484.856912633404,1,0,1639757.02459426,1639758.07164689,6,1,86,4,0
20,437,435.677764937282,1,0,1639759.62461906,1639760.67168554,6,1,66,0,4
20,438,515.673037618399,1,0,1639762.28349244,1639763.33059704,6,1,66,16,0
20,439,620.080994674936,0,0,1639765.00115476,1639766.04822702,6,0,70,4,4
20,440,521.635313052684,1,0,1639767.68354157,1639768.73061267,6,1,85,8,16
20,441,1620.90404098853,0,0,1639770.34240687,1639771.38946796,6,0,93,16,16
20,442,508.315278682858,1,0,1639774.16596887,1639775.21303727,6,1,97,4,4
20,443,529.265239136294,1,0,1639776.91896521,1639777.96601398,6,1,87,16,4
20,444,803.270442178473,0,0,1639779.67191382,1639780.71898569,6,0,64,16,4
20,445,623.454022454098,0,0,1639782.54254191,1639783.58960763,6,0,64,0,16
20,446,1059.16515691206,0,0,1639785.28375037,1639786.33081608,6,0,70,8,8
20,447,1620.30427181162,1,0,1639788.43672808,1639789.48379379,6,1,86,0,16
20,448,991.596424020827,1,0,1639792.10735163,1639793.15442312,6,1,80,4,8
20,449,696.402199799195,1,0,1639795.15445084,1639796.20152155,6,1,87,4,0
20,450,855.931177036837,0,0,1639797.97801899,1639799.02512743,6,0,84,0,16
20,451,1564.32324904017,1,0,1639800.95451944,1639802.00158476,6,1,61,8,8
20,452,685.011205030605,0,0,1639804.74279553,1639805.78987086,6,0,90,16,0
20,453,460.384174250066,0,0,1639807.55459812,1639808.6016673,6,0,95,16,0
20,454,513.862180989236,0,0,1639810.14285928,1639811.1899323,6,0,100,16,8
20,455,720.275938743725,0,0,1639812.70761895,1639813.75467003,6,0,72,0,0
20,456,525.416014483199,0,0,1639815.57822318,1639816.62529043,6,0,96,0,8
20,457,883.68416740559,1,0,1639818.19005934,1639819.23708078,6,1,81,0,16
20,458,543.209679890424,1,0,1639821.26063539,1639822.30770418,6,1,86,8,8
20,459,581.859375583008,0,0,1639824.04890609,1639825.09598912,6,0,90,0,16
20,460,875.289323972538,0,0,1639826.825412,1639827.87247963,6,0,61,4,16
20,461,677.730053197593,1,0,1639829.95486205,1639831.00193431,6,1,73,16,0
20,462,675.11424375698,0,0,1639832.71960278,1639833.76666503,6,0,95,0,4
20,463,593.446700600907,0,0,1639835.5902124,1639836.63729505,6,0,71,4,8
20,464,767.970292130485,0,0,1639838.31972382,1639839.36673332,6,0,84,8,0
20,465,543.242016574368,1,0,1639841.14322614,1639842.19030186,6,1,69,0,0
20,466,455.567157827318,1,0,1639843.81384546,1639844.86091695,6,1,85,4,8
20,467,384.77399200201,0,0,1639846.37864594,1639847.42566315,6,0,75,16,0
20,468,684.015310835093,0,0,1639848.99038009,1639850.03745427,6,0,71,4,0
20,469,508.057354949415,0,0,1639851.79041327,1639852.83748437,6,0,96,8,16
20,470,977.604248095304,1,0,1639854.37870214,1639855.42574437,6,1,68,16,8
20,471,638.934457674623,0,0,1639857.54342463,1639858.59054424,6,0,80,0,4
20,472,637.162482365966,1,0,1639860.35520682,1639861.40228755,6,1,92,0,8
20,473,731.220763642341,1,0,1639863.06112937,1639864.10820009,6,1,65,0,4
20,474,477.09879418835,1,0,1639865.95528551,1639867.0023516,6,1,71,4,8
20,475,812.003666767851,0,0,1639868.66119997,1639869.70826722,6,0,64,0,0
20,476,611.036721849814,0,0,1639871.56711089,1639872.61418084,6,0,79,0,4
20,477,730.6067510508,0,0,1639874.24948345,1639875.29657419,6,0,95,8,0
20,478,1065.89696928859,0,0,1639877.16717803,1639878.21424836,6,0,70,8,16
20,479,519.757473375648,1,0,1639880.41432951,1639881.46135095,6,1,65,4,4
20,480,550.53125275299,1,0,1639883.15548715,1639884.20255941,6,1,83,8,0
20,481,527.227640850469,0,0,1639894.0497299,1639895.09680486,7,0,79,8,16
20,482,731.48099752143,1,0,1639896.81446948,1639897.86154212,7,1,68,4,8
20,483,428.961736150086,0,0,1639899.69684466,1639900.74393078,7,0,68,16,4
20,484,920.922211138532,1,0,1639902.28512198,1639903.33218154,7,1,91,0,8
20,485,744.523859815672,0,0,1639905.42633683,1639906.47340677,7,0,82,0,4
20,486,427.758733043447,1,0,1639908.28518242,1639909.332267,7,1,73,0,0
20,487,486.174633959308,0,0,1639910.81463386,1639911.86170188,7,0,92,0,4
20,488,469.731796300039,0,0,1639913.49702221,1639914.54411101,7,0,68,4,8
20,489,799.750744132325,0,0,1639916.20297786,1639917.25000892,7,0,82,8,16
20,490,379.86727966927,0,0,1639919.0617942,1639920.10886222,7,0,92,0,0
20,491,512.383931083605,0,0,1639921.57949355,1639922.62654309,7,0,73,0,4
20,492,514.6170896478,1,0,1639924.34420772,1639925.39127266,7,1,95,16,8
20,493,464.826238807291,0,1,1639927.01486938,1639928.06190122,7,1,81,4,4
20,494,612.167736981064,0,0,1639929.68544173,1639930.7325163,7,0,97,16,16
20,495,660.088062286377,1,0,1639932.48548108,1639933.53254371,7,1,61,4,16
20,496,570.213151630014,1,0,1639935.29728329,1639936.34434322,7,1,71,8,0
20,497,879.326409427449,0,0,1639938.09730915,1639939.14437294,7,0,77,4,16
20,498,632.612628862262,1,0,1639941.02675967,1639942.0738327,7,1,70,0,16
20,499,683.480985229835,0,0,1639943.86207568,1639944.90915487,7,0,88,4,0
20,500,562.562822364271,0,0,1639946.72093706,1639947.76800854,7,0,61,4,0
20,501,751.779989106581,0,0,1639949.48568241,1639950.53276198,7,0,94,4,4
20,502,603.526518214494,0,0,1639952.42689079,1639953.47395573,7,0,67,4,4
20,503,861.713675549254,0,0,1639955.13280602,1639956.17987327,7,0,97,16,16
20,504,995.251243468374,0,0,1639958.12107549,1639959.16813543,7,0,72,8,0
20,505,743.661932181567,1,0,1639961.1916985,1639962.23876306,7,1,74,16,8
20,506,547.867322573438,1,0,1639964.00349763,1639965.05057297,7,1,66,8,4
20,507,1170.39500712417,0,0,1639966.63882181,1639967.68589137,7,0,80,0,0
20,508,1845.53222637624,0,0,1639970.05063687,1639971.09769412,7,0,86,8,8
20,509,730.540537741035,0,0,1639973.95654664,1639975.00362044,7,0,86,4,8
20,510,1340.4157103505,0,0,1639976.75658598,1639977.80367787,7,0,79,16,0
20,511,554.594900459051,1,0,1639980.16845341,1639981.21546214,7,1,65,8,0
20,512,573.468766408041,1,0,1639982.86254148,1639983.90961104,7,1,78,16,16
20,513,1405.675832415,1,0,1639985.52139331,1639986.56845864,7,1,67,16,16
20,514,537.826770916581,1,0,1639989.08614298,1639990.13323371,7,1,87,0,16
20,515,486.184642883018,0,0,1639991.74499019,1639992.79206629,7,0,68,0,8
20,516,530.43244080618,1,0,1639994.36855534,1639995.41562683,7,1,75,4,0
20,517,764.606118202209,0,0,1639997.02741449,1639998.07448251,7,0,83,8,4
20,518,489.60425122641,1,0,1639999.88626663,1640000.93333503,7,1,91,0,16
20,519,870.312163606286,1,0,1640002.61570913,1640003.66276984,7,1,69,16,4
20,520,508.470417931676,1,0,1640005.62751127,1640006.67458699,7,1,68,16,8
20,521,1011.80033036508,0,0,1640008.20406768,1640009.25108297,7,0,99,16,0
20,522,734.198821941391,1,0,1640011.42758795,1640012.47465135,7,1,72,4,8
20,523,895.013568690047,0,0,1640014.41585704,1640015.46297895,7,0,91,0,4
20,524,605.020936811343,0,0,1640017.3806716,1640018.42765917,7,0,64,8,4
20,525,610.642136540264,1,0,1640020.20415738,1640021.25122463,7,1,66,16,4
20,526,1264.89406917244,0,0,1640023.01595497,1640024.06302145,7,0,78,4,4
20,527,696.775611955673,1,0,1640026.36893838,1640027.41600679,7,1,65,8,8
20,528,1485.64338777214,0,0,1640029.26308412,1640030.31015022,7,0,61,4,8
20,529,541.299503762275,0,0,1640032.86311661,1640033.91022698,7,0,65,16,0
20,530,568.517398554832,1,0,1640035.56904725,1640036.61611411,7,1,90,4,0
20,531,589.695640839636,1,0,1640038.28674151,1640039.33379991,7,1,81,4,4
20,532,523.137045558542,1,0,1640041.09852255,1640042.14558672,7,1,76,0,16
20,533,761.162642389536,1,0,1640043.81619565,1640044.86326444,7,1,91,16,4
20,534,476.109444629401,0,0,1640046.663288,1640047.7103591,7,0,73,8,4
20,535,763.409274630249,1,0,1640049.3339104,1640050.38097303,7,1,63,4,16
20,536,548.886314500123,1,0,1640052.20453002,1640053.25161229,7,1,77,16,8
20,537,450.917214388028,1,0,1640054.86338686,1640055.91046181,7,1,94,0,8
20,538,672.705158125609,0,0,1640057.55758157,1640058.60461302,7,0,93,8,4
20,539,404.33116373606,0,0,1640060.38110084,1640061.42816231,7,0,82,0,8
20,540,689.603789243847,0,0,1640062.94583972,1640063.99290428,7,0,70,8,16
20,541,601.900828070939,0,0,1640065.87527946,1640066.92234863,7,0,63,16,4
20,542,768.231680616736,0,0,1640068.53413129,1640069.58120701,7,0,84,8,8
20,543,455.845484510064,0,0,1640071.52248699,1640072.56948341,7,0,91,4,16
20,544,720.78062244691,1,0,1640074.21656005,1640075.26362961,7,1,88,8,0
20,545,848.215019563213,1,0,1640077.00483383,1640078.0518957,7,1,86,4,16
20,546,467.677259817719,1,0,1640079.96956294,1640081.01663289,7,1,68,8,8
20,547,469.553174683824,0,0,1640082.67548202,1640083.72255274,7,0,65,8,16
20,548,564.716294175014,1,0,1640085.28729547,1640086.33433924,7,1,93,0,0
20,549,693.0599687621,1,0,1640087.95789054,1640089.00496164,7,1,89,8,0
20,550,568.426547804847,1,0,1640090.87556933,1640091.92264467,7,1,81,0,8
20,551,628.294136608019,1,0,1640093.66384311,1640094.71091845,7,1,70,4,0
20,552,566.464786650613,1,0,1640096.48740973,1640097.53447467,7,1,86,16,0
20,553,589.634047355503,0,0,1640099.25214931,1640100.29926429,7,0,66,0,16
20,554,640.316852368414,0,0,1640101.98158681,1640103.02864405,7,0,79,16,8
20,555,632.004390237853,1,0,1640104.81691475,1640105.86398971,7,1,98,8,16
20,556,588.056477252394,1,0,1640107.62869964,1640108.67579692,7,1,99,0,0
20,557,587.476341053844,0,0,1640110.29933436,1640111.34640738,7,0,86,16,0
20,558,970.883984584361,1,0,1640113.06407663,1640114.11114119,7,1,87,8,8
20,559,552.285519661382,1,0,1640116.14645982,1640117.19353092,7,1,71,0,4
20,560,533.661108464003,0,0,1640118.81707143,1640119.86414792,7,0,72,16,16
20,561,459.50838830322,1,0,1640124.75832601,1640125.80540096,8,1,74,16,0
20,562,778.758052969351,0,0,1640127.28777206,1640128.33487703,8,0,70,4,8
20,563,613.676784094423,1,0,1640130.32309877,1640131.37017218,8,1,97,4,8
20,564,434.852023608983,1,0,1640133.08784258,1640134.13493909,8,1,84,0,16
20,565,1067.11344607174,0,0,1640135.60551845,1640136.65258531,8,0,69,16,4
20,566,586.965112714097,0,0,1640138.75849154,1640139.80556457,8,0,68,16,16
20,567,488.065947312862,1,0,1640141.46440446,1640142.51148134,8,1,73,16,0
20,568,718.15595892258,1,0,1640144.07619905,1640145.12327785,8,1,77,0,0
20,569,1678.0568852555,0,0,1640146.92329987,1640147.97036712,8,0,86,8,16
20,570,496.146662859246,1,0,1640150.77041417,1640151.81747295,8,1,74,0,0
20,571,618.635466322303,1,0,1640153.4998482,1640154.54691738,8,1,64,8,16
20,572,505.8434442617,0,0,1640156.32340443,1640157.37047822,8,0,62,4,8
20,573,867.650928441435,0,0,1640158.91167174,1640159.95874015,8,0,65,4,0
20,574,2414.6023071371,1,0,1640161.8646476,1640162.91172217,8,1,96,4,4
20,575,508.40035523288,1,0,1640166.46470204,1640167.51180124,8,1,67,8,0
20,576,457.543547498062,1,0,1640169.21767721,1640170.26474138,8,1,84,8,0
20,577,491.984464693815,1,0,1640171.74712018,1640172.79418473,8,1,69,8,8
20,578,481.392263900489,1,0,1640174.37068379,1640175.41774835,8,1,100,0,8
20,579,454.560100100935,0,0,1640177.07659056,1640178.12366589,8,0,83,8,16
20,580,484.575891168788,1,0,1640179.72368452,1640180.77075486,8,1,83,4,4
20,581,445.96777134575,0,0,1640182.45312318,1640183.50019505,8,0,84,4,16
20,582,419.412394287065,1,0,1640185.07668757,1640186.12375058,8,1,96,0,4
20,583,608.447089325637,1,0,1640187.58259633,1640188.62966743,8,1,84,0,4
20,584,956.856777193025,0,0,1640190.35909839,1640191.40623455,8,0,98,4,8
20,585,578.628398245201,1,0,1640193.45326292,1640194.50032248,8,1,99,0,16
20,586,785.3755322285,1,0,1640196.19447176,1640197.24153555,8,1,76,0,16
20,587,399.899878073484,1,0,1640199.15920664,1640200.20627582,8,1,84,8,4
20,588,741.430698661134,0,0,1640201.64158044,1640202.68865654,8,0,89,4,4
20,589,529.755294555798,1,0,1640204.51221045,1640205.5592831,8,1,99,16,8
20,590,588.717455044389,0,0,1640207.11224141,1640208.1593152,8,0,99,0,16
20,591,883.789646904916,1,0,1640209.82991489,1640210.8770472,8,1,89,16,16
20,592,897.095052525401,0,0,1640212.93587,1640213.98290646,8,0,100,16,8
20,593,1080.65868238918,1,0,1640216.01822316,1640217.06529465,8,1,80,16,4
20,594,853.68877928704,0,0,1640219.32416434,1640220.37121735,8,0,71,16,0
20,595,688.998630503193,0,0,1640222.30071598,1640223.3477278,8,0,75,4,0
20,596,655.13322991319,1,0,1640225.10068642,1640226.14776098,8,1,70,16,16
20,597,569.188000634313,0,0,1640227.86542908,1640228.91249671,8,0,92,4,16
20,598,573.931104503572,1,0,1640230.5595722,1640231.606646,8,1,64,16,4
20,599,436.901170760393,0,1,1640233.19490831,1640234.24196671,8,1,92,8,8
20,600,376.120069762692,0,0,1640235.71257224,1640236.75964758,8,0,95,4,16
20,601,453.850616933778,1,0,1640238.25377654,1640239.3008973,8,1,98,16,8
20,602,391.27290295437,0,0,1640240.93616758,1640241.98323714,8,0,77,4,4
20,603,453.225825214759,0,0,1640243.47737765,1640244.52444528,8,0,65,16,16
20,604,471.029884880409,0,0,1640246.17152847,1640247.21859496,8,0,65,16,0
20,605,606.887612491846,0,0,1640248.77155096,1640249.81866209,8,0,88,8,4
20,606,570.852571865544,1,0,1640251.52451496,1640252.57165228,8,1,88,0,4
20,607,577.378815039992,0,0,1640254.20691447,1640255.25398596,8,0,73,4,8
20,608,483.560364227742,1,0,1640256.91300486,1640257.95989849,8,1,64,8,4
20,609,490.389186656103,1,0,1640259.55991636,1640260.60698977,8,1,66,4,4
20,610,713.278118520975,1,0,1640262.30113136,1640263.34819322,8,1,82,8,0
20,611,462.774397106841,1,0,1640265.08939436,1640266.1365155,8,1,72,0,0
20,612,710.585701512173,0,0,1640267.77178078,1640268.8188488,8,0,70,0,4
20,613,1217.21588401124,0,0,1640270.6659323,1640271.71300378,8,0,72,8,16
20,614,1673.52050519548,1,1,1640274.03067511,1640275.07775006,8,0,79,16,8
20,615,483.067614259198,0,0,1640277.85425019,1640278.90132514,8,0,77,0,4
20,616,805.534782586619,0,0,1640280.59550176,1640281.64254207,8,0,89,8,4
20,617,942.611681763083,0,0,1640283.64255516,1640284.68963165,8,0,69,4,0
20,618,684.028784511611,0,0,1640286.77200251,1640287.81907439,8,0,63,8,16
20,619,588.827553903684,1,0,1640289.56026475,1640290.60735625,8,1,100,0,8
20,620,640.094344969839,0,0,1640292.38383175,1640293.43090554,8,0,63,16,16
20,621,486.345171695575,1,0,1640295.10150985,1640296.14858903,8,1,74,8,8
20,622,558.113443665206,0,0,1640297.73683595,1640298.78390859,8,0,65,0,0
20,623,665.414382470772,1,0,1640300.40746065,1640301.45453291,8,1,81,0,8
20,624,682.226782431826,0,0,1640303.14866333,1640304.19574213,8,0,94,8,0
20,625,574.590157717466,0,0,1640305.92523353,1640306.9722415,8,0,81,4,0
20,626,522.705504437909,0,0,1640308.63109641,1640309.67815481,8,0,97,16,4
20,627,568.977041868493,0,0,1640311.24287906,1640312.29004679,8,0,96,8,4
20,628,547.595925163478,1,0,1640313.93703566,1640314.98415027,8,1,88,0,8
20,629,614.290796685964,1,0,1640316.60764574,1640317.65470645,8,1,96,0,16
20,630,612.310172757134,0,0,1640319.41944949,1640320.46651828,8,0,77,8,8
20,631,658.555917907506,0,0,1640322.13711758,1640323.18418984,8,0,65,0,0
20,632,841.933611547574,1,0,1640325.00774837,1640326.05482024,8,1,83,16,4
20,633,616.730294423178,0,0,1640328.05484642,1640329.10192137,8,0,90,16,8
20,634,702.27400935255,1,0,1640330.83140199,1640331.87844037,8,1,100,4,16
20,635,1114.08407264389,0,0,1640333.61961495,1640334.66668836,8,0,93,4,0
20,636,488.515966571867,0,0,1640336.90200499,1640337.94907994,8,0,98,8,8
20,637,429.4591054786,0,0,1640339.50204402,1640340.54910242,8,0,97,4,16
20,638,1055.64545909874,1,0,1640342.06677367,1640343.11384438,8,1,72,0,8
20,639,615.119232796133,0,1,1640345.29035052,1640346.33741316,8,1,90,16,0
20,640,1480.60001432896,1,0,1640348.00806096,1640349.05509434,8,1,74,8,0
20,641,634.09241870977,0,0,1640355.69048626,1640356.73759932,9,0,72,4,0
20,642,405.978411668912,1,0,1640358.54932223,1640359.59639449,9,1,68,8,0
20,643,426.956474315375,1,0,1640361.14935588,1640362.19642929,9,1,74,8,16
20,644,797.626144718379,0,0,1640363.67887507,1640364.72586533,9,0,99,8,0
20,645,811.977874487638,1,0,1640366.5964684,1640367.64355413,9,1,81,8,4
20,646,669.972320087254,0,0,1640369.56120752,1640370.60828439,9,0,91,8,8
20,647,668.955253204331,1,0,1640372.31418846,1640373.36126341,9,1,61,16,4
20,648,665.888269199058,0,0,1640375.16128235,1640376.20839965,9,0,69,4,8
20,649,643.778421450406,1,0,1640378.05544196,1640379.10251883,9,1,69,8,0
20,650,464.632218470797,0,0,1640380.90252815,1640381.94959848,9,0,68,0,0
20,651,587.579125538468,0,0,1640383.45550301,1640384.50257219,9,0,84,0,4
20,652,743.063702946529,1,0,1640386.18502174,1640387.23201777,9,1,68,4,8
20,653,448.248280212283,1,0,1640389.18497516,1640390.2320505,9,1,76,0,8
20,654,765.13697928749,1,0,1640391.73795349,1640392.78501727,9,1,71,4,4
20,655,635.197641560808,0,0,1640394.59680601,1640395.6438748,9,0,74,4,0
20,656,507.16347550042,0,0,1640397.490966,1640398.53803094,9,0,66,0,16
20,657,486.444491427392,1,0,1640400.11452422,1640401.16158724,9,1,84,16,16
20,658,791.339732240886,1,0,1640402.65572313,1640403.70279693,9,1,96,0,8
20,659,731.808214215562,0,0,1640405.58518057,1640406.6322486,9,0,73,8,4
20,660,541.538179386407,1,0,1640408.52638741,1640409.57347122,9,1,63,4,8
20,661,745.407345239073,0,0,1640411.22053362,1640412.26760087,9,0,91,4,16
20,662,712.88391831331,0,0,1640414.10292073,1640415.14999222,9,0,99,4,0
20,663,431.647608755156,0,0,1640416.95001886,1640417.99712999,9,0,96,4,4
20,664,603.985006920993,0,0,1640419.46768818,1640420.51475813,9,0,83,16,8
20,665,554.513673763722,0,0,1640422.24419178,1640423.29126981,9,0,67,0,0
20,666,575.064429780468,1,0,1640424.92658243,1640425.97365392,9,1,88,0,16
20,667,803.640004945919,1,0,1640427.75014482,1640428.79721245,9,1,67,16,16
20,668,644.412836991251,1,0,1640430.75017484,1640431.79725018,9,1,88,8,0
20,669,718.127471860498,0,0,1640433.49138946,1640434.5384544,9,0,92,16,0
20,670,566.556792473421,1,0,1640436.36201139,1640437.40907402,9,1,69,8,8
20,671,782.675030874088,0,0,1640439.02091827,1640440.0679297,9,0,92,16,4
20,672,845.833651022986,1,0,1640442.03266459,1640443.07976687,9,1,91,0,8
20,673,578.039792831987,0,0,1640444.99740139,1640446.04447211,9,0,71,4,4
20,674,890.2981816791,0,0,1640447.70332086,1640448.75039004,9,0,72,16,8
20,675,433.089287485927,0,0,1640450.79747076,1640451.8445461,9,0,74,0,16
20,676,539.195691933855,0,0,1640453.30338838,1640454.3504564,9,0,83,0,4
20,677,642.606985289603,0,0,1640455.9387599,1640456.98577788,9,0,94,16,16
20,678,520.668675890192,1,0,1640458.64462163,1640459.69169273,9,1,92,0,0
20,679,485.310011776164,1,0,1640461.37407106,1640462.42113023,9,1,87,16,4
20,680,645.770594244823,1,0,1640464.05644901,1640465.1035359,9,1,100,8,4
20,681,531.248557846993,0,0,1640466.77413058,1640467.82119745,9,0,87,8,4
20,682,571.555125527084,0,0,1640469.53886631,1640470.58593702,9,0,68,16,16
20,683,803.155338857323,0,0,1640472.17419086,1640473.22126158,9,0,79,16,8
20,684,468.617719598114,0,0,1640475.20956608,1640476.25659214,9,0,65,4,16
20,685,515.143716242164,1,0,1640477.78602972,1640478.83309312,9,1,87,4,8
20,686,455.231471918523,1,0,1640480.39788167,1640481.44489002,9,1,64,16,8
20,687,500.102521618828,1,0,1640483.04490634,1640484.0919786,9,1,84,4,4
20,688,571.773783303797,1,0,1640485.72734011,1640486.77436733,9,1,62,0,0
20,689,901.91668854095,1,0,1640488.49203273,1640489.53910652,9,1,67,4,0
20,690,647.512927651405,1,0,1640491.60971914,1640492.65678639,9,1,67,4,16
20,691,601.644059177488,1,0,1640494.42151481,1640495.4685913,9,1,86,16,16
20,692,685.0281432271,0,0,1640497.15095269,1640498.19803919,9,0,91,16,4
20,693,738.824127940461,1,0,1640499.99804928,1640501.04517851,9,1,93,16,4
20,694,833.410190884024,0,0,1640502.88044255,1640503.92750903,9,0,91,8,0
20,695,764.727381058037,0,0,1640505.79813251,1640506.8452475,9,0,69,16,0
20,696,601.964731700718,1,0,1640508.65698272,1640509.70409656,9,1,98,16,8
20,697,638.804340735078,0,0,1640511.44524881,1640512.49230951,9,0,86,4,4
20,698,481.1859249603,1,0,1640514.32763553,1640515.37470201,9,1,87,0,8
20,699,452.597953844815,0,0,1640516.8923698,1640517.93943359,9,0,83,8,8
20,700,492.455272004008,1,0,1640519.5512274,1640520.59828041,9,1,98,0,4
20,701,574.958565412089,1,0,1640522.16302469,1640523.21009078,9,1,78,8,8
20,702,436.910794815049,1,0,1640524.86897995,1640525.9160603,9,1,75,8,8
20,703,767.676951829344,0,0,1640527.4689751,1640528.51603466,9,0,61,8,16
20,704,621.379467891529,1,0,1640530.45723841,1640531.50430798,9,1,68,0,4
20,705,438.292419770733,1,0,1640533.1514516,1640534.19844918,9,1,94,4,16
20,706,705.558111192659,1,0,1640535.6690601,1640536.71612736,9,1,91,0,0
20,707,879.027294693515,0,0,1640538.44536405,1640539.49264019,9,0,67,0,16
20,708,598.658302100375,0,0,1640541.38681212,1640542.43389361,9,0,71,0,4
20,709,538.385349325836,1,0,1640544.16332573,1640545.21034909,9,1,63,0,8
20,710,706.377308350056,1,0,1640546.8691913,1640547.91626471,9,1,98,8,16
20,711,1048.33582020365,0,0,1640549.7162848,1640550.76335937,9,0,71,8,16
20,712,496.604381361976,1,0,1640552.89279287,1640553.9398659,9,1,83,0,16
20,713,906.09159017913,0,0,1640555.46930617,1640556.51636534,9,0,70,8,4
20,714,553.719884250313,0,0,1640558.59874236,1640559.64581809,9,0,68,16,0
20,715,870.470767375082,0,0,1640561.33995659,1640562.38702077,9,0,100,4,8
20,716,863.141110865399,0,0,1640564.30469301,1640565.35176489,9,0,81,4,16
20,717,535.005006939173,1,0,1640567.26942905,1640568.31651748,9,1,84,16,0
20,718,397.992396494374,0,0,1640570.02241269,1640571.06948803,9,0,84,4,0
20,719,575.172988697886,0,0,1640572.49302439,1640573.54009318,9,0,100,8,16
20,720,536.775827407837,1,0,1640575.22249461,1640576.26955801,9,1,97,16,0
