sub_id,Trial,RT,Resp,Error,Fix_onset,Disp_onset,block,tid,tloc,fish_setsize,bird_setsize
29,1,695.115163689479,0,0,1716907.055362,1716908.10244465,1,0,99,16,0
29,2,577.219714643434,1,0,1716909.8671669,1716910.9142407,1,1,86,8,8
29,3,663.034442113712,1,0,1716912.65543414,1716913.70251409,1,1,81,4,16
29,4,612.290042918175,0,0,1716915.47903078,1716916.52606916,1,0,100,16,8
29,5,608.654471579939,1,0,1716918.19670927,1716919.24374649,1,1,82,4,8
29,6,488.209426170215,1,0,1716920.97323134,1716922.02025048,1,1,77,0,4
29,7,605.121684959158,0,0,1716923.62027296,1716924.66734829,1,0,97,16,0
29,8,506.600551074371,1,0,1716926.39677733,1716927.44384997,1,1,80,8,0
29,9,741.640390595421,0,0,1716929.16154385,1716930.20859147,1,0,100,4,8
29,10,608.888528076932,1,0,1716932.06752137,1716933.11450778,1,1,92,0,0
29,11,549.140277085826,1,0,1716934.78511825,1716935.83218319,1,1,78,16,4
29,12,420.954051427543,1,0,1716937.47926792,1716938.52633016,1,1,76,16,0
29,13,567.786631174386,0,0,1716939.97340997,1716941.02048453,1,0,83,8,8
29,14,736.896516755223,1,0,1716942.69109153,1716943.73816148,1,1,80,4,4
29,15,895.236349431798,1,0,1716945.54994906,1716946.59701978,1,1,91,8,16
29,16,546.255379449576,0,0,1716948.66763547,1716949.71469349,1,0,96,4,4
29,17,703.823750605807,0,0,1716951.33826211,1716952.38531973,1,0,91,0,0
29,18,576.849381905049,0,0,1716954.24416995,1716955.29125106,1,0,68,0,0
29,19,717.549918452278,0,0,1716956.89125545,1716957.93832462,1,0,96,8,8
29,20,535.238566808403,1,0,1716959.77364718,1716960.8207152,1,1,79,4,16
29,21,637.126569403335,1,0,1716962.51485486,1716963.56192135,1,1,70,8,4
29,22,716.38348698616,0,0,1716965.27959483,1716966.32666631,1,0,80,16,8
29,23,595.385637367144,0,0,1716968.24433279,1716969.29140851,1,0,90,16,4
29,24,511.814847122878,1,0,1716970.91495826,1716971.96203245,1,1,76,4,0
29,25,664.451483404264,0,0,1716973.49146695,1716974.53852842,1,0,70,16,16
29,26,657.807442126796,0,0,1716976.36208041,1716977.40914959,1,0,88,8,0
29,27,553.965377854183,0,0,1716979.1738807,1716980.22095603,1,0,89,0,4
29,28,753.508737077937,0,0,1716981.90332821,1716982.95039277,1,0,73,4,0
29,29,697.880338178948,0,0,1716984.7386523,1716985.7857234,1,0,66,8,4
29,30,404.094686033204,1,0,1716987.55045066,1716988.59752061,1,1,79,0,16
29,31,786.931047681719,1,0,1716990.13871836,1716991.18580409,1,1,63,0,16
29,32,568.530375603586,1,0,1716993.17404969,1716994.22111618,1,1,81,0,16
29,33,593.457752838731,1,0,1716995.86819898,1716996.91527547,1,1,82,16,8
29,34,600.659602554515,1,0,1716998.58587477,1716999.63294587,1,1,71,16,8
29,35,493.021438131109,0,0,1717001.36237914,1717002.40945332,1,0,63,4,16
29,36,634.990805760026,0,0,1717004.11537664,1717005.16242195,1,0,86,8,0
29,37,715.798731194809,0,0,1717006.99773988,1717008.04481445,1,0,71,4,8
29,38,596.324172103778,1,0,1717009.93895635,1717010.98602283,1,1,79,0,8
29,39,614.667946938425,1,0,1717012.70368976,1717013.75076317,1,1,88,16,4
29,40,547.550388146192,1,0,1717015.45669111,1717016.50373912,1,1,98,0,8
29,41,501.962541369721,1,0,1717018.22140451,1717019.268481,1,1,68,0,8
29,42,398.465787060559,1,0,1717020.85673138,1717021.90380402,1,1,89,0,4
29,43,651.401691837236,0,0,1717023.49205902,1717024.53912242,1,0,63,0,16
29,44,488.784172805026,1,0,1717026.32744201,1717027.37445806,1,1,66,16,4
29,45,628.046880243346,1,0,1717028.93918078,1717029.98624803,1,1,83,16,0
29,46,411.130617838353,1,0,1717031.73921666,1717032.78628006,1,1,79,8,4
29,47,599.500870099291,0,0,1717034.2215943,1717035.26866617,1,0,61,8,16
29,48,742.473061196506,0,0,1717036.91574705,1717037.96281892,1,0,93,4,16
29,49,562.989247730002,1,0,1717039.75108423,1717040.79814532,1,1,87,16,4
29,50,728.005073266104,0,0,1717042.39816781,1717043.44523814,1,0,86,0,4
29,51,564.928296022117,0,0,1717045.30408296,1717046.35114983,1,0,91,16,16
29,52,787.220538360998,0,0,1717047.96293633,1717049.01000589,1,0,75,4,8
29,53,628.947688732296,1,0,1717050.96297406,1717052.01003438,1,1,95,8,0
29,54,431.050807470456,1,0,1717053.82183236,1717054.8689023,1,1,76,0,0
29,55,787.123528309166,0,0,1717056.37479875,1717057.42187024,1,0,77,8,16
29,56,431.899261428043,0,0,1717059.22189187,1717060.26896567,1,0,76,8,8
29,57,698.424673173577,1,0,1717061.79839901,1717062.84546396,1,1,91,16,8
29,58,582.102559274063,0,0,1717064.58666048,1717065.63373273,1,0,86,8,16
29,59,559.247042285278,1,0,1717067.29258148,1717068.33964373,1,1,69,4,4
29,60,530.753001570702,0,0,1717069.91613316,1717070.96321158,1,0,97,4,16
29,61,478.959584143013,1,0,1717072.52799089,1717073.57500309,1,1,64,0,16
29,62,548.603641334921,0,0,1717075.16324346,1717076.21035074,1,0,74,4,4
29,63,547.104603378102,1,0,1717077.84564489,1717078.89271406,1,1,69,4,0
29,64,581.268733832985,1,0,1717080.55155512,1717081.59862352,1,1,71,0,8
29,65,772.121599409729,1,0,1717083.21040156,1717084.25750423,1,1,96,8,8
29,66,574.37100331299,1,0,1717086.1751476,1717087.22222255,1,1,64,16,16
29,67,620.567473582923,1,0,1717088.97518233,1717090.02225651,1,1,80,8,0
29,68,645.548360189423,1,0,1717091.73992498,1717092.78699147,1,1,83,8,4
29,69,667.448404477909,0,0,1717094.52819338,1717095.57526371,1,0,72,8,4
29,70,601.793312467635,0,0,1717097.24588341,1717098.2929472,1,0,65,4,0
29,71,644.214085536078,0,0,1717100.08120211,1717101.12827168,1,0,76,16,0
29,72,512.425010325387,0,0,1717102.88131152,1717103.92830178,1,0,94,0,4
29,73,618.433634983376,0,0,1717105.44597341,1717106.49306338,1,0,79,8,16
29,74,507.022468140349,0,0,1717108.28130367,1717109.3283713,1,0,62,0,0
29,75,430.073391646147,0,0,1717111.03427306,1717112.08134571,1,0,71,0,8
29,76,573.576828930527,0,0,1717113.55195432,1717114.59901464,1,0,82,4,8
29,77,397.490680916235,0,0,1717116.21080577,1717117.25787225,1,0,65,4,0
29,78,687.900225399062,1,0,1717118.68142247,1717119.72853591,1,1,99,16,16
29,79,634.247831301764,0,0,1717121.59910318,1717122.6461766,1,0,93,4,4
29,80,669.870963785797,1,0,1717124.31677898,1717125.37562026,1,1,80,16,16
29,81,503.945090109482,1,0,1717137.10517286,1717138.15224243,2,1,74,4,8
29,82,577.204316155985,0,0,1717139.66989443,1717140.71700325,2,0,94,0,8
29,83,493.376757018268,1,0,1717142.43464863,1717143.48171742,2,1,72,0,0
29,84,533.465436659753,1,0,1717145.14056387,1717146.18762457,2,1,92,4,4
29,85,536.903907777742,1,0,1717147.90530344,1717148.952368,2,1,93,16,0
29,86,780.619612662122,0,0,1717150.55240203,1717151.5994585,2,0,100,8,4
29,87,830.969811882824,0,0,1717153.47007274,1717154.51718349,2,0,71,4,8
29,88,598.22818916291,1,0,1717156.54069883,1717157.5877734,2,1,99,8,8
29,89,491.711800917983,1,0,1717159.31720744,1717160.36426622,2,1,69,16,0
29,90,431.586673250422,1,0,1717162.01135634,1717163.05842513,2,1,97,0,16
29,91,767.591763753444,0,0,1717164.5643185,1717165.61139229,2,0,90,4,0
29,92,384.33156022802,0,1,1717167.41141277,1717168.45848657,2,1,93,16,16
29,93,762.436751509085,0,0,1717169.96438918,1717171.01145527,2,0,70,4,16
29,94,706.947323866189,0,0,1717172.78800045,1717173.83501843,2,0,94,16,8
29,95,751.858794363216,0,0,1717175.63505007,1717176.6821077,2,0,99,16,8
29,96,561.876710504293,0,0,1717178.54095791,1717179.58806789,2,0,73,8,0
29,97,631.11771363765,0,0,1717181.15275442,1717182.19982822,2,0,89,8,8
29,98,806.82814004831,0,0,1717183.99985024,1717185.0469044,2,0,91,16,4
29,99,707.060887245461,1,0,1717186.85870661,1717187.90577079,2,1,88,16,4
29,100,609.271949157119,0,0,1717189.72932508,1717190.77640581,2,0,94,0,4
29,101,504.711547633633,1,0,1717192.44700665,1717193.49406967,2,1,87,16,8
29,102,664.97734002769,0,0,1717195.11762212,1717196.1647602,2,0,98,16,16
29,103,561.249993974343,1,0,1717197.92942741,1717198.9764935,2,1,99,8,8
29,104,564.676146488637,0,0,1717200.70593101,1717201.75299787,2,0,94,0,0
29,105,495.393952587619,1,0,1717203.40007067,1717204.44714331,2,1,66,4,0
29,106,500.776476692408,1,0,1717205.9648161,1717207.01190568,2,1,79,0,16
29,107,641.588651807979,0,0,1717208.56484936,1717209.61191315,2,0,81,0,16
29,108,511.605043429881,1,1,1717211.42374654,1717212.4707803,2,0,83,4,0
29,109,561.934069730341,1,0,1717214.03549301,1717215.08259875,2,1,94,0,8
29,110,549.73542666994,0,0,1717216.78858135,1717217.83556969,2,0,72,0,0
29,111,666.660004295409,0,0,1717219.43555906,1717220.4826625,2,0,78,4,4
29,112,523.01875106059,1,0,1717222.30618908,1717223.35327135,2,1,82,0,4
29,113,687.021359568462,0,0,1717224.95327651,1717226.00034761,2,0,66,16,8
29,114,671.766511630267,0,0,1717227.84747615,1717228.89451607,2,0,98,0,0
29,115,663.850559387356,1,0,1717230.63568833,1717231.6827656,2,1,73,8,0
29,116,539.293360663578,1,0,1717233.52985063,1717234.57691634,2,1,67,16,16
29,117,666.233852738515,1,0,1717236.22398952,1717237.27106255,2,1,73,8,4
29,118,642.478681402281,0,0,1717239.14168949,1717240.18876098,2,0,66,8,8
29,119,679.388738470152,1,0,1717241.94171382,1717242.98877376,2,1,91,8,4
29,120,428.905420005322,1,0,1717244.81233229,1717245.85940147,2,1,87,0,4
29,121,599.767647916451,0,0,1717247.47119067,1717248.51825792,2,0,73,16,0
29,122,637.742121936753,0,0,1717250.16533841,1717251.21241298,2,0,68,8,8
29,123,632.393859326839,0,0,1717252.90654879,1717253.95361874,2,0,85,16,4
29,124,934.192474000156,0,0,1717255.64775417,1717256.6948399,2,0,89,16,4
29,125,512.476979987696,0,0,1717258.70661431,1717259.75367733,2,0,85,0,16
29,126,580.754041206092,0,0,1717261.28312723,1717262.33019255,2,0,63,16,16
29,127,593.815381638706,1,0,1717263.93023659,1717264.97727574,2,1,97,16,16
29,128,443.75952379778,1,0,1717266.69494461,1717267.74206498,2,1,68,8,16
29,129,543.153364211321,0,0,1717269.21261547,1717270.25969311,2,0,66,0,16
29,130,516.328129451722,0,0,1717271.87147731,1717272.91854302,2,0,75,0,4
29,131,476.015017833561,1,0,1717274.56562351,1717275.61269462,2,1,87,0,4
29,132,857.39661171101,0,0,1717277.23624091,1717278.28331932,2,0,70,4,4
29,133,557.337250793353,1,0,1717280.28333742,1717281.33041275,2,1,73,4,16
29,134,523.096898104995,0,0,1717282.97748593,1717284.02455626,2,0,67,4,0
29,135,756.319337058812,0,0,1717285.68340386,1717286.73047227,2,0,97,16,0
29,136,447.000894928351,1,0,1717288.67167256,1717289.71874366,2,1,68,4,8
29,137,624.571067746729,1,0,1717291.24818355,1717292.29524541,2,1,95,16,0
29,138,460.491851903498,0,0,1717294.04820942,1717295.09527937,2,0,65,4,16
29,139,456.314255716279,1,0,1717296.64823768,1717297.69531032,2,1,78,4,0
29,140,605.331488652155,1,0,1717299.24827517,1717300.29533742,2,1,90,4,8
29,141,860.412395792082,1,0,1717301.95417116,1717303.00127575,2,1,73,16,4
29,142,624.862098135054,1,0,1717304.93070086,1717305.97776695,2,1,71,4,16
29,143,752.252224599943,0,0,1717307.66013759,1717308.707206,2,0,75,8,4
29,144,639.213827671483,1,0,1717310.6013452,1717311.64841784,2,1,90,8,0
29,145,659.942050697282,1,0,1717313.43673243,1717314.48374732,2,1,91,0,8
29,146,686.48125929758,1,0,1717316.2249423,1717317.27201379,2,1,86,8,16
29,147,567.666523391381,0,0,1717319.0837956,1717320.13085553,2,0,65,0,8
29,148,662.846581079066,0,0,1717321.80147909,1717322.84855288,2,0,72,8,16
29,149,680.245276540518,1,0,1717324.6250484,1717325.67211103,2,1,85,0,8
29,150,539.463128428906,1,0,1717327.54272527,1717328.58978944,2,1,77,16,8
29,151,477.678048890084,0,0,1717330.29569505,1717331.34276653,2,0,65,8,0
29,152,563.111280323938,0,0,1717332.93101883,1717333.97809494,2,0,76,4,4
29,153,562.378699658439,0,0,1717335.68399786,1717336.73105856,2,0,78,8,4
29,154,669.765484286472,0,1,1717338.36638697,1717339.41345037,2,1,61,8,16
29,155,467.412295052782,1,0,1717341.20170567,1717342.2487787,2,1,75,4,4
29,156,683.125169482082,0,0,1717343.83703485,1717344.88409979,2,0,83,8,16
29,157,754.572769161314,0,0,1717346.66059993,1717347.70766102,2,0,95,4,16
29,158,700.245153624564,1,0,1717349.60180985,1717350.64888133,2,1,94,8,0
29,159,598.937287228182,1,0,1717352.48424739,1717353.5312696,2,1,78,0,0
29,160,616.753665264696,1,0,1717355.33133281,1717356.37836157,2,1,79,4,8
29,161,478.608114644885,1,0,1717373.34326467,1717374.3903377,3,1,67,0,16
29,162,496.882981620729,0,0,1717376.01388707,1717377.06099782,3,0,84,0,16
29,163,865.315643604845,0,0,1717378.7433265,1717379.79038605,3,0,76,16,8
29,164,496.780196903273,1,0,1717381.71983079,1717382.76694154,3,1,96,4,16
29,165,651.428639190272,0,0,1717384.3551438,1717385.40221644,3,0,92,0,0
29,166,567.981421248987,1,1,1717387.2257769,1717388.27289035,3,0,61,0,4
29,167,540.172226494178,0,0,1717389.84933166,1717390.89642547,3,0,66,16,16
29,168,484.32824970223,1,0,1717392.55525382,1717393.602323,3,1,78,4,16
29,169,861.479892628267,1,0,1717395.16705457,1717396.21412683,3,1,62,8,0
29,170,674.23064657487,0,0,1717398.24943467,1717399.29651155,3,0,71,8,8
29,171,949.595916783437,0,0,1717401.17888557,1717402.22594397,3,0,66,0,4
29,172,721.780639607459,0,0,1717404.19072351,1717405.23776381,3,0,63,16,8
29,173,850.463464856148,1,0,1717407.02601334,1717408.07307905,3,1,89,8,0
29,174,595.160435186699,0,0,1717410.12017171,1717411.16723935,3,0,67,4,0
29,175,595.44646111317,0,0,1717412.82608233,1717413.8731465,3,0,84,16,4
29,176,555.283484049141,1,0,1717415.57906289,1717416.62612167,3,1,89,16,4
29,177,642.571457196027,1,0,1717418.29673637,1717419.34380901,3,1,90,8,0
29,178,634.417214198038,0,0,1717421.08500437,1717422.13207702,3,0,98,0,0
29,179,458.125496748835,1,0,1717423.82621706,1717424.87328739,3,1,89,0,8
29,180,651.163785718381,0,0,1717426.43801319,1717427.48508198,3,0,95,8,0
29,181,619.526924099773,1,0,1717429.20275123,1717430.24981694,3,1,92,8,4
29,182,654.356652172282,1,0,1717431.94394967,1717432.99102655,3,1,70,16,16
29,183,542.304140282795,1,0,1717434.80280913,1717435.84988292,3,1,72,0,8
29,184,574.701299890876,1,0,1717437.5205134,1717438.56756834,3,1,94,16,0
29,185,597.736593801528,0,0,1717440.33235142,1717441.37936054,3,0,89,8,4
29,186,448.309762170538,1,0,1717443.06173849,1717444.10879997,3,1,75,0,0
29,187,810.019081458449,1,0,1717445.63823986,1717446.68530634,3,1,83,16,4
29,188,630.534497788176,0,0,1717448.52062581,1717449.56768922,3,0,68,4,8
29,189,719.99018616043,0,0,1717451.20301108,1717452.25007717,3,0,100,16,4
29,190,684.126068139449,0,0,1717454.06186938,1717455.10893586,3,0,85,16,0
29,191,504.971011308953,0,0,1717456.86189717,1717457.90896789,3,0,62,4,4
29,192,704.445847542956,0,0,1717459.43840008,1717460.48546617,3,0,93,16,8
29,193,562.719390029088,1,0,1717462.29725145,1717463.34432794,3,1,68,16,16
29,194,504.016692982987,1,0,1717464.96788039,1717466.01494995,3,1,70,8,4
29,195,609.586847014725,1,0,1717467.60322535,1717468.65029029,3,1,80,16,0
29,196,718.08078000322,0,0,1717470.37970315,1717471.42677079,3,0,98,8,8
29,197,749.188705114648,1,0,1717473.23856415,1717474.28562909,3,1,92,8,4
29,198,599.707978777587,0,0,1717476.16800427,1717477.21513119,3,0,100,0,0
29,199,487.312082201242,1,0,1717478.89744754,1717479.94451788,3,1,78,4,4
29,200,685.329841217026,0,0,1717481.4974835,1717482.54455152,3,0,79,4,0
29,201,430.055298609659,1,0,1717484.29751745,1717485.34459009,3,1,68,16,0
29,202,610.761747928336,0,0,1717486.93284124,1717487.97991465,3,0,80,0,16
29,203,572.900452418253,0,0,1717489.74468657,1717490.79170377,3,0,88,8,16
29,204,720.555693842471,1,0,1717492.42702217,1717493.47409481,3,1,64,4,0
29,205,520.587337668985,0,0,1717495.27411645,1717496.32118062,3,0,100,0,16
29,206,541.884917998686,0,0,1717497.85061242,1717498.89768853,3,0,89,16,0
29,207,497.230601031333,1,0,1717500.52123636,1717501.56830438,3,1,76,4,16
29,208,579.602622659877,0,0,1717503.23890753,1717504.28597979,3,0,80,16,16
29,209,496.726687299088,0,0,1717505.99188578,1717507.03895419,3,0,78,0,8
29,210,620.713758980855,0,0,1717508.69781449,1717509.74486596,3,0,83,16,4
29,211,643.239364493638,0,0,1717511.53313127,1717512.58019775,3,0,84,4,0
29,212,545.582082821056,0,0,1717514.35669789,1717515.40376629,3,0,67,4,8
29,213,640.494592720643,0,0,1717517.00378416,1717518.05085064,3,0,90,4,4
29,214,591.128353960812,0,0,1717519.8861705,1717520.93324006,3,0,91,0,8
29,215,501.969085773453,1,0,1717522.67442927,1717523.72153001,3,1,97,8,16
29,216,539.660998387262,1,0,1717525.3097596,1717526.35682762,3,1,88,0,8
29,217,583.481874316931,1,0,1717528.06274747,1717529.10982011,3,1,83,4,4
29,218,486.374316969886,1,0,1717530.75688713,1717531.80395246,3,1,68,4,4
29,219,555.954856099561,0,0,1717533.33343739,1717534.38045306,3,0,75,8,16
29,220,439.724747790024,0,0,1717536.08634981,1717537.13343901,3,0,75,0,4
29,221,484.47530483827,1,0,1717538.6746179,1717539.72169131,3,1,99,0,16
29,222,813.310882542282,1,0,1717541.36876834,1717542.41584021,3,1,81,4,8
29,223,605.612895218655,1,0,1717544.36880683,1717545.41587986,3,1,83,4,0
29,224,482.693320373073,1,0,1717547.1454367,1717548.19237653,3,1,70,0,4
29,225,701.70184597373,0,0,1717549.74539951,1717550.79241133,3,0,82,8,8
29,226,502.227009506896,1,0,1717552.67480768,1717553.72184914,3,1,84,4,16
29,227,803.621030179784,0,0,1717555.29834897,1717556.34541661,3,0,83,8,8
29,228,738.268132554367,0,0,1717558.22779987,1717559.27485211,3,0,100,16,16
29,229,490.357123315334,0,0,1717561.14548097,1717562.19254707,3,0,99,8,8
29,230,569.749932037666,1,0,1717563.80433511,1717564.85140313,3,1,68,0,0
29,231,828.092613490298,1,0,1717566.53377338,1717567.5808391,3,1,87,4,8
29,232,556.054945802316,0,0,1717569.42792837,1717570.47499909,3,0,96,16,8
29,233,654.235389316455,0,0,1717572.05148582,1717573.09855539,3,0,77,8,16
29,234,733.782182447612,1,0,1717574.76916469,1717575.81623887,3,1,81,4,8
29,235,505.031450185925,1,0,1717577.69861636,1717578.74567861,3,1,83,4,16
29,236,666.078328387812,1,0,1717580.43982135,1717581.48689707,3,1,88,16,8
29,237,611.175196245313,1,0,1717583.35756135,1717584.40459011,3,1,86,8,16
29,238,598.242047708482,1,0,1717586.11046762,1717587.15754334,3,1,97,8,0
29,239,423.05401340127,1,0,1717588.85167145,1717589.89877527,3,1,78,0,4
29,240,644.219475099817,1,0,1717591.51054484,1717592.55760324,3,1,70,8,4
29,241,755.725727183744,0,0,1717604.6048622,1717605.65187902,4,0,88,8,4
29,242,549.41013478674,0,0,1717607.48718656,1717608.53428115,4,0,64,0,4
29,243,766.575466841459,0,0,1717610.20487929,1717611.25194731,4,0,100,8,16
29,244,635.037771193311,0,0,1717613.18138282,1717614.22845276,4,0,68,4,8
29,245,582.711567636579,1,0,1717615.96969124,1717617.01674425,4,1,85,4,8
29,246,589.265912771225,0,0,1717618.69909448,1717619.74616713,4,0,89,0,8
29,247,453.315794700757,1,0,1717621.49912921,1717622.54619184,4,1,96,4,8
29,248,452.787628164515,1,0,1717624.18155528,1717625.22858519,4,1,82,0,0
29,249,692.292245104909,0,0,1717626.85213533,1717627.89919604,4,0,81,0,8
29,250,611.539369216189,1,0,1717629.62863316,1717630.67570734,4,1,93,8,4
29,251,518.819597084075,1,0,1717632.44047617,1717633.48750724,4,1,83,0,4
29,252,692.917806562036,1,0,1717635.20517417,1717636.25224527,4,1,90,4,16
29,253,441.340814111754,0,1,1717638.0757938,1717639.12286144,4,1,73,4,16
29,254,771.854821592569,0,0,1717640.56994624,1717641.61727873,4,0,79,4,8
29,255,503.753379685804,1,0,1717643.49939406,1717644.54647248,4,1,84,16,8
29,256,613.943835254759,1,0,1717646.06413372,1717647.11119134,4,1,73,8,8
29,257,548.733373172581,1,0,1717648.75831534,1717649.80534794,4,1,81,4,16
29,258,553.265903610736,0,0,1717651.47595186,1717652.52301565,4,0,75,4,4
29,259,472.588865086436,0,0,1717654.09951124,1717655.14657927,4,0,75,8,0
29,260,860.87896861136,0,0,1717656.66424666,1717657.71131661,4,0,63,16,16
29,261,611.931259278208,0,0,1717659.62898347,1717660.67605765,4,0,92,8,16
29,262,601.429524598643,0,0,1717662.40549323,1717663.45256087,4,0,65,0,0
29,263,625.55964733474,1,0,1717665.1702201,1717666.2173143,4,1,82,16,0
29,264,690.782813122496,1,0,1717668.02911728,1717669.07622149,4,1,100,16,16
29,265,635.657943086699,0,1,1717670.81735488,1717671.86442444,4,1,81,8,4
29,266,700.381429633126,1,0,1717673.66444068,1717674.71151371,4,1,77,16,8
29,267,788.704177830368,0,0,1717676.53510958,1717677.58215181,4,0,90,4,4
29,268,776.017789263278,0,0,1717679.54686976,1717680.59393932,4,0,98,8,8
29,269,624.841695185751,1,0,1717682.44102936,1717683.48809122,4,1,93,0,8
29,270,840.382492169738,0,0,1717685.22928851,1717686.27636192,4,0,83,16,16
29,271,765.718159032986,0,0,1717688.29992192,1717689.34702882,4,0,81,4,16
29,272,607.995033496991,1,0,1717691.15877329,1717692.20587673,4,1,82,4,4
29,273,782.083619153127,0,0,1717693.86468891,1717694.91175346,4,0,100,16,16
29,274,600.964876357466,1,0,1717696.86471585,1717697.91182083,4,1,98,16,0
29,275,676.534252939746,1,0,1717699.54710805,1717700.59417722,4,1,68,4,0
29,276,674.121317686513,1,0,1717702.38242675,1717703.42952365,4,1,89,16,4
29,277,577.92919757776,0,0,1717705.18247033,1717706.22953489,4,0,67,4,0
29,278,608.571705175564,1,0,1717708.00602771,1717709.0530965,4,1,82,8,8
29,279,650.70683718659,0,0,1717710.67668668,1717711.72372236,4,0,93,0,4
29,280,548.994761891663,1,0,1717713.5355034,1717714.58263763,4,1,73,0,8
29,281,589.140030788258,0,0,1717716.19436331,1717717.24143365,4,0,76,0,0
29,282,424.399452051148,1,0,1717718.8649784,1717719.91205065,4,1,85,4,0
29,283,562.314026290551,0,0,1717721.35912006,1717722.40619925,4,0,66,16,4
29,284,784.37413694337,0,0,1717724.17092805,1717725.21799645,4,0,80,16,16
29,285,539.587470935658,1,0,1717727.0886207,1717728.13567409,4,1,77,8,8
29,286,605.416950071231,0,0,1717729.82981722,1717730.87688408,4,0,69,8,0
29,287,512.779174372554,1,0,1717732.65337306,1717733.70045917,4,1,94,0,0
29,288,509.809970622882,1,0,1717735.40639327,1717736.45343126,4,1,97,0,4
29,289,675.230390392244,1,0,1717737.97108981,1717739.01815475,4,1,91,0,16
29,290,592.316343681887,1,0,1717740.73581938,1717741.78288971,4,1,94,0,0
29,291,426.21030844748,1,0,1717743.53585641,1717744.58293213,4,1,65,4,4
29,292,637.881477829069,1,0,1717746.17118789,1717747.21825669,4,1,91,8,16
29,293,564.243835629895,0,0,1717748.93591823,1717749.98299203,4,0,97,8,16
29,294,520.218545105308,0,0,1717751.59476968,1717752.64185002,4,0,64,0,16
29,295,599.630216835067,0,0,1717754.35951349,1717755.40658344,4,0,71,4,0
29,296,577.77213351801,0,0,1717757.07723663,1717758.12427116,4,0,73,0,16
29,297,667.972721392289,1,0,1717759.73605266,1717760.78317766,4,1,69,16,0
29,298,398.158203111961,1,0,1717762.59490519,1717763.64197629,4,1,73,0,8
29,299,396.97406324558,1,1,1717765.08905686,1717766.1361372,4,0,78,8,0
29,300,671.655642800033,1,0,1717767.57143604,1717768.63026924,4,1,78,8,0
29,301,739.353337557986,1,0,1717770.41852454,1717771.46559603,4,1,98,16,8
29,302,577.129248762503,0,0,1717773.25385826,1717774.3009232,4,0,86,8,16
29,303,790.200136136264,0,0,1717776.01859591,1717777.0656624,4,0,69,16,4
29,304,672.703891294077,0,0,1717778.90102114,1717779.94805259,4,0,93,8,8
29,305,892.041558632627,1,0,1717781.81865412,1717782.86573023,4,1,72,16,4
29,306,782.021640567109,1,0,1717784.77162421,1717785.81871802,4,1,79,16,8
29,307,493.415253004059,1,0,1717787.78343558,1717788.83050206,4,1,87,4,4
29,308,460.753240389749,1,0,1717790.5129035,1717791.55995881,4,1,78,4,8
29,309,558.505607303232,0,0,1717793.20702815,1717794.2541031,4,0,93,4,0
29,310,890.693040098995,0,0,1717796.00705863,1717797.05413243,4,0,81,0,16
29,311,564.624946564436,0,0,1717798.96003796,1717800.00710367,4,0,82,16,8
29,312,613.870307570323,1,0,1717801.67772184,1717802.72478986,4,1,63,16,4
29,313,539.655993692577,0,0,1717804.37189153,1717805.41893992,4,0,71,16,0
29,314,563.622508430853,1,0,1717807.06601925,1717808.11307958,4,1,67,8,4
29,315,766.287131235003,0,0,1717809.7131086,1717810.7601774,4,0,82,16,0
29,316,533.500083023682,0,0,1717812.57196536,1717813.61903685,4,0,76,8,0
29,317,429.994859499857,0,0,1717815.25434832,1717816.30142365,4,0,62,0,4
29,318,361.173078883439,0,0,1717817.91320515,1717818.9602828,4,0,65,0,16
29,319,449.221349786967,1,0,1717820.37205398,1717821.41912547,4,1,97,4,16
29,320,571.329042082652,1,1,1717823.0191491,1717824.06621905,4,0,99,8,4
29,321,539.924696786329,0,0,1717846.37246897,1717847.41943036,5,0,75,16,4
29,322,510.68498683162,1,0,1717849.12533712,1717850.17244094,5,1,61,4,16
29,323,567.267703823745,0,0,1717851.85477308,1717852.90184957,5,0,94,4,8
29,324,731.269157491624,0,0,1717854.54893084,1717855.59599655,5,0,71,16,8
29,325,564.690390136093,0,0,1717857.37249437,1717858.41955662,5,0,63,16,16
29,326,510.047876508906,1,0,1717860.14899374,1717861.19606985,5,1,95,4,0
29,327,465.944824041799,0,0,1717862.73726028,1717863.78433139,5,0,83,16,4
29,328,572.942413389683,1,0,1717865.4078796,1717866.45496264,5,1,78,16,16
29,329,562.967689707875,0,0,1717868.20791356,1717869.25498697,5,0,76,8,0
29,330,545.771483564749,0,0,1717870.99618002,1717872.04324573,5,0,96,0,0
29,331,526.67472534813,1,0,1717873.69033046,1717874.7374031,5,1,72,8,16
29,332,678.695038892329,1,0,1717876.45506581,1717877.50217194,5,1,93,4,4
29,333,526.467231335118,0,0,1717879.19627118,1717880.24335114,5,0,77,8,4
29,334,707.01238210313,1,0,1717881.86688896,1717882.91399856,5,1,94,8,8
29,335,601.120785577223,0,0,1717884.67869194,1717885.7257615,5,0,87,4,16
29,336,869.759248103946,0,0,1717887.51403182,1717888.56109368,5,0,61,8,0
29,337,520.064945565537,1,0,1717890.5375818,1717891.5846556,5,1,79,8,4
29,338,627.652295166627,0,0,1717893.17290752,1717894.21997823,5,0,93,8,0
29,339,771.069116191939,1,0,1717895.89066222,1717896.93766365,5,1,83,0,4
29,340,483.95368270576,1,0,1717898.73768413,1717899.78475484,5,1,96,0,0
29,341,384.966360870749,1,0,1717901.44359782,1717902.49066931,5,1,75,8,4
29,342,755.775772035122,0,0,1717904.04362338,1717905.09076031,5,0,78,4,0
29,343,561.16568762809,1,0,1717907.00843756,1717908.05542859,5,1,88,8,0
29,344,649.983110604808,0,0,1717909.70251178,1717910.74958404,5,0,80,4,16
29,345,693.46445100382,0,0,1717912.43195891,1717913.47903271,5,0,88,4,0
29,346,696.213072398677,0,0,1717915.31434756,1717916.3614202,5,0,88,16,0
29,347,514.231247128919,0,0,1717918.2202631,1717919.2673242,5,0,93,8,16
29,348,562.600437086076,0,0,1717920.94970176,1717921.99677902,5,0,62,0,8
29,349,459.813935682178,0,0,1717923.65562893,1717924.70268771,5,0,67,0,4
29,350,523.097282974049,0,0,1717926.37334783,1717927.42037081,5,0,78,0,0
29,351,391.422925982624,0,0,1717929.09098166,1717930.13804699,5,0,85,0,8
29,352,554.986679228023,0,0,1717931.67923858,1717932.72630968,5,0,68,4,8
29,353,693.045228486881,1,0,1717934.38515189,1717935.43223531,5,1,85,16,0
29,354,1473.31913607195,1,0,1717937.30284031,1717938.34990987,5,1,87,4,4
29,355,821.341938106343,0,0,1717940.90288242,1717941.94994698,5,0,70,0,16
29,356,620.135547360405,0,0,1717943.90292092,1717944.94998779,5,0,97,4,0
29,357,644.647551700473,1,0,1717946.63237151,1717947.67943029,5,1,96,0,0
29,358,639.532960485667,0,0,1717949.52651726,1717950.57357912,5,0,83,4,4
29,359,500.474667409435,0,0,1717952.32654428,1717953.37361384,5,0,61,0,16
29,360,532.6858907938,0,0,1717954.93834772,1717955.98542883,5,0,96,4,16
29,361,572.363432031125,0,0,1717957.66778792,1717958.71484901,5,0,87,8,16
29,362,731.841209344566,0,0,1717960.44429306,1717961.4913453,5,0,80,16,16
29,363,523.93957762979,0,0,1717963.361968,1717964.40904488,5,0,86,8,8
29,364,570.00516122207,1,0,1717966.0678867,1717967.11494048,5,1,94,4,8
29,365,594.184174202383,1,0,1717968.83264553,1717969.87969314,5,1,63,4,8
29,366,557.56168323569,0,0,1717971.64442002,1717972.6914992,5,0,74,8,8
29,367,589.564257534221,1,0,1717974.45621645,1717975.50328294,5,1,71,0,4
29,368,594.445562688634,1,0,1717977.19742606,1717978.24449486,5,1,87,16,16
29,369,808.828397188336,0,0,1717980.0209896,1717981.06806494,5,0,99,0,8
29,370,581.666398560628,1,0,1717983.06809496,1717984.11515182,5,1,90,0,8
29,371,650.361912092194,1,0,1717985.75045405,1717986.79753285,5,1,67,16,4
29,372,481.692421948537,0,0,1717988.62109061,1717989.66818443,5,0,88,0,16
29,373,626.910475315526,1,0,1717991.33877179,1717992.38590103,5,1,91,0,4
29,374,1176.99120170437,0,1,1717994.19762547,1717995.24470158,5,1,61,8,8
29,375,1422.66404791735,1,0,1717997.63295665,1717998.68002583,5,1,64,8,4
29,376,498.521760106087,0,0,1718001.24477703,1718002.29205447,5,0,65,16,4
29,377,604.459937196225,1,0,1718003.82126993,1718004.86833795,5,1,63,8,16
29,378,647.123620379716,1,0,1718006.6095876,1718007.65660673,5,1,91,8,4
29,379,577.086902922019,1,0,1718009.40956881,1718010.45665416,5,1,91,0,0
29,380,542.277962900698,0,0,1718012.08019352,1718013.12725961,5,0,96,4,4
29,381,643.957701511681,1,0,1718014.76257339,1718015.80968299,5,1,92,16,4
29,382,469.33786990121,1,0,1718017.49201859,1718018.53909162,5,1,73,0,16
29,383,660.250019514933,0,0,1718020.0920557,1718021.13911911,5,0,82,4,8
29,384,661.148518323898,0,0,1718022.83324183,1718023.8803214,5,0,100,4,0
29,385,450.318873394281,1,0,1718025.55093456,1718026.59800605,5,1,76,0,4
29,386,747.029459103942,1,0,1718028.18626374,1718029.23332791,5,1,70,16,0
29,387,452.150132972747,1,0,1718031.1392396,1718032.18630801,5,1,77,4,16
29,388,661.745977587998,1,0,1718033.68044544,1718034.72751962,5,1,91,16,8
29,389,457.288976758718,1,0,1718036.56285103,1718037.60990134,5,1,72,4,4
29,390,633.982978062704,0,0,1718039.13932968,1718040.18644428,5,0,76,16,8
29,391,532.956903334707,1,0,1718041.95112612,1718042.99819375,5,1,77,8,16
29,392,570.976032642648,0,0,1718044.55115245,1718045.59822932,5,0,77,8,0
29,393,664.965791162103,1,0,1718047.30413493,1718048.35120141,5,1,89,16,0
29,394,615.589928347617,1,0,1718050.13946249,1718051.1865282,5,1,93,16,16
29,395,526.277060620487,1,0,1718052.97479467,1718054.02185807,5,1,67,0,8
29,396,694.292887113988,1,0,1718055.57482216,1718056.62189133,5,1,71,16,0
29,397,548.657536040992,1,0,1718058.33956096,1718059.38662437,5,1,74,16,8
29,398,622.450702590868,0,0,1718061.03370371,1718062.08078174,5,0,91,8,8
29,399,448.563451645896,1,0,1718063.84550361,1718064.89257009,5,1,96,16,8
29,400,583.952296758071,0,0,1718066.52788733,1718067.5749542,5,0,100,0,16
29,401,1105.24641233496,0,0,1718077.64566999,1718078.69272954,6,0,70,16,8
29,402,880.635550012812,0,0,1718080.82217074,1718081.86924222,6,0,96,8,8
29,403,577.61044986546,1,0,1718083.82220846,1718084.86927687,6,1,71,8,0
29,404,569.539358373731,1,0,1718086.51636353,1718087.56342577,6,1,70,0,4
29,405,396.953660296276,1,0,1718089.29286058,1718090.33994131,6,1,77,0,16
29,406,345.688024302945,1,1,1718091.8929281,1718092.93997033,6,0,68,0,16
29,407,1059.93766221218,1,0,1718094.39880222,1718095.4458841,6,1,89,16,8
29,408,459.745797561482,0,0,1718097.55178301,1718098.59885719,6,0,76,4,16
29,409,510.25383034721,1,0,1718100.17533931,1718101.22241426,6,1,96,8,0
29,410,809.843154158443,0,0,1718102.79889677,1718103.84596556,6,0,92,4,4
29,411,549.800100037828,1,0,1718105.75187648,1718106.79894489,6,1,91,4,8
29,412,631.6027645953,0,0,1718108.49309033,1718109.54015989,6,0,79,0,16
29,413,650.407722452655,0,0,1718111.34017613,1718112.38724608,6,0,96,16,0
29,414,1181.75778817385,0,0,1718114.06962095,1718115.11669436,6,0,89,16,4
29,415,605.636762920767,0,0,1718117.30495066,1718118.35202408,6,0,73,0,8
29,416,545.190565986559,1,0,1718120.0344001,1718121.08126218,6,1,70,8,0
29,417,620.90970389545,1,0,1718122.77561895,1718123.82267773,6,1,80,0,0
29,418,541.011441498995,0,0,1718125.58739999,1718126.63447455,6,0,64,8,0
29,419,542.156700277701,1,0,1718128.35215304,1718129.39921182,6,1,86,4,0
29,420,448.771330295131,1,0,1718130.98752725,1718132.03454485,6,1,85,4,0
29,421,596.324556972831,0,0,1718133.61102928,1718134.65809576,6,0,92,4,16
29,422,673.237447394058,0,0,1718136.31699378,1718137.36401946,6,0,96,4,4
29,423,453.441676916555,1,0,1718139.08168486,1718140.1287498,6,1,98,0,4
29,424,750.096827978268,1,0,1718141.70524039,1718142.75230456,6,1,63,16,8
29,425,660.511792870238,0,0,1718144.52880238,1718145.57587695,6,0,88,16,4
29,426,550.356368767098,1,0,1718147.42295544,1718148.47002115,6,1,63,4,16
29,427,632.495874073356,0,0,1718150.18768963,1718151.2347488,6,0,87,16,4
29,428,607.6358652208,1,0,1718152.90537813,1718153.95243691,6,1,69,4,4
29,429,521.734521258622,1,0,1718155.75246509,1718156.79953041,6,1,82,0,4
29,430,939.556135097519,0,0,1718158.44660629,1718159.49368124,6,0,67,0,0
29,431,609.887886559591,1,0,1718161.51724393,1718162.56431503,6,1,87,16,16
29,432,413.927744142711,1,0,1718164.32902843,1718165.37610762,6,1,75,16,16
29,433,535.320563707501,0,0,1718166.90553673,1718167.95259975,6,0,67,0,16
29,434,444.808927131817,1,0,1718169.67028093,1718170.71734202,6,1,67,4,8
29,435,679.720574989915,1,0,1718172.28212325,1718173.32914315,6,1,71,8,0
29,436,662.74649114348,0,0,1718175.17622626,1718176.2232939,6,0,72,8,4
29,437,396.457830676809,1,0,1718178.01154381,1718179.05861723,6,1,76,8,16
29,438,352.387499762699,1,0,1718180.51745989,1718181.56453292,6,1,67,8,16
29,439,538.396401563659,0,0,1718182.97631411,1718184.02337097,6,0,76,8,4
29,440,381.849717115983,1,1,1718185.75282002,1718186.7998815,6,0,68,4,8
29,441,584.326094016433,1,1,1718188.27048357,1718189.3175616,6,0,82,0,8
29,442,601.324045099318,0,0,1718191.03527127,1718192.08233044,6,0,78,8,8
29,443,514.818312833086,1,0,1718193.75291857,1718194.80002971,6,1,76,8,16
29,444,633.205742109567,0,0,1718196.48238264,1718197.52941755,6,0,78,8,4
29,445,513.195317238569,0,0,1718199.32944573,1718200.3765099,6,0,96,4,0
29,446,590.210222173482,0,0,1718202.08242283,1718203.12947891,6,0,98,4,16
29,447,416.617851238698,1,0,1718204.81186687,1718205.85893182,6,1,65,4,4
29,448,545.385367935523,1,0,1718207.35306347,1718208.40014189,6,1,79,8,4
29,449,655.528858304024,0,0,1718210.05898371,1718211.10605134,6,0,99,8,8
29,450,435.592191992328,0,0,1718212.91785548,1718213.96490887,6,0,76,0,0
29,451,613.54386084713,0,0,1718215.47083496,1718216.51790298,6,0,84,16,0
29,452,551.681019365788,1,0,1718218.32966862,1718219.37679169,6,1,68,16,0
29,453,632.400403730571,1,0,1718220.96499549,1718222.0120612,6,1,85,0,0
29,454,650.815011234954,1,0,1718223.72975239,1718224.77680039,6,1,91,16,0
29,455,741.646549897268,1,0,1718226.48271794,1718227.52977711,6,1,98,4,0
29,456,503.286422230303,1,0,1718229.47097432,1718230.51804349,6,1,92,0,8
29,457,770.979420281947,0,0,1718232.05923855,1718233.10630657,6,0,90,16,16
29,458,772.038063034415,0,0,1718234.90633052,1718235.95339623,6,0,80,4,8
29,459,752.488975413144,0,0,1718237.83577795,1718238.88285175,6,0,82,0,16
29,460,645.878271665424,0,0,1718240.76525118,1718241.81228956,6,0,63,16,4
29,461,654.253097483888,1,0,1718243.52996112,1718244.57703568,6,1,61,16,4
29,462,693.000573199242,1,0,1718246.37716126,1718247.42412957,6,1,93,0,0
29,463,659.182137576863,0,0,1718249.2829667,1718250.33003896,6,0,82,8,8
29,464,553.887615678832,1,0,1718252.024179,1718253.0713194,6,1,81,4,4
29,465,610.00837944448,1,0,1718254.8359712,1718255.88304346,6,1,76,0,4
29,466,625.134650617838,0,0,1718257.63600901,1718258.68308011,6,0,69,8,4
29,467,852.91104670614,0,0,1718260.37727097,1718261.42429665,6,0,92,8,16
29,468,732.635768828914,0,0,1718263.47137699,1718264.51844193,6,0,91,16,8
29,469,621.629965957254,1,0,1718266.27140671,1718267.31847049,6,1,90,0,4
29,470,593.567081727088,0,0,1718269.13026423,1718270.17733649,6,0,67,16,16
29,471,569.980908650905,1,0,1718271.94206336,1718272.98914024,6,1,74,4,8
29,472,695.630241418257,0,0,1718274.58913655,1718275.63622343,6,0,92,0,8
29,473,517.410254804417,1,0,1718277.47154137,1718278.51860246,6,1,72,8,8
29,474,530.135139357299,1,0,1718280.10685014,1718281.15393664,6,1,87,4,0
29,475,493.031061952934,1,0,1718282.85983917,1718283.90690065,6,1,65,16,8
29,476,545.869648689404,0,0,1718285.61280972,1718286.65987389,6,0,65,4,16
29,477,691.30751490593,0,0,1718288.37754506,1718289.42461809,6,0,66,8,16
29,478,445.039903977886,1,0,1718291.16580999,1718292.2129296,6,1,97,16,0
29,479,545.164785347879,1,0,1718293.68349317,1718294.73054849,6,1,69,0,8
29,480,475.659313611686,0,0,1718296.35411403,1718297.40117512,6,0,94,16,16
29,481,501.606837380677,1,0,1718329.03684191,1718330.08391801,7,1,63,0,4
29,482,635.302239330485,0,0,1718331.62511346,1718332.67218148,7,0,85,16,8
29,483,553.87375713326,1,0,1718334.36632422,1718335.4133907,7,1,83,16,4
29,484,440.50082936883,1,0,1718337.03693507,1718338.08399655,7,1,79,0,0
29,485,924.147687619552,1,0,1718339.68402673,1718340.73110014,7,1,82,4,4
29,486,835.391473490745,0,0,1718342.78995413,1718343.83702407,7,0,61,16,4
29,487,486.119088018313,1,0,1718345.88417101,1718346.93116474,7,1,81,4,4
29,488,523.480704287067,1,0,1718348.55472219,1718349.60179445,7,1,70,0,0
29,489,567.972182296216,1,0,1718351.28416431,1718352.33123541,7,1,71,16,8
29,490,779.455105774105,0,0,1718354.06066984,1718355.10773324,7,0,76,8,16
29,491,527.645981870592,1,0,1718356.9783544,1718358.02542012,7,1,74,8,16
29,492,938.862820155919,0,0,1718359.59014245,1718360.63721316,7,0,93,4,8
29,493,492.358150193468,1,0,1718362.76665051,1718363.81371854,7,1,62,0,16
29,494,719.311499968171,1,0,1718365.36667607,1718366.41375141,7,1,71,8,0
29,495,382.506460417062,1,1,1718368.27259816,1718369.31967196,7,0,86,4,0
29,496,537.327749887481,1,0,1718370.76674252,1718371.81381786,7,1,70,0,8
29,497,602.075873874128,0,0,1718373.36677539,1718374.4138438,7,0,75,4,16
29,498,478.271658765152,1,0,1718376.11975211,1718377.16681782,7,1,68,16,0
29,499,413.757976144552,1,0,1718378.84921502,1718379.89626109,7,1,76,0,16
29,500,1194.90612996742,0,0,1718381.41391656,1718382.46099959,7,0,89,16,0
29,501,572.456977562979,1,0,1718384.79042493,1718385.83750566,7,1,88,8,0
29,502,486.111773876473,1,0,1718387.47281867,1718388.51989747,7,1,95,0,16
29,503,816.629630979151,1,0,1718390.0140349,1718391.06109868,7,1,70,4,0
29,504,764.426229754463,0,0,1718392.90818026,1718393.95524982,7,0,80,8,16
29,505,813.139189966023,0,0,1718395.79056814,1718396.83763616,7,0,81,8,16
29,506,637.22473452799,1,0,1718398.8494202,1718399.89649939,7,1,62,0,8
29,507,561.935994541273,1,0,1718401.63769514,1718402.68476046,7,1,96,4,0
29,508,518.820751691237,0,0,1718404.37890859,1718405.4259693,7,0,99,0,0
29,509,508.464531973004,0,0,1718407.0259887,1718408.07306173,7,0,83,8,0
29,510,386.26367948018,0,0,1718409.75543737,1718410.80250655,7,0,74,16,4
29,511,436.172328190878,1,1,1718412.21428273,1718413.26135846,7,0,98,8,4
29,512,829.857274424285,0,0,1718414.80255082,1718415.84962269,7,0,61,4,8
29,513,469.244324369356,0,0,1718417.87317845,1718418.92024108,7,0,77,0,16
29,514,579.248073743656,1,0,1718420.5790856,1718421.62616286,7,1,96,8,8
29,515,556.604670127854,1,0,1718423.29677948,1718424.34383365,7,1,80,16,8
29,516,560.628667008132,0,0,1718425.95563016,1718427.00273475,7,0,97,0,0
29,517,613.796780118719,1,0,1718428.60270834,1718429.64977714,7,1,92,16,8
29,518,443.541635992005,0,0,1718431.29686263,1718432.34393181,7,0,73,4,4
29,519,444.974460406229,0,1,1718433.97924751,1718435.02631207,7,1,62,4,16
29,520,485.351860988885,0,0,1718436.49692454,1718437.54398755,7,0,82,0,8
29,521,774.449073476717,0,0,1718439.10871027,1718440.15578869,7,0,97,8,4
29,522,461.364173330367,0,0,1718442.09698436,1718443.14405777,7,0,64,8,4
29,523,761.376184178516,1,0,1718444.75584158,1718445.80291114,7,1,81,16,4
29,524,519.651882583275,1,0,1718447.56763609,1718448.61470835,7,1,95,16,0
29,525,827.944403514266,1,0,1718450.23825618,1718451.28536809,7,1,90,16,0
29,526,748.182802228257,0,0,1718453.25005754,1718454.29712749,7,0,96,0,4
29,527,865.056565031409,0,0,1718456.10891738,1718457.15598771,7,0,61,16,16
29,528,631.85760891065,1,0,1718459.19130172,1718460.23841863,7,1,92,16,4
29,529,961.091235978529,0,0,1718462.00310278,1718463.05017118,7,0,89,4,8
29,530,659.328422974795,1,0,1718465.17959506,1718466.22668464,7,1,72,0,4
29,531,1291.89550434239,0,0,1718468.06199795,1718469.10906482,7,0,74,4,0
29,532,821.600246941671,0,0,1718471.59151791,1718472.63852126,7,0,64,0,4
29,533,548.441187944263,1,0,1718474.48559706,1718475.53266739,7,1,67,0,0
29,534,985.563974361867,0,0,1718477.09739511,1718478.14446467,7,0,66,16,0
29,535,646.993118803948,0,0,1718480.22683824,1718481.27390818,7,0,96,4,4
29,536,553.006439935416,0,0,1718483.08569191,1718484.13278573,7,0,85,8,8
29,537,554.905837401748,1,1,1718485.82690999,1718486.87403114,7,0,97,8,4
29,538,847.069649258628,1,0,1718488.5916642,1718489.63871105,7,1,81,16,16
29,539,495.107541559264,0,0,1718491.5446185,1718492.59168961,7,0,65,4,4
29,540,1147.11361145601,0,0,1718494.20347457,1718495.25054298,7,0,99,8,8
29,541,549.122568918392,1,0,1718497.45057331,1718498.49764634,7,1,65,16,16
29,542,543.109093792737,1,0,1718500.10943246,1718501.15651164,7,1,69,8,0
29,543,1959.83664831147,0,0,1718502.74475586,1718503.79185468,7,0,81,4,0
29,544,520.313245244324,0,0,1718506.81538349,1718507.86246345,7,0,67,8,8
29,545,496.154635446146,0,1,1718509.41542484,1718510.46248862,7,1,71,16,8
29,546,473.18670945242,1,0,1718512.06254922,1718513.10956565,7,1,72,8,16
29,547,556.58696196042,0,0,1718514.69783181,1718515.74490638,7,0,85,0,4
29,548,463.764789979905,1,0,1718517.49785691,1718518.54492994,7,1,93,0,8
29,549,438.002047594637,1,0,1718520.06259926,1718521.10968268,7,1,83,4,8
29,550,510.916348313913,0,0,1718522.70969708,1718523.75675894,7,0,80,8,4
29,551,458.669446641579,1,0,1718525.30975113,1718526.35678797,7,1,97,8,8
29,552,646.247449330986,0,0,1718527.83915984,1718528.88623363,7,0,62,16,16
29,553,566.105891717598,0,0,1718530.7333152,1718531.78038169,7,0,66,4,16
29,554,500.16823830083,0,0,1718533.54510933,1718534.59218467,7,0,67,4,16
29,555,650.167122017592,0,0,1718536.29809066,1718537.34515753,7,0,99,0,8
29,556,517.520353430882,0,0,1718539.16871144,1718540.21577484,7,0,80,16,16
29,557,760.940793436021,1,0,1718541.886388,1718542.93346757,7,1,63,8,0
29,558,545.586317544803,1,0,1718544.70994692,1718545.75701725,7,1,62,4,16
29,559,468.659183708951,1,0,1718547.4276562,1718548.47470228,7,1,74,0,16
29,560,433.706653071567,1,0,1718549.99240471,1718551.03944155,7,1,94,4,8
29,561,383.436911040917,1,0,1718556.13361455,1718557.18067795,8,1,89,4,0
29,562,622.071516234428,0,0,1718558.56893533,1718559.61599104,8,0,65,8,16
29,563,550.019143149257,1,0,1718561.31013917,1718562.35721643,8,1,99,0,16
29,564,593.954352661967,1,0,1718563.96899562,1718565.01605517,8,1,81,4,16
29,565,514.180047437549,1,1,1718566.67491047,1718567.72198118,8,0,83,4,8
29,566,457.304760115221,0,0,1718569.39258934,1718570.43966198,8,0,62,8,0
29,567,411.705364240333,1,0,1718571.91027637,1718572.95733977,8,1,98,4,16
29,568,402.527509955689,0,0,1718574.45147643,1718575.49854407,8,0,65,0,8
29,569,480.808166787028,0,0,1718577.0279778,1718578.07504774,8,0,64,4,16
29,570,477.828568778932,0,0,1718579.72212708,1718580.76919087,8,0,74,16,16
29,571,495.919424109161,1,0,1718582.3809793,1718583.42806618,8,1,99,8,4
29,572,503.343011252582,0,0,1718585.09865355,1718586.14572735,8,0,86,16,4
29,573,1422.95892816037,1,0,1718587.68692356,1718588.73401622,8,1,64,4,4
29,574,1001.69191369787,1,0,1718591.27523938,1718592.32227006,8,1,97,16,4
29,575,476.723345927894,1,0,1718594.48700679,1718595.53409059,8,1,87,4,0
29,576,531.595296459273,0,0,1718597.02820569,1718598.07527988,8,0,83,8,16
29,577,341.867286479101,1,0,1718599.7929472,1718600.8400233,8,1,75,0,4
29,578,725.39195837453,0,0,1718602.27532522,1718603.32240133,8,0,84,8,8
29,579,755.552109796554,0,0,1718605.24007165,1718606.28714006,8,0,96,0,8
29,580,794.798879884183,1,0,1718608.09894766,1718609.14599143,8,1,76,16,16
29,581,782.373109832406,0,0,1718610.99307493,1718612.04014487,8,0,89,4,0
29,582,447.101754834875,0,0,1718613.92252005,1718614.96958769,8,0,83,4,8
29,583,424.156156834215,1,0,1718616.48725932,1718617.53432696,8,1,74,8,8
29,584,600.774321006611,1,0,1718619.15787633,1718620.20494859,8,1,69,4,4
29,585,613.940755603835,0,0,1718621.92261937,1718622.96969394,8,0,90,0,8
29,586,507.849749410525,1,0,1718624.62853037,1718625.67559878,8,1,71,0,4
29,587,571.405264316127,1,0,1718627.35797403,1718628.40504051,8,1,96,8,16
29,588,512.391518801451,0,0,1718630.11094651,1718631.15801261,8,0,67,8,8
29,589,588.800110155717,1,0,1718632.78157545,1718633.8286427,8,1,98,0,16
29,590,524.416929343715,0,0,1718635.55807251,1718636.60514014,8,0,95,4,16
29,591,532.56616787985,1,0,1718638.16986555,1718639.21692318,8,1,71,0,4
29,592,877.40957736969,0,0,1718640.81694759,1718641.86402023,8,0,78,4,8
29,593,728.884709300473,0,0,1718643.852282,1718644.89935811,8,0,76,16,16
29,594,488.724503666162,1,0,1718646.79356429,1718647.84055763,8,1,67,16,8
29,595,540.04172468558,0,0,1718649.46411277,1718650.51118811,8,0,64,8,0
29,596,663.299679988995,0,0,1718652.12296961,1718653.17003763,8,0,69,16,8
29,597,603.434401098639,1,0,1718654.93476374,1718655.98183368,8,1,87,16,16
29,598,703.24938884005,0,0,1718657.68773737,1718658.73481386,8,0,73,0,0
29,599,626.845417078584,1,0,1718660.57012602,1718661.6172872,8,1,76,8,16
29,600,584.917778847739,1,0,1718663.37015689,1718664.41726995,8,1,64,16,8
29,601,506.928152637556,0,0,1718666.07606866,1718667.12314669,8,0,79,8,16
29,602,542.07893810235,1,1,1718668.82904961,1718669.87611609,8,0,88,0,8
29,603,554.330705665052,1,0,1718671.49965814,1718672.54673387,8,1,96,0,8
29,604,430.095334304497,1,0,1718674.14675596,1718675.1938313,8,1,98,0,16
29,605,636.459816945717,1,0,1718676.71148599,1718677.75855748,8,1,78,16,4
29,606,519.005917944014,0,1,1718679.48804118,1718680.535063,8,1,72,16,0
29,607,344.871136825532,1,1,1718682.1822024,1718683.22920883,8,0,69,0,0
29,608,603.162618586794,0,0,1718684.71157684,1718685.75864795,8,0,84,16,16
29,609,538.701290730387,1,0,1718687.42926803,1718688.47633297,8,1,88,16,0
29,610,473.611706402153,1,1,1718690.04106224,1718691.0881241,8,0,88,8,8
29,611,587.749936617911,0,0,1718692.64113938,1718693.68816159,8,0,86,0,0
29,612,915.156154427677,1,0,1718695.31170942,1718696.35878091,8,1,81,4,0
29,613,537.378949578851,1,0,1718698.47644384,1718699.52351687,8,1,66,16,4
29,614,494.207117706537,1,0,1718701.07662839,1718702.12355129,8,1,96,4,4
29,615,515.525870956481,1,0,1718703.79415674,1718704.84122746,8,1,63,0,4
29,616,530.339553486556,0,0,1718706.53537136,1718707.58243245,8,0,85,0,16
29,617,545.284123159945,1,0,1718709.18245224,1718710.22952988,8,1,73,4,4
29,618,634.807564551011,1,0,1718711.91189705,1718712.95896662,8,1,79,8,0
29,619,550.552313914523,1,0,1718714.66487376,1718715.71194256,8,1,79,8,4
29,620,502.611200558022,0,0,1718717.40607914,1718718.45315371,8,0,62,8,4
29,621,706.213203258812,0,0,1718720.10022997,1718721.14730107,8,0,81,4,4
29,622,380.959687288851,1,0,1718722.93555829,1718723.98267136,8,1,68,16,0
29,623,583.683978999034,1,0,1718725.3708733,1718726.41795441,8,1,75,16,0
29,624,585.322757950053,0,0,1718728.05326896,1718729.10033352,8,0,80,0,16
29,625,661.598537815735,1,0,1718730.78272148,1718731.82979181,8,1,98,8,8
29,626,677.040861686692,0,0,1718733.55921007,1718734.60628232,8,0,97,8,0
29,627,579.127195989713,0,0,1718736.40630704,1718737.45337852,8,0,78,16,8
29,628,447.389320703223,0,0,1718739.18280794,1718740.22987327,8,0,76,4,16
29,629,539.776486577466,0,0,1718741.80636963,1718742.85348731,8,0,91,8,4
29,630,772.995075909421,0,0,1718744.51227832,1718745.5593552,8,0,79,16,4
29,631,450.791220646352,1,0,1718747.35937722,1718748.40643523,8,1,76,16,0
29,632,511.725921183825,1,0,1718749.90058498,1718750.94764838,8,1,87,8,4
29,633,722.879318054765,0,0,1718752.51239689,1718753.55945221,8,0,61,0,0
29,634,530.840002931654,0,0,1718755.37123209,1718756.41830588,8,0,64,8,0
29,635,498.794697690755,1,0,1718758.11246595,1718759.15951318,8,1,98,0,4
29,636,492.996415821835,0,0,1718760.73604188,1718761.78307641,8,0,76,4,8
29,637,530.82768432796,1,0,1718763.37133218,1718764.41839366,8,1,63,4,0
29,638,429.261508863419,1,0,1718766.00665096,1718767.0537236,8,1,67,16,8
29,639,527.364190435037,0,0,1718768.6537457,1718769.70081334,8,0,76,0,0
29,640,1337.36901776865,0,0,1718771.31259252,1718772.35966478,8,0,67,4,8
29,641,532.726311590523,1,0,1718777.9832719,1718779.0303353,9,1,74,8,16
29,642,552.697316510603,0,0,1718780.68926412,1718781.73624476,9,0,68,0,8
29,643,634.416444227099,1,0,1718783.37156161,1718784.4186281,9,1,72,16,0
29,644,571.309793973342,0,0,1718786.17159403,1718787.21866397,9,0,65,8,8
29,645,541.794067248702,0,0,1718788.85403627,1718789.90105309,9,0,73,0,8
29,646,499.452596064657,1,1,1718791.48930231,1718792.53636918,9,0,80,16,0
29,647,460.196587024257,0,0,1718794.23052963,1718795.27758187,9,0,69,16,4
29,648,556.435672333464,0,0,1718796.79524888,1718797.84230997,9,0,69,4,0
29,649,398.065427551046,0,0,1718799.47762375,1718800.52469562,9,0,73,8,0
29,650,559.137328295037,1,0,1718802.0776497,1718803.12472696,9,1,64,0,4
29,651,587.625979213044,0,0,1718804.71298619,1718805.7600519,9,0,62,16,8
29,652,353.507351130247,1,0,1718807.56008239,1718808.60714425,9,1,79,0,4
29,653,430.640439270064,1,0,1718810.01895239,1718811.06599577,9,1,63,4,16
29,654,776.560969417915,0,0,1718812.57189722,1718813.61896717,9,0,98,8,16
29,655,532.836795551702,1,0,1718815.52487078,1718816.57194958,9,1,69,0,16
29,656,667.702093720436,1,0,1718818.17196783,1718819.21903431,9,1,100,4,16
29,657,488.148217089474,1,0,1718820.9014138,1718821.94848451,9,1,83,4,4
29,658,461.455024313182,1,0,1718823.52497549,1718824.57203889,9,1,83,4,0
29,659,399.361976189539,1,0,1718826.1249945,1718827.17207176,9,1,64,4,8
29,660,485.120499273762,1,0,1718828.76032445,1718829.8073917,9,1,77,16,16
29,661,659.927422180772,1,0,1718831.34861794,1718832.39567133,9,1,92,16,16
29,662,499.408710282296,1,0,1718834.23097888,1718835.27804959,9,1,77,0,16
29,663,439.015264855698,1,0,1718836.80747485,1718837.85455635,9,1,94,0,16
29,664,606.946014799178,1,0,1718839.31339517,1718840.3605217,9,1,99,8,4
29,665,594.392438186333,0,0,1718841.98401025,1718843.03107481,9,0,73,8,16
29,666,869.810448028147,0,0,1718844.66639321,1718845.71346816,9,0,100,8,4
29,667,527.669464470819,0,0,1718847.70172377,1718848.74879256,9,0,61,16,0
29,668,623.187132878229,1,0,1718850.28999147,1718851.3370618,9,1,70,4,0
29,669,565.488799242303,1,0,1718853.00767072,1718854.05473258,9,1,79,4,8
29,670,722.047032788396,0,0,1718855.64299027,1718856.69006369,9,0,99,16,8
29,671,692.816176917404,0,0,1718858.52538663,1718859.57246543,9,0,99,16,0
29,672,658.986192662269,1,0,1718861.44306311,1718862.49013421,9,1,74,4,4
29,673,710.34306450747,0,0,1718864.31368042,1718865.36075846,9,0,94,8,0
29,674,615.029810229316,0,0,1718867.19607524,1718868.24314518,9,0,67,8,16
29,675,546.1679934524,1,0,1718869.91375372,1718870.96082367,9,1,63,8,8
29,676,808.618978364393,0,0,1718872.63142643,1718873.6784983,9,0,72,16,16
29,677,373.956092400476,1,0,1718875.50203759,1718876.54911716,9,1,79,0,0
29,678,685.94231386669,0,0,1718878.0550163,1718879.10212744,9,0,96,8,0
29,679,1161.48959379643,0,0,1718880.84328893,1718881.89036234,9,0,77,16,8
29,680,551.731064217165,0,0,1718884.14922164,1718885.19628004,9,0,92,8,0
29,681,493.404858978465,0,0,1718886.83160036,1718887.87866183,9,0,91,8,4
29,682,391.255853231996,0,1,1718889.49044949,1718890.53751482,9,1,92,4,0
29,683,523.703981423751,1,0,1718892.05518915,1718893.10225794,9,1,64,8,16
29,684,1.16413226351142,1,1,1718894.77286147,1718895.81998262,9,0,90,4,4
29,685,478.329787962139,0,0,1718896.94939841,1718897.99643179,9,0,92,4,4
29,686,549.433232285082,0,0,1718899.50232977,1718900.54939395,9,0,84,4,16
29,687,478.039912413806,1,0,1718902.13765856,1718903.18472736,9,1,87,0,4
29,688,547.493028920144,1,0,1718904.8553332,1718905.90240777,9,1,88,16,8
29,689,762.908328790218,0,0,1718907.49066777,1718908.53772462,9,0,84,0,4
29,690,926.459378097206,0,0,1718910.31422514,1718911.3612974,9,0,92,4,16
29,691,857.769253896549,0,0,1718913.33780747,1718914.38486433,9,0,63,8,8
29,692,1324.39352362417,1,0,1718916.37311955,1718917.42018834,9,1,93,0,8
29,693,1822.54609605297,0,0,1718919.87903448,1718920.9261102,9,0,69,8,8
29,694,994.821130530909,0,0,1718923.90261565,1718924.94969445,9,0,88,4,4
29,695,677.274147979915,1,0,1718927.03206839,1718928.07913179,9,1,100,16,4
29,696,557.430026354268,0,0,1718929.84386021,1718930.89092708,9,0,93,4,8
29,697,779.535562731326,0,0,1718932.5497816,1718933.59684077,9,0,82,8,4
29,698,986.748114228249,1,0,1718935.50274938,1718936.54981625,9,1,94,4,16
29,699,909.061067504808,1,0,1718938.63219828,1718939.67927015,9,1,84,0,0
29,700,472.584245726466,0,0,1718941.60870103,1718942.65577637,9,0,61,8,8
29,701,611.637149238959,0,0,1718944.31461973,1718945.36168544,9,0,94,16,8
29,702,494.16438722983,0,0,1718947.13818558,1718948.18524936,9,0,99,0,0
29,703,532.949588960037,0,0,1718949.78527608,1718950.83234372,9,0,92,0,4
29,704,384.028980974108,0,0,1718952.44413484,1718953.49119824,9,0,96,8,4
29,705,465.09906463325,0,1,1718954.89121541,1718955.9382842,9,1,91,16,16
29,706,429.849344305694,1,0,1718957.53835942,1718958.58537394,9,1,73,0,0
29,707,446.237517287955,1,0,1718960.11480459,1718961.16187299,9,1,87,0,8
29,708,537.643803050742,1,0,1718962.6795273,1718963.72661034,9,1,89,0,16
29,709,441.079425625503,0,0,1718965.45604746,1718966.50311971,9,0,65,4,8
29,710,471.323113422841,0,1,1718968.07960299,1718969.12667409,9,1,91,16,4
29,711,755.280712386593,1,0,1718970.72669041,1718971.77376421,9,1,82,16,0
29,712,586.384864989668,1,1,1718973.72672852,1718974.77380116,9,0,67,0,8
29,713,539.332626620308,1,0,1718976.47970485,1718977.52677133,9,1,94,0,0
29,714,705.411714501679,1,0,1718979.24443904,1718980.29151553,9,1,88,16,16
29,715,862.23287624307,1,0,1718982.1856528,1718983.2327266,9,1,91,16,4
29,716,528.959083603695,0,0,1718985.27982234,1718986.32687843,9,0,74,4,0
29,717,690.758175682276,1,0,1718987.97395584,1718989.02106159,9,1,80,16,4
29,718,585.52909665741,1,0,1718990.76222077,1718991.80931612,9,1,71,8,0
29,719,533.209052635357,1,0,1718993.53872706,1718994.58579778,9,1,78,4,8
29,720,508.292454527691,0,0,1718996.30345856,1718997.35053582,9,0,64,0,16
