sub_id,Trial,RT,Resp,Error,Fix_onset,Disp_onset,block,tid,tloc,fish_setsize,bird_setsize
39,1,337.2276033,0,0,608585.0404,608586.0875,1,0,75,8,16
39,2,441.730278,1,0,608587.558,608588.6051,1,1,66,8,0
39,3,358.2246099,1,0,608590.2403,608591.2873,1,1,67,0,0
39,4,314.3581394,0,0,608592.7932,608593.8402,1,0,65,8,0
39,5,338.9283675,1,0,608595.3225,608596.3696,1,1,86,4,8
39,6,346.6768914,1,0,608597.7578,608598.8048,1,1,97,4,16
39,7,378.6984524,1,1,608600.2519,608601.2989,1,0,79,0,0
39,8,315.6073426,1,1,608602.84,608603.887,1,0,98,4,4
39,9,337.8250651,1,0,608605.3576,608606.4046,1,1,80,0,0
39,10,287.3434001,0,1,608607.7693,608608.8163,1,1,76,0,16
39,11,361.257729,1,0,608610.1692,608611.2163,1,1,91,4,4
39,12,334.2984241,1,1,608612.6633,608613.7103,1,0,77,8,16
39,13,376.4029214,0,0,608615.2279,608616.2749,1,0,81,0,16
39,14,344.3178416,1,1,608617.7691,608618.8161,1,0,77,4,16
39,15,368.6470831,0,0,608620.2748,608621.3219,1,0,86,4,8
39,16,341.7347436,1,0,608622.7336,608623.7806,1,1,89,8,16
39,17,392.3107245,0,0,608625.263,608626.31,1,0,63,16,16
39,18,388.8872535,1,0,608627.8394,608628.8864,1,1,96,8,4
39,19,293.9116292,0,0,608630.2864,608631.3334,1,0,93,4,16
39,20,345.5316281,0,1,608632.6628,608633.7098,1,1,96,16,4
39,21,382.3590603,1,0,608635.1451,608636.1921,1,1,88,0,8
39,22,335.6242349,0,0,608637.7685,608638.8156,1,0,66,0,8
39,23,289.373692,0,0,608640.2979,608641.3449,1,0,63,0,4
39,24,303.0379339,0,0,608642.7213,608643.7684,1,0,76,0,8
39,25,269.5696839,1,0,608645.1566,608646.2036,1,1,64,4,4
39,26,347.4683743,0,1,608647.4977,608648.5447,1,1,83,0,4
39,27,514.4889498,1,0,608650.0976,608651.1447,1,1,69,16,8
39,28,507.8063867,0,0,608652.7094,608653.7564,1,0,83,16,0
39,29,433.1652487,0,1,608655.321,608656.3681,1,1,71,16,4
39,30,373.3647978,0,1,608657.9327,608658.9798,1,1,98,8,4
39,31,390.0952655,1,0,608660.3562,608661.4032,1,1,90,8,4
39,32,321.0830484,1,1,608662.9091,608663.9561,1,0,97,16,16
39,33,365.8949865,1,0,608665.4031,608666.4502,1,1,80,16,16
39,34,385.3575328,1,1,608668.0148,608669.0619,1,0,90,0,0
39,35,304.1728032,0,1,608670.5559,608671.603,1,1,77,4,16
39,36,332.5761021,0,1,608672.9794,608674.0264,1,1,95,4,8
39,37,435.9562264,0,0,608675.3911,608676.4381,1,0,91,16,4
39,38,314.7962267,1,1,608677.9323,608678.9793,1,0,64,16,8
39,39,537.9281581,0,1,608680.3792,608681.4263,1,1,78,16,16
39,40,430.1040274,0,0,608683.1439,608684.1909,1,0,85,0,8
39,41,385.8960952,0,1,608685.6733,608686.7203,1,1,93,4,0
39,42,446.3024769,0,0,608688.2026,608689.2496,1,0,69,16,8
39,43,429.8253144,1,0,608690.8143,608691.8613,1,1,67,16,4
39,44,547.3096927,0,0,608693.3436,608694.3906,1,0,91,4,0
39,45,354.0700951,0,0,608696.1318,608697.1788,1,0,94,4,4
39,46,353.8583659,0,0,608698.567,608699.6141,1,0,95,8,0
39,47,380.2702541,1,0,608701.0728,608702.1199,1,1,88,0,4
39,48,448.6449735,1,0,608703.5434,608704.5904,1,1,85,4,4
39,49,471.0744253,0,0,608706.1198,608707.1668,1,0,67,0,16
39,50,367.2708423,0,0,608708.7668,608709.8138,1,0,76,4,0
39,51,452.9619423,0,0,608711.3432,608712.3902,1,0,83,16,8
39,52,506.7627535,0,0,608713.849,608714.896,1,0,89,0,16
39,53,391.6713018,1,0,608716.5313,608717.5783,1,1,85,8,16
39,54,328.1532687,0,0,608719.0488,608720.0959,1,0,74,0,4
39,55,606.5569526,1,0,608721.5194,608722.5664,1,1,100,8,4
39,56,342.5985994,0,0,608724.3311,608725.3781,1,0,84,8,0
39,57,472.5368976,0,0,608726.9192,608727.9663,1,0,64,8,4
39,58,350.5346002,0,0,608729.5662,608730.6133,1,0,74,16,16
39,59,341.812506,0,0,608732.0721,608733.1191,1,0,82,8,16
39,60,446.7813703,0,1,608734.5779,608735.6249,1,1,89,4,8
39,61,429.5454468,1,0,608737.2131,608738.2601,1,1,80,0,8
39,62,404.5348219,0,0,608739.8601,608740.9071,1,0,65,8,8
39,63,368.8437989,1,1,608742.5189,608743.5659,1,0,89,8,8
39,64,353.806011,0,0,608745.06,608746.107,1,0,87,8,0
39,65,374.5289242,0,0,608747.554,608748.601,1,0,85,4,8
39,66,464.2690592,0,1,608750.0834,608751.1304,1,1,72,16,0
39,67,588.215417,1,0,608752.6833,608753.7303,1,1,96,16,4
39,68,421.7591964,1,0,608755.4479,608756.495,1,1,88,4,0
39,69,452.104246,1,0,608758.0126,608759.0596,1,1,66,8,8
39,70,372.5101812,1,0,608760.6243,608761.6713,1,1,77,16,0
39,71,567.1148555,1,0,608763.1654,608764.2124,1,1,70,16,0
39,72,547.0379093,0,0,608765.8594,608766.9065,1,0,62,8,8
39,73,615.1928151,1,0,608768.5653,608769.6123,1,1,93,4,16
39,74,442.7219413,0,0,608771.3417,608772.3887,1,0,76,4,0
39,75,557.0838891,1,0,608774.0004,608775.0474,1,1,73,16,8
39,76,547.3185469,1,0,608776.7533,608777.8003,1,1,62,16,0
39,77,422.0914191,1,0,608779.5415,608780.5885,1,1,72,0,4
39,78,499.7695257,1,0,608782.0826,608783.1296,1,1,100,0,0
39,79,1001.152311,0,0,608784.7413,608785.7883,1,0,82,8,8
39,80,453.435446,0,0,608787.9059,608788.953,1,0,87,0,16
39,81,523.7657747,1,0,608812.9994,608814.0465,2,1,96,0,8
39,82,539.7297823,0,0,608815.7523,608816.7994,2,0,69,16,0
39,83,433.3688938,1,0,608818.364,608819.411,2,1,75,0,8
39,84,632.4649249,0,0,608820.9757,608822.0227,2,0,81,0,4
39,85,609.3229078,1,0,608823.658,608824.705,2,1,98,4,4
39,86,659.8854148,1,0,608826.3874,608827.4344,2,1,83,8,0
39,87,608.9140776,0,0,608829.199,608830.2464,2,0,88,4,4
39,88,496.383781,0,0,608832.0107,608833.0578,2,0,87,16,8
39,89,568.278982,1,0,608834.693,608835.7401,2,1,92,4,0
39,90,571.4395237,0,0,608837.4577,608838.5047,2,0,90,8,8
39,91,490.4376512,0,1,608840.2576,608841.3046,2,1,81,4,8
39,92,469.4398748,0,0,608842.8575,608843.9046,2,0,85,0,16
39,93,567.9028737,1,0,608845.4222,608846.4692,2,1,93,0,16
39,94,482.0377706,0,0,608848.0809,608849.128,2,0,74,16,4
39,95,470.8130357,0,0,608850.6691,608851.7161,2,0,97,0,8
39,96,492.7543551,0,0,608853.2573,608854.3043,2,0,76,16,0
39,97,466.9045121,1,0,608855.9043,608856.9513,2,1,66,4,16
39,98,459.4131429,1,0,608858.4924,608859.5395,2,1,98,4,16
39,99,484.1827814,1,0,608861.0218,608862.0688,2,1,97,4,8
39,100,551.1546975,0,0,608863.6217,608864.6687,2,0,89,0,4
39,101,528.0958322,0,0,608866.3628,608867.4099,2,0,88,16,0
39,102,435.6771286,1,0,608869.0804,608870.1274,2,1,70,4,8
39,103,456.860842,0,0,608871.6921,608872.7392,2,0,72,16,16
39,104,459.3315308,0,0,608874.3626,608875.4096,2,0,79,0,0
39,105,400.7221538,0,0,608877.0802,608878.1272,2,0,75,8,4
39,106,778.3899435,1,0,608879.6213,608880.6683,2,1,83,4,0
39,107,502.8765576,1,0,608882.4918,608883.5389,2,1,96,8,8
39,108,516.0280295,0,0,608885.1859,608886.2329,2,0,78,8,16
39,109,469.0310445,0,0,608887.9388,608888.9858,2,0,64,0,0
39,110,506.7546692,1,0,608890.4799,608891.527,2,1,64,8,16
39,111,450.8527331,0,1,608893.174,608894.2209,2,1,91,8,8
39,112,569.6255806,0,0,608895.7621,608896.8091,2,0,77,16,16
39,113,487.4176208,0,0,608898.5385,608899.5855,2,0,87,8,0
39,114,435.1620488,1,0,608901.1267,608902.1737,2,1,64,0,0
39,115,419.5930128,0,0,608903.7031,608904.7501,2,0,84,4,4
39,116,542.9973435,0,1,608906.2207,608907.2677,2,1,69,0,0
39,117,585.5137506,0,0,608908.8912,608909.9382,2,0,88,16,16
39,118,536.5607714,0,0,608911.597,608912.644,2,0,95,16,16
39,119,625.5417605,1,0,608914.291,608915.3381,2,1,74,8,4
39,120,511.5874878,0,0,608917.138,608918.1851,2,0,67,4,16
39,121,626.0918718,1,0,608919.7144,608920.7615,2,1,61,0,0
39,122,486.9625951,1,0,608922.5497,608923.5968,2,1,77,4,4
39,123,558.7111255,1,0,608925.2908,608926.3378,2,1,85,8,8
39,124,646.3586045,1,0,608928.0201,608929.0671,2,1,86,8,0
39,125,471.4339802,1,0,608930.8671,608931.9141,2,1,98,16,8
39,126,702.7078671,1,0,608933.4788,608934.5258,2,1,82,16,0
39,127,562.774019,1,1,608936.4199,608937.4669,2,0,100,16,8
39,128,578.2699122,0,0,608939.0551,608940.1022,2,0,70,8,4
39,129,509.5525763,0,0,608941.808,608942.855,2,0,78,0,8
39,130,762.5375751,0,0,608944.455,608945.502,2,0,83,8,4
39,131,531.7033153,0,0,608947.4196,608948.4667,2,0,99,4,8
39,132,651.4508878,0,0,608950.0549,608951.1019,2,0,65,8,16
39,133,470.020783,1,0,608952.8313,608953.8783,2,1,75,16,4
39,134,486.1075936,0,0,608955.3724,608956.4194,2,0,97,0,4
39,135,707.3089383,0,0,608958.09,608959.137,2,0,82,8,4
39,136,514.9747723,0,0,608960.9134,608961.9605,2,0,78,4,16
39,137,499.3949572,1,0,608963.678,608964.7251,2,1,61,0,16
39,138,483.1876535,1,0,608966.2662,608967.3132,2,1,85,0,4
39,139,502.0723711,1,0,608969.0073,608970.0544,2,1,69,4,0
39,140,802.5397925,1,0,608971.7367,608972.7837,2,1,92,16,16
39,141,473.8007293,0,0,608974.7366,608975.7836,2,0,79,0,16
39,142,587.0920966,1,0,608977.36,608978.4071,2,1,70,4,0
39,143,703.0543332,1,0,608980.0541,608981.1011,2,1,81,8,16
39,144,698.2057313,1,0,608982.9482,608983.9952,2,1,69,8,8
39,145,705.127741,0,0,608985.8422,608986.8892,2,0,100,16,8
39,146,640.5999513,1,0,608988.7245,608989.7715,2,1,71,4,0
39,147,562.181177,0,0,608991.5009,608992.5479,2,0,71,16,4
39,148,648.8077355,0,0,608994.2773,608995.3243,2,0,96,8,0
39,149,714.2578952,1,0,608996.9949,608998.0419,2,1,95,16,4
39,150,597.9722901,1,0,608999.783,609000.8301,2,1,76,16,8
39,151,468.5925724,0,0,609002.5124,609003.5594,2,0,98,8,16
39,152,507.474549,1,1,609005.0417,609006.0888,2,0,95,4,8
39,153,524.7689869,1,0,609007.6534,609008.7005,2,1,86,16,4
39,154,452.1427422,1,0,609010.4181,609011.4651,2,1,96,0,16
39,155,843.4474415,0,0,609012.9356,609013.9827,2,0,93,0,4
39,156,547.7627936,1,0,609015.9473,609016.9944,2,1,72,8,0
39,157,457.2481142,1,0,609018.6179,609019.6649,2,1,75,16,0
39,158,454.7835846,1,0,609021.2413,609022.2884,2,1,76,4,4
39,159,563.0765995,0,0,609023.8648,609024.9118,2,0,74,4,16
39,160,513.1823872,0,0,609026.5118,609027.5588,2,0,72,0,8
39,161,580.5300268,0,0,609057.4051,609058.4522,3,0,99,16,8
39,162,661.8433339,0,0,609060.064,609061.1109,3,0,62,16,16
39,163,538.67537,0,0,609062.8521,609063.8991,3,0,67,4,4
39,164,602.8047235,1,0,609065.452,609066.499,3,1,77,8,4
39,165,489.5614766,1,0,609068.1343,609069.1813,3,1,66,0,0
39,166,557.7606531,1,0,609070.793,609071.8401,3,1,90,8,8
39,167,430.0374289,0,0,609073.4636,609074.5106,3,0,75,4,8
39,168,726.4970063,1,0,609076.087,609077.1341,3,1,100,4,4
39,169,495.3193599,0,0,609078.9693,609080.0163,3,0,75,8,0
39,170,676.7775669,1,0,609081.534,609082.581,3,1,90,0,0
39,171,495.6981631,1,0,609084.2751,609085.3221,3,1,66,0,0
39,172,503.5013516,0,0,609086.875,609087.922,3,0,91,16,8
39,173,727.000922,1,0,609089.4868,609090.5338,3,1,70,4,8
39,174,723.9820466,1,0,609092.2866,609093.3337,3,1,76,8,8
39,175,705.9523305,1,0,609095.2395,609096.2865,3,1,82,4,0
39,176,645.1055517,0,0,609098.1335,609099.1806,3,0,70,16,0
39,177,541.6430456,1,0,609100.9688,609102.0158,3,1,69,8,8
39,178,599.9429128,0,0,609103.5805,609104.6275,3,0,89,0,16
39,179,444.7826452,1,1,609106.2628,609107.3098,3,0,90,0,8
39,180,633.4646724,1,0,609108.8392,609109.8862,3,1,74,16,16
39,181,739.4017172,1,0,609111.592,609112.6391,3,1,69,16,4
39,182,502.1951741,0,0,609114.5802,609115.6272,3,0,77,16,8
39,183,726.8965972,1,0,609117.2625,609118.3095,3,1,80,16,0
39,184,657.7296251,0,0,609120.0506,609121.0977,3,0,85,4,16
39,185,468.5821785,0,0,609122.7917,609123.8388,3,0,64,0,4
39,186,848.4026782,0,0,609125.3799,609126.4269,3,0,62,8,4
39,187,602.5714363,0,0,609128.3798,609129.4269,3,0,65,8,4
39,188,571.2901582,0,0,609131.0621,609132.1092,3,0,74,4,0
39,189,527.4136788,1,0,609133.8621,609134.9091,3,1,65,0,4
39,190,630.444642,0,0,609136.5208,609137.5679,3,0,97,4,4
39,191,604.7534035,1,0,609139.3913,609140.4384,3,1,85,16,16
39,192,469.8098237,1,1,609142.0854,609143.1324,3,0,79,8,4
39,193,497.6233601,0,0,609144.7677,609145.8147,3,0,87,8,16
39,194,671.8161708,0,0,609147.4735,609148.5205,3,0,78,4,8
39,195,613.4242975,0,0,609150.2969,609151.344,3,0,72,4,16
39,196,690.983451,1,0,609153.0264,609154.0733,3,1,61,0,4
39,197,480.2615539,1,0,609155.8968,609156.9438,3,1,74,4,8
39,198,653.2505872,1,0,609158.5438,609159.5908,3,1,71,4,16
39,199,608.468676,0,1,609161.2967,609162.3437,3,1,98,4,4
39,200,736.0279063,0,0,609164.1201,609165.1672,3,0,91,16,4
39,201,769.263254,0,0,609166.9318,609167.9789,3,0,82,8,8
39,202,396.1630437,0,0,609169.8729,609170.92,3,0,81,0,16
39,203,512.4702067,0,0,609172.3905,609173.4376,3,0,83,0,8
39,204,994.662614,1,0,609175.0964,609176.1434,3,1,66,0,8
39,205,754.1931291,0,0,609178.1668,609179.2139,3,0,96,0,0
39,206,942.8328105,0,0,609181.0491,609182.0962,3,0,79,16,16
39,207,512.5745315,1,0,609184.0844,609185.1314,3,1,75,8,0
39,208,509.4709643,0,0,609186.8255,609187.8725,3,0,89,0,16
39,209,656.4650235,1,0,609189.4254,609190.4724,3,1,72,4,16
39,210,541.5514245,0,0,609192.3194,609193.3665,3,0,63,16,0
39,211,558.7781088,1,0,609195.037,609196.0841,3,1,67,16,0
39,212,743.3321838,1,0,609197.7546,609198.8016,3,1,61,8,0
39,213,698.486754,0,0,609200.6016,609201.6486,3,0,94,4,4
39,214,563.6698267,1,0,609203.4603,609204.5074,3,1,62,16,16
39,215,649.3455281,0,0,609206.2485,609207.2955,3,0,98,0,4
39,216,670.6539693,1,0,609209.0131,609210.0602,3,1,64,16,8
39,217,477.5433341,1,0,609211.7543,609212.8013,3,1,65,0,16
39,218,564.9733094,1,0,609214.366,609215.413,3,1,61,4,16
39,219,592.0053722,1,0,609217.1188,609218.1659,3,1,64,8,16
39,220,596.7346358,1,0,609219.8482,609220.8952,3,1,72,0,0
39,221,628.4524614,1,0,609222.5422,609223.5892,3,1,73,8,8
39,222,620.1850079,1,0,609225.4127,609226.4598,3,1,75,0,8
39,223,521.2769925,1,0,609228.1774,609229.2244,3,1,86,8,4
39,224,685.7483466,0,0,609230.8479,609231.8949,3,0,93,8,0
39,225,526.1421478,1,0,609233.7655,609234.8125,3,1,72,4,8
39,226,554.6182047,1,0,609236.483,609237.5301,3,1,68,4,0
39,227,485.2860838,0,0,609239.2124,609240.2594,3,0,93,8,16
39,228,773.7326679,0,0,609241.8829,609242.9299,3,0,98,16,4
39,229,545.6435753,0,0,609244.8241,609245.8711,3,0,81,0,8
39,230,455.2913501,1,0,609247.4592,609248.5063,3,1,73,16,4
39,231,529.3615888,0,0,609250.0121,609251.0592,3,0,90,0,4
39,232,656.8819379,1,0,609252.6826,609253.7297,3,1,91,4,0
39,233,679.9777596,0,0,609255.4826,609256.5296,3,0,85,8,16
39,234,409.2633156,0,0,609258.2355,609259.2825,3,0,76,8,0
39,235,491.412761,1,0,609260.753,609261.8001,3,1,96,8,16
39,236,680.5224814,0,0,609263.3059,609264.3529,3,0,76,16,4
39,237,501.3898327,1,0,609266.0941,609267.1411,3,1,83,0,16
39,238,588.3643975,0,0,609268.694,609269.741,3,0,78,16,0
39,239,620.8171163,1,0,609271.4587,609272.5057,3,1,96,16,8
39,240,684.5484186,1,1,609274.188,609275.235,3,0,93,4,0
39,241,438.8538386,0,0,609287.5407,609288.5876,4,0,74,0,16
39,242,525.8183945,0,0,609290.0935,609291.1406,4,0,82,16,8
39,243,615.5192632,0,0,609292.7287,609293.7757,4,0,91,0,8
39,244,869.5617538,1,0,609295.5639,609296.611,4,1,70,4,16
39,245,674.643335,1,0,609298.5168,609299.5638,4,1,72,0,4
39,246,2348.371111,1,0,609301.3991,609302.4461,4,1,80,8,8
39,247,639.281455,1,0,609305.9049,609306.9519,4,1,64,0,0
39,248,658.6061846,1,0,609308.7636,609309.8106,4,1,89,16,0
39,249,462.7207402,1,0,609311.5165,609312.5635,4,1,85,4,8
39,250,531.5058295,1,0,609314.1988,609315.2458,4,1,78,8,16
39,251,718.4459016,1,0,609316.9399,609317.9869,4,1,62,4,8
39,252,580.7394463,1,0,609319.9045,609320.9515,4,1,95,8,4
39,253,527.9091254,0,0,609322.6103,609323.6574,4,0,76,8,8
39,254,476.0978002,0,0,609325.3161,609326.3632,4,0,93,0,0
39,255,749.1736038,0,0,609327.9279,609328.9749,4,0,99,8,4
39,256,729.9374156,0,0,609330.7631,609331.8101,4,0,85,16,8
39,257,462.6972575,1,0,609333.5983,609334.6454,4,1,66,16,16
39,258,509.8054967,0,0,609336.1983,609337.2453,4,0,66,4,4
39,259,1024.918737,0,0,609338.9394,609339.9864,4,0,63,16,16
39,260,606.6620473,0,0,609342.1393,609343.1864,4,0,98,16,4
39,261,550.8709803,1,0,609344.8333,609345.8803,4,1,67,4,0
39,262,633.3426393,0,0,609347.4568,609348.5038,4,0,86,8,0
39,263,967.4299858,0,0,609350.1626,609351.2096,4,0,95,4,4
39,264,557.1962981,0,0,609353.3508,609354.3978,4,0,77,4,0
39,265,800.2423367,0,0,609356.1507,609357.1977,4,0,91,16,0
39,266,613.9078104,1,0,609359.033,609360.08,4,1,71,0,8
39,267,614.1695849,1,0,609361.8329,609362.8799,4,1,77,0,16
39,268,703.5617137,0,0,609364.5622,609365.6093,4,0,98,8,8
39,269,586.1793506,0,0,609367.4328,609368.4798,4,0,100,8,0
39,270,543.6021194,1,0,609370.1503,609371.1974,4,1,94,4,8
39,271,545.5923752,0,0,609372.8562,609373.9032,4,0,68,8,4
39,272,676.139684,1,0,609375.5267,609376.5737,4,1,72,8,16
39,273,602.6438094,1,0,609378.3501,609379.3972,4,1,62,0,8
39,274,690.3594268,0,0,609381.0324,609382.0795,4,0,90,8,4
39,275,698.9094426,0,0,609383.9029,609384.95,4,0,91,4,4
39,276,542.6693555,1,0,609386.7382,609387.7852,4,1,87,4,8
39,277,471.6237667,0,0,609389.444,609390.4911,4,0,83,0,4
39,278,865.4407308,0,0,609392.0674,609393.1145,4,0,90,4,0
39,279,634.3523959,1,0,609395.0203,609396.0673,4,1,85,8,0
39,280,559.6003886,0,0,609397.8791,609398.9261,4,0,82,16,0
39,281,551.4049232,1,0,609400.6555,609401.7025,4,1,76,0,0
39,282,683.049375,1,0,609403.3495,609404.3966,4,1,69,8,16
39,283,716.7647707,1,0,609406.2789,609407.326,4,1,61,4,8
39,284,582.9991759,0,0,609409.1376,609410.1846,4,0,89,16,16
39,285,956.0046854,1,0,609411.8317,609412.8787,4,1,71,16,4
39,286,711.759104,0,0,609414.9728,609416.0198,4,0,98,8,8
39,287,699.4649435,1,0,609417.9021,609418.9491,4,1,62,4,16
39,288,679.2929114,0,0,609420.8314,609421.8785,4,0,85,16,4
39,289,881.4108978,1,0,609423.749,609424.796,4,1,99,4,16
39,290,691.5524255,0,0,609426.7489,609427.796,4,0,78,16,0
39,291,624.2640701,0,0,609429.5724,609430.6194,4,0,62,0,16
39,292,622.7388488,1,0,609432.4429,609433.4899,4,1,98,0,16
39,293,519.4137743,1,0,609435.137,609436.184,4,1,85,8,16
39,294,644.2540148,0,0,609437.7251,609438.7722,4,0,99,16,4
39,295,473.6190269,1,0,609440.4428,609441.4898,4,1,89,0,4
39,296,693.9515114,0,0,609442.9956,609444.0426,4,0,93,4,4
39,297,702.7659965,0,0,609445.8426,609446.8896,4,0,90,8,4
39,298,628.8251051,1,0,609448.6307,609449.6778,4,1,99,16,8
39,299,633.7599386,1,0,609451.4777,609452.5248,4,1,88,8,8
39,300,694.180564,1,0,609454.2071,609455.2541,4,1,65,4,16
39,301,712.5809988,0,0,609456.9717,609458.0188,4,0,81,16,8
39,302,457.59766,1,0,609459.9246,609460.9717,4,1,84,0,4
39,303,662.2163624,0,0,609462.5951,609463.6421,4,0,88,16,8
39,304,692.2634511,1,0,609465.5009,609466.548,4,1,70,0,8
39,305,541.7519899,1,0,609468.3244,609469.3715,4,1,84,8,0
39,306,482.3103241,1,0,609470.995,609472.042,4,1,96,0,0
39,307,532.4674657,0,0,609473.642,609474.6889,4,0,78,0,4
39,308,662.8727234,1,0,609476.2654,609477.3124,4,1,91,8,0
39,309,664.1661973,1,0,609478.9829,609480.03,4,1,78,4,4
39,310,478.1369462,0,0,609481.8652,609482.9123,4,0,76,16,16
39,311,492.6569596,1,0,609484.5946,609485.6416,4,1,90,16,0
39,312,535.5710329,1,0,609487.1827,609488.2298,4,1,87,4,0
39,313,472.8371683,0,0,609489.8533,609490.9003,4,0,62,0,0
39,314,665.8608019,0,0,609492.4415,609493.4885,4,0,67,8,16
39,315,725.0491625,0,0,609495.359,609496.406,4,0,81,4,16
39,316,666.0355749,0,0,609498.2531,609499.3001,4,0,96,0,8
39,317,684.3882743,0,0,609501.1589,609502.2059,4,0,77,4,0
39,318,628.2257186,1,0,609503.9117,609504.9588,4,1,79,0,16
39,319,766.320601,1,0,609506.6646,609507.7116,4,1,63,16,16
39,320,582.6488601,0,0,609509.6645,609510.7116,4,0,96,16,4
39,321,527.5087645,0,0,609531.0405,609532.0875,5,0,84,16,4
39,322,474.3712435,0,0,609533.7345,609534.7816,5,0,67,0,16
39,323,452.7536776,1,0,609536.2992,609537.3462,5,1,95,8,8
39,324,485.4254401,0,0,609538.8285,609539.8756,5,0,66,0,16
39,325,734.1489047,0,0,609541.4638,609542.5108,5,0,61,0,8
39,326,703.866604,1,0,609544.4049,609545.4519,5,1,61,16,8
39,327,1331.26107,1,0,609547.3107,609548.3577,5,1,80,0,8
39,328,678.3824753,0,0,609550.8753,609551.9223,5,0,70,0,0
39,329,885.9522997,1,0,609553.64,609554.687,5,1,98,4,8
39,330,712.3658048,0,0,609556.6046,609557.6516,5,0,72,16,0
39,331,1587.488993,0,0,609559.5221,609560.5692,5,0,62,8,16
39,332,561.832016,0,0,609563.2279,609564.275,5,0,64,8,8
39,333,662.1859503,1,0,609565.8867,609566.9337,5,1,71,16,4
39,334,670.4857408,0,0,609568.7572,609569.8042,5,0,82,8,16
39,335,534.4892885,1,0,609571.4983,609572.5454,5,1,69,0,16
39,336,450.9385797,0,1,609574.1688,609575.2159,5,1,81,16,16
39,337,604.2945283,0,0,609576.7452,609577.7923,5,0,83,4,16
39,338,553.8898557,0,0,609579.5216,609580.5687,5,0,64,8,8
39,339,593.6595559,1,0,609582.3099,609583.3569,5,1,61,4,16
39,340,635.4225915,0,0,609584.9803,609586.0274,5,0,84,8,4
39,341,683.7138201,1,0,609587.7568,609588.8038,5,1,69,16,8
39,342,690.2574117,0,0,609590.5684,609591.6155,5,0,94,8,0
39,343,606.4757254,0,0,609593.3331,609594.3801,5,0,99,0,4
39,344,732.3503601,0,0,609596.0271,609597.0742,5,0,69,16,16
39,345,757.6924377,1,0,609598.9447,609599.9918,5,1,69,8,8
39,346,883.9685883,1,0,609601.9446,609602.9917,5,1,77,4,0
39,347,574.439921,1,0,609605.074,609606.121,5,1,95,8,16
39,348,651.5586772,0,0,609607.8268,609608.8739,5,0,69,16,4
39,349,728.4691689,0,0,609610.6621,609611.7091,5,0,92,4,8
39,350,551.3591127,0,0,609613.462,609614.509,5,0,94,8,4
39,351,611.7970613,0,0,609616.1796,609617.2266,5,0,67,16,4
39,352,684.9202923,0,0,609618.9795,609620.0266,5,0,61,16,0
39,353,740.111588,1,0,609621.7441,609622.7912,5,1,88,16,8
39,354,541.9140591,1,0,609624.7205,609625.7676,5,1,76,0,8
39,355,716.628879,1,0,609627.4146,609628.4616,5,1,75,16,0
39,356,526.2664907,0,0,609630.3792,609631.4262,5,0,84,4,8
39,357,861.3651334,0,0,609633.085,609634.1321,5,0,79,4,16
39,358,481.378715,0,0,609636.085,609637.132,5,0,66,0,0
39,359,551.8291518,1,0,609638.6614,609639.7085,5,1,93,0,4
39,360,593.432813,0,0,609641.3319,609642.3789,5,0,79,16,16
39,361,546.7241649,1,0,609644.0965,609645.1436,5,1,87,4,0
39,362,654.6553151,0,0,609646.8847,609647.9317,5,0,72,0,8
39,363,762.6426698,0,0,609649.7317,609650.7905,5,0,93,16,16
39,364,829.850953,0,0,609652.5905,609653.6375,5,0,89,0,4
39,365,587.7881086,1,0,609655.6374,609656.6844,5,1,95,8,4
39,366,484.473813,0,1,609658.3197,609659.3667,5,1,79,8,4
39,367,764.5836504,0,0,609660.9667,609662.0137,5,0,71,4,8
39,368,631.2118723,0,0,609663.9078,609664.9548,5,0,92,0,0
39,369,900.5689388,1,0,609666.6607,609667.7077,5,1,90,4,0
39,370,680.2622469,1,0,609669.6488,609670.6959,5,1,88,0,4
39,371,768.8613532,0,0,609672.5311,609673.5782,5,0,76,8,0
39,372,560.9389031,1,0,609675.4722,609676.5193,5,1,95,16,0
39,373,663.7392738,1,0,609678.2251,609679.2722,5,1,94,8,4
39,374,744.7095794,1,0,609680.9544,609682.0015,5,1,99,4,8
39,375,819.7406844,1,0,609683.7662,609684.8132,5,1,92,4,4
39,376,884.4617251,1,0,609686.7896,609687.8366,5,1,93,4,0
39,377,952.6851543,1,0,609689.9072,609690.9542,5,1,92,8,0
39,378,802.0709082,1,0,609693.0718,609694.1188,5,1,93,4,4
39,379,622.3311736,0,0,609695.9776,609697.0246,5,0,95,0,0
39,380,1041.725812,0,0,609698.8011,609699.8481,5,0,64,8,0
39,381,898.9536364,1,0,609702.0598,609703.1068,5,1,79,16,4
39,382,1487.494998,1,0,609705.1774,609706.2244,5,1,65,16,16
39,383,622.6568519,1,0,609708.7774,609709.8243,5,1,70,4,4
39,384,578.8796927,1,0,609711.4831,609712.5301,5,1,96,4,4
39,385,583.3306285,1,0,609714.2595,609715.3065,5,1,94,0,0
39,386,942.0548014,1,0,609717.0477,609718.0947,5,1,81,4,16
39,387,543.7149134,0,0,609720.1299,609721.177,5,0,66,0,4
39,388,635.0183808,1,0,609722.8358,609723.8828,5,1,87,16,0
39,389,559.4306203,1,0,609725.7063,609726.7533,5,1,87,0,16
39,390,531.0858355,0,0,609728.3415,609729.3885,5,0,88,8,8
39,391,590.3354051,1,0,609730.9885,609732.0355,5,1,63,8,0
39,392,482.1401706,1,0,609733.8237,609734.8708,5,1,65,0,8
39,393,560.7572008,1,0,609736.506,609737.5531,5,1,70,16,8
39,394,656.0673574,0,0,609739.2707,609740.3177,5,0,91,4,0
39,395,621.0738863,0,0,609742.0706,609743.1176,5,0,98,4,4
39,396,506.2430542,0,0,609744.9293,609745.9764,5,0,94,16,8
39,397,1338.938761,1,0,609747.5528,609748.5998,5,1,77,0,16
39,398,948.6249554,0,0,609751.0939,609752.1409,5,0,80,4,16
39,399,633.4123176,1,1,609754.1291,609755.1762,5,0,69,8,16
39,400,696.8641372,0,0,609756.8937,609757.9409,5,0,98,8,16
39,401,694.241773,1,0,609781.8931,609782.9402,6,1,73,16,0
39,402,487.312911,0,0,609784.7872,609785.8342,6,0,74,8,4
39,403,589.6174503,0,0,609787.4577,609788.5047,6,0,91,0,0
39,404,697.7045102,0,0,609790.2106,609791.2576,6,0,72,8,8
39,405,536.2447172,1,0,609793.034,609794.0811,6,1,64,0,16
39,406,539.5180529,1,0,609795.6457,609796.6928,6,1,75,0,4
39,407,908.1958147,0,0,609798.3751,609799.4221,6,0,81,16,8
39,408,675.7273893,1,0,609801.4927,609802.5397,6,1,88,4,8
39,409,642.0347064,1,0,609804.3161,609805.3632,6,1,82,8,4
39,410,683.1479253,1,0,609807.1631,609808.2101,6,1,98,4,0
39,411,771.3917112,1,0,609810.0689,609811.116,6,1,64,4,4
39,412,659.4846689,0,0,609812.963,609814.01,6,0,75,8,8
39,413,905.2400731,1,0,609815.7041,609816.7511,6,1,78,8,0
39,414,1186.571011,1,0,609818.7746,609819.8216,6,1,80,16,4
39,415,670.2536084,0,0,609822.198,609823.2451,6,0,74,16,8
39,416,531.2783167,1,0,609825.0097,609826.0568,6,1,70,8,16
39,417,769.477293,0,0,609827.6097,609828.6567,6,0,100,16,8
39,418,605.9410127,1,0,609830.5861,609831.6331,6,1,76,8,16
39,419,685.9265843,1,0,609833.2684,609834.3154,6,1,67,16,4
39,420,558.8370082,1,0,609836.1742,609837.2212,6,1,82,0,4
39,421,487.5762253,0,0,609838.9506,609839.9976,6,0,83,4,16
39,422,939.6634146,0,0,609841.6093,609842.6563,6,0,73,4,0
39,423,651.8739613,1,0,609844.6093,609845.6563,6,1,76,8,4
39,424,593.2091498,1,0,609847.4209,609848.468,6,1,93,0,8
39,425,668.8758277,1,0,609850.1033,609851.1503,6,1,96,4,0
39,426,666.5017644,1,0,609852.9855,609854.0325,6,1,71,0,16
39,427,569.9581881,1,0,609855.7031,609856.7501,6,1,76,4,8
39,428,707.7859066,1,0,609858.503,609859.5501,6,1,92,8,8
39,429,526.8435493,1,0,609861.35,609862.397,6,1,76,8,16
39,430,460.8340394,0,0,609863.997,609865.044,6,0,95,0,8
39,431,630.7476076,0,0,609866.6793,609867.7263,6,0,68,0,16
39,432,532.5583168,0,0,609869.4792,609870.5263,6,0,80,0,0
39,433,617.3054889,1,0,609872.1615,609873.2085,6,1,96,0,8
39,434,472.6608555,0,0,609875.0203,609876.0673,6,0,65,0,16
39,435,616.7696213,1,0,609877.5849,609878.632,6,1,74,0,0
39,436,985.3176507,1,0,609880.3025,609881.3495,6,1,80,16,16
39,437,807.7198471,1,0,609883.373,609884.42,6,1,98,8,0
39,438,655.548043,1,0,609886.3023,609887.3494,6,1,84,16,16
39,439,581.1255636,0,0,609889.1258,609890.1728,6,0,94,16,4
39,440,560.2656037,0,0,609891.8434,609892.8904,6,0,86,16,0
39,441,529.8358625,1,0,609894.5139,609895.5609,6,1,98,4,4
39,442,673.1508357,1,0,609897.2197,609898.2668,6,1,61,4,8
39,443,512.48753,0,0,609900.1373,609901.1843,6,0,74,4,0
39,444,670.4141377,1,0,609902.8902,609903.9372,6,1,62,8,4
39,445,472.727839,0,0,609905.796,609906.843,6,0,76,16,4
39,446,622.8439435,1,0,609908.4548,609909.5018,6,1,69,16,8
39,447,674.110932,1,0,609911.2076,609912.2546,6,1,76,4,4
39,448,627.6525095,1,0,609914.0899,609915.1369,6,1,61,8,0
39,449,587.1113447,0,0,609916.8075,609917.8545,6,0,67,4,4
39,450,457.8167036,0,0,609919.5956,609920.6427,6,0,63,16,8
39,451,771.7762887,0,0,609922.2897,609923.3367,6,0,90,16,0
39,452,539.2666723,0,0,609925.3131,609926.3602,6,0,62,16,16
39,453,527.8663946,0,0,609928.0895,609929.1366,6,0,96,4,0
39,454,520.3068871,0,0,609930.7483,609931.7953,6,0,80,0,0
39,455,554.8418679,0,0,609933.4777,609934.5247,6,0,91,16,0
39,456,545.8121889,1,0,609936.1247,609937.1717,6,1,72,4,16
39,457,598.2117368,0,0,609938.7363,609939.7834,6,0,93,8,8
39,458,560.4295977,1,0,609941.501,609942.548,6,1,67,16,16
39,459,612.4049171,0,0,609944.148,609945.195,6,0,79,4,4
39,460,537.9347024,0,0,609946.9244,609947.9714,6,0,93,8,0
39,461,506.6796016,0,0,609949.6067,609950.6537,6,0,76,8,16
39,462,456.2887878,0,0,609952.1831,609953.2301,6,0,74,4,16
39,463,458.7806496,0,0,609954.7595,609955.8065,6,0,77,8,4
39,464,664.6951356,1,0,609957.4418,609958.4888,6,1,81,0,8
39,465,381.1795354,0,0,609960.1711,609961.2181,6,0,74,8,16
39,466,535.8539803,0,0,609962.7946,609963.8416,6,0,65,4,8
39,467,406.4138235,0,0,609965.571,609966.618,6,0,86,0,16
39,468,425.7339336,1,0,609968.1475,609969.1945,6,1,78,0,8
39,469,555.7045687,1,0,609970.7826,609971.8296,6,1,85,0,0
39,470,551.8395458,1,0,609973.5355,609974.5825,6,1,84,0,4
39,471,744.5417357,0,0,609976.3119,609977.3589,6,0,89,16,4
39,472,619.7319072,0,0,609979.1236,609980.1706,6,0,70,4,16
39,473,783.8313876,0,0,609981.9824,609983.0294,6,0,81,4,8
39,474,536.9661368,0,0,609984.9352,609985.9822,6,0,64,4,16
39,475,682.4218861,1,0,609987.5469,609988.5939,6,1,95,16,0
39,476,590.9397962,1,0,609990.3233,609991.3703,6,1,63,8,8
39,477,404.5140339,0,0,609993.1468,609994.1938,6,0,73,8,0
39,478,537.9616497,1,0,609995.6173,609996.6643,6,1,76,16,16
39,479,486.8775185,0,0,609998.3702,609999.4172,6,0,64,0,4
39,480,484.2563092,0,0,610000.9819,610002.0289,6,0,85,0,4
39,481,534.597848,0,1,610021.5814,610022.6284,7,1,87,16,16
39,482,771.2773774,0,0,610024.2636,610025.3107,7,0,61,8,8
39,483,665.9324048,0,0,610027.2401,610028.2871,7,0,93,8,16
39,484,530.4814444,1,0,610030.1223,610031.1694,7,1,74,0,4
39,485,565.8059833,1,0,610032.7341,610033.7811,7,1,77,8,16
39,486,721.3215712,1,0,610035.4046,610036.4516,7,1,81,16,16
39,487,574.6370216,0,0,610038.2633,610039.3103,7,0,76,16,16
39,488,589.4934923,0,0,610040.9574,610042.0044,7,0,73,16,4
39,489,675.8097713,0,0,610043.7691,610044.8161,7,0,68,16,0
39,490,558.110584,0,1,610046.6396,610047.6866,7,1,94,16,8
39,491,544.0028653,1,0,610049.3807,610050.4277,7,1,87,0,4
39,492,848.9474,0,0,610052.016,610053.0629,7,0,93,8,16
39,493,699.1396502,1,0,610055.0276,610056.0746,7,1,98,0,16
39,494,790.4331086,1,0,610057.8393,610058.8863,7,1,92,16,0
39,495,574.2089435,0,0,610060.7804,610061.8274,7,0,75,0,0
39,496,689.2257124,1,0,610063.5215,610064.5685,7,1,71,8,8
39,497,709.5817565,0,0,610066.3332,610067.3802,7,0,67,4,8
39,498,805.660683,1,0,610069.192,610070.239,7,1,90,4,0
39,499,844.3020582,1,0,610072.2154,610073.2624,7,1,83,16,8
39,500,623.8332971,0,0,610075.1448,610076.1918,7,0,74,0,4
39,501,887.7508444,0,0,610077.8388,610078.8858,7,0,90,0,16
39,502,601.9782093,0,0,610080.8388,610081.8858,7,0,68,16,8
39,503,780.8171317,0,0,610083.6387,610084.6858,7,0,82,0,16
39,504,480.6607601,1,0,610086.6151,610087.6621,7,1,76,0,0
39,505,524.3397537,0,0,610089.1562,610090.2032,7,0,85,4,4
39,506,628.3666148,0,0,610091.909,610092.9561,7,0,71,0,16
39,507,553.5676422,1,0,610094.6619,610095.709,7,1,75,4,16
39,508,636.4693043,1,0,610097.3089,610098.3559,7,1,92,16,4
39,509,516.2170461,0,0,610100.0383,610101.0853,7,0,78,0,8
39,510,542.0857524,1,0,610102.6264,610103.6735,7,1,65,4,16
39,511,843.7065212,1,0,610105.2618,610106.3087,7,1,89,8,0
39,512,758.6225071,1,0,610108.3087,610109.3557,7,1,63,8,8
39,513,834.5571188,1,0,610111.238,610112.285,7,1,65,8,4
39,514,1032.541764,1,0,610114.2967,610115.3438,7,1,99,16,0
39,515,861.677338,0,0,610117.4496,610118.4966,7,0,71,4,4
39,516,718.5359829,0,0,610120.3789,610121.426,7,0,84,4,16
39,517,910.981018,1,0,610123.2495,610124.2965,7,1,76,0,8
39,518,535.5845066,1,0,610126.2847,610127.3317,7,1,63,0,0
39,519,744.8824275,0,0,610129.0376,610130.0846,7,0,90,16,8
39,520,722.3478811,0,0,610131.861,610132.908,7,0,99,8,0
39,521,921.7703603,1,0,610134.7315,610135.7786,7,1,74,16,8
39,522,1203.511284,1,0,610137.8726,610138.9197,7,1,90,0,8
39,523,560.1447255,1,0,610141.249,610142.296,7,1,74,0,4
39,524,555.8081236,1,0,610143.9313,610144.9783,7,1,77,0,4
39,525,667.6493373,1,0,610146.7077,610147.7547,7,1,99,8,0
39,526,572.2610335,1,0,610149.4841,610150.5311,7,1,85,0,8
39,527,518.5868749,1,0,610152.2605,610153.3075,7,1,78,4,0
39,528,973.107027,0,0,610154.931,610155.9781,7,0,70,4,4
39,529,609.4664987,0,0,610157.9898,610159.0368,7,0,68,4,8
39,530,1024.452548,0,0,610160.6838,610161.7309,7,0,84,4,16
39,531,712.9112966,0,0,610163.9661,610165.0131,7,0,93,16,4
39,532,781.4823468,0,0,610166.7896,610167.8366,7,0,100,16,0
39,533,1035.403189,1,0,610169.6836,610170.7306,7,1,75,16,4
39,534,920.3771813,1,0,610172.9306,610173.9776,7,1,100,16,4
39,535,774.775916,0,0,610176.0952,610177.1423,7,0,85,8,0
39,536,722.7697998,0,0,610179.0363,610180.0834,7,0,73,0,8
39,537,544.8624865,0,0,610181.848,610182.895,7,0,75,4,0
39,538,943.2697429,0,0,610184.5538,610185.6009,7,0,88,4,0
39,539,594.1723258,0,0,610187.6008,610188.6479,7,0,85,8,4
39,540,582.8548149,0,0,610190.389,610191.436,7,0,82,4,8
39,541,612.9334704,1,0,610193.1772,610194.2242,7,1,74,8,4
39,542,652.1699976,1,0,610195.9418,610196.9888,7,1,78,8,8
39,543,715.9936909,0,0,610198.6829,610199.7299,7,0,100,8,0
39,544,553.5653324,0,0,610201.5064,610202.5534,7,0,68,8,8
39,545,476.6567656,0,0,610204.1181,610205.1651,7,0,78,8,16
39,546,746.2170923,1,0,610206.8356,610207.8827,7,1,92,16,16
39,547,744.4747523,1,0,610209.7415,610210.8003,7,1,92,4,0
39,548,798.0007003,1,0,610212.7178,610213.7649,7,1,72,0,0
39,549,640.6938821,0,0,610215.706,610216.7531,7,0,75,4,4
39,550,608.601873,0,0,610218.4001,610219.4471,7,0,89,8,4
39,551,544.0097946,0,0,610221.2118,610222.2588,7,0,100,4,16
39,552,991.6672212,0,0,610223.9999,610225.047,7,0,62,4,8
39,553,582.0533232,1,0,610227.1528,610228.1998,7,1,64,8,4
39,554,566.76146,1,0,610229.941,610230.988,7,1,66,4,4
39,555,459.4458647,0,0,610232.6232,610233.6703,7,0,76,4,8
39,556,629.0337547,1,0,610235.3055,610236.3526,7,1,98,0,0
39,557,719.5749965,0,0,610238.129,610239.176,7,0,73,16,0
39,558,523.2464604,0,0,610241.0113,610242.0583,7,0,68,16,16
39,559,557.4653869,1,0,610243.7171,610244.7641,7,1,73,8,16
39,560,478.4814876,1,0,610246.4112,610247.4582,7,1,76,0,16
39,561,493.3841537,1,0,610266.493,610267.54,8,1,67,4,0
39,562,468.5359829,0,0,610269.2341,610270.2811,8,0,75,16,8
39,563,477.4751958,0,0,610271.8811,610272.9281,8,0,62,0,4
39,564,582.85366,0,0,610274.4458,610275.4928,8,0,64,16,0
39,565,534.8623171,1,0,610277.1045,610278.1516,8,1,75,0,8
39,566,547.8324718,0,0,610279.7516,610280.7986,8,0,83,16,16
39,567,990.0965744,1,0,610282.4103,610283.4573,8,1,80,4,16
39,568,810.5658744,1,0,610285.6219,610286.669,8,1,81,4,4
39,569,505.5316436,0,0,610288.5748,610289.6218,8,0,98,0,4
39,570,676.2998285,1,0,610291.2571,610292.3041,8,1,95,16,8
39,571,938.1054717,1,0,610293.9982,610295.0452,8,1,98,16,8
39,572,617.1441897,0,0,610297.0922,610298.1393,8,0,75,4,4
39,573,925.7239247,1,0,610299.7746,610300.8216,8,1,63,16,16
39,574,546.8103965,0,0,610302.8803,610303.9274,8,0,94,4,4
39,575,584.1729264,1,0,610305.5862,610306.6332,8,1,90,16,0
39,576,795.9530851,1,0,610308.2332,610309.2802,8,1,80,16,0
39,577,744.8185238,0,0,610311.2214,610312.2684,8,0,74,16,4
39,578,473.2975834,0,0,610314.0918,610315.1389,8,0,86,8,0
39,579,882.1080648,1,0,610316.6682,610317.7153,8,1,91,8,8
39,580,672.3227814,0,0,610319.6799,610320.727,8,0,70,8,8
39,581,742.2873958,1,0,610322.4328,610323.4798,8,1,68,8,4
39,582,564.547541,0,1,610325.2916,610326.3386,8,1,80,0,8
39,583,532.3065515,0,0,610328.068,610329.115,8,0,78,0,8
39,584,698.7770156,1,0,610330.6914,610331.7385,8,1,88,8,8
39,585,935.7264038,0,0,610333.6325,610334.6796,8,0,93,8,0
39,586,715.635291,1,0,610336.7266,610337.7736,8,1,72,8,0
39,587,627.1416643,1,0,610339.55,610340.5971,8,1,100,8,16
39,588,531.5647288,0,0,610342.2677,610343.3147,8,0,70,16,4
39,589,515.3951512,0,0,610344.9146,610345.9616,8,0,66,4,16
39,590,549.407353,0,0,610347.6675,610348.7145,8,0,89,8,8
39,591,639.7849858,1,0,610350.4322,610351.4791,8,1,77,0,8
39,592,492.6815972,0,0,610353.3262,610354.3732,8,0,75,0,0
39,593,418.4123329,1,0,610355.9496,610356.9967,8,1,76,16,4
39,594,422.3528085,0,0,610358.5025,610359.5495,8,0,65,16,16
39,595,518.6118975,1,0,610361.1142,610362.1612,8,1,87,4,4
39,596,686.8662776,0,0,610363.8201,610364.8671,8,0,92,16,16
39,597,631.4674873,1,1,610366.6435,610367.6905,8,0,96,0,16
39,598,470.595147,0,0,610369.5022,610370.5493,8,0,87,0,0
39,599,671.6872085,0,0,610372.114,610373.1611,8,0,89,16,4
39,600,685.5370023,1,0,610374.9845,610376.0315,8,1,70,4,16
39,601,949.5561796,1,0,610377.7844,610378.8314,8,1,68,0,0
39,602,611.9937771,1,0,610380.9137,610381.9608,8,1,85,16,16
39,603,690.3001425,0,0,610383.6784,610384.7254,8,0,74,0,4
39,604,587.9775102,0,0,610386.5489,610387.5959,8,0,98,0,0
39,605,471.8293366,0,0,610389.29,610390.337,8,0,77,8,16
39,606,535.4401456,0,0,610391.9252,610392.9722,8,0,79,4,0
39,607,726.5816979,1,0,610394.5722,610395.6192,8,1,68,4,0
39,608,643.832866,1,0,610397.3839,610398.4309,8,1,96,8,4
39,609,550.1233833,1,0,610400.2427,610401.2897,8,1,90,16,0
39,610,575.9216413,0,0,610402.9367,610403.9837,8,0,67,8,4
39,611,710.5264543,1,0,610405.6543,610406.7013,8,1,83,4,0
39,612,744.6903313,1,0,610408.5601,610409.6071,8,1,77,4,8
39,613,496.2390352,0,0,610411.3953,610412.4424,8,0,95,4,8
39,614,584.6907009,0,0,610414.0188,610415.0658,8,0,92,0,16
39,615,512.364727,1,0,610416.7364,610417.7834,8,1,86,4,16
39,616,780.7255107,0,0,610419.454,610420.501,8,0,92,16,8
39,617,790.3788289,1,0,610422.4421,610423.4891,8,1,77,8,0
39,618,830.1400598,1,0,610425.4773,610426.5244,8,1,61,16,0
39,619,744.0412845,1,0,610428.5126,610429.5596,8,1,85,4,8
39,620,698.5502727,0,0,610431.489,610432.536,8,0,91,0,4
39,621,575.474315,0,0,610434.4301,610435.4771,8,0,72,0,16
39,622,637.8189826,0,0,610437.2535,610438.3005,8,0,84,16,4
39,623,908.796741,0,0,610440.1358,610441.1828,8,0,79,8,16
39,624,897.4522828,0,0,610443.2298,610444.2769,8,0,70,16,8
39,625,798.6266493,1,0,610446.3709,610447.418,8,1,99,0,8
39,626,533.2127531,0,0,610449.3121,610450.3591,8,0,70,8,16
39,627,578.1682822,1,0,610452.0061,610453.0531,8,1,74,0,0
39,628,876.6185003,1,0,610454.8178,610455.8648,8,1,95,8,4
39,629,607.5520804,1,0,610457.7589,610458.8059,8,1,85,4,8
39,630,627.9932013,1,0,610460.5824,610461.6294,8,1,80,4,16
39,631,665.1158995,0,0,610463.3941,610464.4411,8,0,81,0,16
39,632,625.2711318,0,0,610466.2881,610467.3351,8,0,69,0,16
39,633,726.7337581,1,0,610469.1704,610470.2174,8,1,99,4,8
39,634,472.0526148,1,0,610472.0762,610473.1232,8,1,87,8,16
39,635,498.0629872,0,1,610474.6761,610475.7232,8,1,89,8,4
39,636,533.386756,0,0,610477.3819,610478.429,8,0,87,4,0
39,637,787.8600196,1,0,610480.0525,610481.0995,8,1,82,4,4
39,638,522.9596633,1,0,610483.0642,610484.1112,8,1,79,0,4
39,639,595.2201936,0,0,610485.6759,610486.7229,8,0,80,8,8
39,640,782.5209755,0,0,610488.4405,610489.4875,8,0,61,8,0
39,641,600.7490242,1,0,610504.5813,610505.6283,9,1,87,8,0
39,642,961.9966259,1,0,610507.3342,610508.3812,9,1,83,4,0
39,643,595.3306778,1,0,610510.4047,610511.4517,9,1,77,0,8
39,644,573.8366847,0,0,610513.0752,610514.1223,9,0,75,16,0
39,645,479.1674906,1,0,610515.7339,610516.781,9,1,88,16,16
39,646,1074.869539,1,0,610518.428,610519.475,9,1,81,8,4
39,647,805.1309747,1,0,610521.5809,610522.6279,9,1,81,4,0
39,648,617.5407009,1,0,610524.6043,610525.6513,9,1,62,0,8
39,649,643.0290643,1,0,610527.369,610528.416,9,1,93,16,0
39,650,738.6029201,0,0,610530.1454,610531.1924,9,0,86,8,0
39,651,850.4125669,1,0,610532.9923,610534.0394,9,1,61,8,0
39,652,725.2054572,1,0,610536.0276,610537.0746,9,1,89,0,4
39,653,438.6960041,0,0,610538.851,610539.8981,9,0,76,4,8
39,654,682.4854049,1,0,610541.3804,610542.4274,9,1,73,0,16
39,655,662.742991,1,0,610544.145,610545.1921,9,1,94,8,0
39,656,602.6896199,0,0,610547.0391,610548.0861,9,0,96,8,0
39,657,664.2774513,0,0,610549.8155,610550.8625,9,0,92,8,16
39,658,761.2491058,0,0,610552.7095,610553.7565,9,0,88,0,4
39,659,704.5514522,1,0,610555.6271,610556.6741,9,1,71,4,8
39,660,645.1667608,1,0,610558.5447,610559.5917,9,1,62,16,16
39,661,735.9917199,0,0,610561.2858,610562.3328,9,0,93,0,16
39,662,503.9663863,0,0,610564.2386,610565.2857,9,0,78,4,4
39,663,601.5686092,1,0,610566.8621,610567.9091,9,1,89,0,8
39,664,743.8253206,0,0,610569.6738,610570.7208,9,0,89,4,8
39,665,782.6822748,0,0,610572.6619,610573.709,9,0,67,4,16
39,666,664.2370302,1,0,610575.6384,610576.6854,9,1,88,0,4
39,667,998.6554445,0,0,610578.4501,610579.4971,9,0,100,8,4
39,668,788.0378723,0,0,610581.6735,610582.7205,9,0,80,8,16
39,669,669.3316232,0,0,610584.6852,610585.7322,9,0,98,0,0
39,670,577.7505978,0,0,610587.4969,610588.5439,9,0,68,0,0
39,671,749.7441182,0,0,610590.2968,610591.3439,9,0,64,8,16
39,672,792.9446036,0,0,610593.2027,610594.2497,9,0,96,16,8
39,673,864.9398948,0,0,610596.1084,610597.1555,9,0,66,16,0
39,674,799.1759906,0,0,610599.2025,610600.2495,9,0,90,16,8
39,675,621.3733871,1,0,610602.2142,610603.2612,9,1,89,16,4
39,676,619.2965148,1,0,610604.9671,610606.0141,9,1,75,16,8
39,677,533.5041696,0,0,610607.6729,610608.7199,9,0,98,8,16
39,678,550.340887,0,0,610610.3552,610611.4022,9,0,87,8,4
39,679,713.9918862,1,0,610613.1316,610614.1786,9,1,69,8,8
39,680,577.6620565,0,0,610616.0727,610617.1197,9,0,99,4,4
39,681,671.9632265,1,0,610618.7785,610619.8255,9,1,94,16,8
39,682,1051.589705,1,0,610621.5196,610622.5666,9,1,87,0,8
39,683,498.3567136,0,0,610624.7901,610625.8371,9,0,87,8,8
39,684,557.7225419,1,0,610627.5077,610628.5547,9,1,98,4,16
39,685,566.638272,0,0,610630.2606,610631.3076,9,0,99,16,16
39,686,674.3499936,0,0,610632.9311,610633.9781,9,0,83,4,8
39,687,677.4554857,0,0,610635.6957,610636.7427,9,0,85,16,16
39,688,601.325313,1,0,610638.578,610639.625,9,1,90,0,8
39,689,743.7294651,1,0,610641.3544,610642.4014,9,1,62,4,0
39,690,526.9113028,1,0,610644.2014,610645.2484,9,1,88,8,8
39,691,773.7161145,1,0,610646.8366,610647.8836,9,1,95,0,4
39,692,507.3998664,0,0,610649.6718,610650.7189,9,0,96,4,0
39,693,739.6708059,0,0,610652.4365,610653.4835,9,0,90,16,16
39,694,658.3805967,0,0,610655.4246,610656.4717,9,0,94,16,0
39,695,499.2686897,0,0,610658.154,610659.201,9,0,79,4,4
39,696,616.7877144,1,0,610660.7774,610661.8245,9,1,81,0,16
39,697,450.0062007,0,0,610663.5421,610664.5891,9,0,68,0,0
39,698,529.7835076,1,0,610666.0714,610667.1185,9,1,75,0,16
39,699,788.1491265,0,0,610668.8361,610669.8831,9,0,81,4,16
39,700,1126.67201,0,0,610671.8242,610672.8713,9,0,81,8,8
39,701,1442.233424,1,0,610675.0006,610676.0477,9,1,79,4,0
39,702,768.4667666,1,0,610678.6005,610679.6476,9,1,87,16,8
39,703,821.4556921,1,0,610681.6005,610682.6475,9,1,89,16,4
39,704,519.6486014,1,0,610684.6122,610685.6592,9,1,70,4,8
39,705,683.9975375,1,0,610687.2121,610688.2591,9,1,74,4,4
39,706,614.546848,1,0,610690.0944,610691.1414,9,1,72,16,4
39,707,598.044663,1,0,610692.9649,610694.0119,9,1,80,0,4
39,708,585.4933475,0,0,610695.6825,610696.7295,9,0,79,8,16
39,709,510.9222727,0,0,610698.5059,610699.553,9,0,100,4,16
39,710,731.1947029,0,1,610701.1176,610702.1647,9,1,71,16,4
39,711,555.3011281,0,0,610703.9646,610705.0117,9,0,97,16,4
39,712,737.8149021,0,0,610706.6351,610707.6822,9,0,83,16,0
39,713,462.5648304,0,0,610709.4704,610710.5174,9,0,95,0,16
39,714,625.4578385,1,0,610712.0703,610713.1173,9,1,97,8,4
39,715,562.9299288,1,0,610714.8349,610715.882,9,1,65,4,16
39,716,552.9393835,0,0,610717.5408,610718.5878,9,0,75,4,4
39,717,542.7798396,0,0,610720.176,610721.223,9,0,88,8,8
39,718,583.3429473,1,0,610722.8583,610723.9053,9,1,98,0,0
39,719,521.9991821,0,0,610725.5406,610726.5876,9,0,77,0,0
39,720,615.3506496,1,0,610728.2464,610729.2934,9,1,83,8,4
