sub_id,Trial,RT,Resp,Error,Fix_onset,Disp_onset,block,tid,tloc,fish_setsize,bird_setsize
33,1,631.33344380185,1,0,1805441.25846879,1805442.3055345,1,1,90,4,4
33,2,367.829975439236,0,0,1805444.09380058,1805445.14086629,1,0,92,4,4
33,3,519.548094831407,0,0,1805446.5291179,1805447.57618939,1,0,71,4,8
33,4,673.819275107235,0,0,1805449.18803209,1805450.2350443,1,0,80,0,0
33,5,612.54003434442,1,0,1805451.97624428,1805453.023315,1,1,66,0,8
33,6,413.989489665255,0,0,1805454.65862185,1805455.70570026,1,0,85,0,4
33,7,1015.26155462489,1,0,1805457.12923585,1805458.17631273,1,1,87,16,8
33,8,430.786491138861,1,0,1805460.30580089,1805461.35282926,1,1,67,4,16
33,9,572.586860973388,1,0,1805462.84695784,1805463.8940324,1,1,86,8,8
33,10,579.854923998937,1,0,1805465.51758986,1805466.56465403,1,1,95,4,4
33,11,636.888815322891,0,0,1805468.31760379,1805469.36471955,1,0,83,8,8
33,12,582.898425403982,0,0,1805471.16471116,1805472.21178111,1,0,95,8,0
33,13,642.397606745362,1,0,1805473.80002494,1805474.84710874,1,1,98,0,8
33,14,562.853893265128,1,0,1805476.51771074,1805477.56478145,1,1,84,16,16
33,15,649.656045483425,0,0,1805479.22368217,1805480.27073287,1,0,79,8,0
33,16,503.987587755546,0,0,1805481.98836555,1805483.03544319,1,0,76,8,16
33,17,395.268837921321,0,0,1805484.60016783,1805485.64723008,1,0,86,0,0
33,18,638.857890618965,1,0,1805487.18842552,1805488.23554128,1,1,82,0,4
33,19,686.944904038683,0,0,1805489.94141147,1805490.98851491,1,0,99,0,16
33,20,634.007767541334,1,0,1805492.6943751,1805493.74148546,1,1,74,8,8
33,21,401.079053757712,0,0,1805495.40028725,1805496.44736066,1,0,85,16,16
33,22,481.527040479705,1,0,1805497.97678746,1805499.02386203,1,1,69,16,16
33,23,408.461065264419,0,0,1805500.51800138,1805501.56507787,1,0,91,4,16
33,24,418.324534781277,0,0,1805503.02391554,1805504.07097932,1,0,94,16,16
33,25,526.613668305799,0,0,1805505.49452608,1805506.54160488,1,0,63,16,4
33,26,471.083049662411,0,0,1805508.1651504,1805509.21222497,1,0,76,16,8
33,27,484.960122499615,1,0,1805510.82400685,1805511.87108681,1,1,97,8,16
33,28,497.151066083461,1,0,1805513.43580105,1805514.48287446,1,1,83,0,4
33,29,613.602141849697,0,0,1805516.10642114,1805517.15349763,1,0,75,4,0
33,30,826.673029223457,0,0,1805518.81233945,1805519.85940825,1,0,78,4,0
33,31,776.699322042987,0,0,1805521.87120999,1805522.91827571,1,0,94,4,8
33,32,673.186399508268,1,0,1805524.89476922,1805525.94183224,1,1,71,16,16
33,33,672.490005148575,1,0,1805527.71832621,1805528.76539731,1,1,91,4,8
33,34,443.880938226357,1,0,1805530.4831066,1805531.53014421,1,1,94,4,16
33,35,712.770395213738,1,0,1805533.03603834,1805534.08311329,1,1,87,4,8
33,36,499.317626468837,1,0,1805535.96549348,1805537.01256535,1,1,63,8,0
33,37,493.090112926438,1,0,1805538.65964122,1805539.70670771,1,1,62,16,4
33,38,494.405909674242,1,0,1805541.33025785,1805542.37733126,1,1,68,4,4
33,39,571.438907645643,0,0,1805544.02441368,1805545.0714817,1,0,91,16,0
33,40,629.017903469503,1,0,1805546.76563714,1805547.81269631,1,1,81,8,16
33,41,703.528637532145,0,0,1805549.49506425,1805550.54213458,1,0,68,16,8
33,42,456.929959822446,1,0,1805552.30691035,1805553.35394064,1,1,78,0,0
33,43,407.407042104751,1,0,1805554.98925211,1805556.03632591,1,1,65,0,4
33,44,626.282370882109,0,0,1805557.5422212,1805558.58928691,1,0,73,8,0
33,45,426.948045380414,1,0,1805560.27171221,1805561.3188222,1,1,86,16,0
33,46,384.759788634256,0,0,1805562.85993256,1805563.90700328,1,0,93,16,0
33,47,491.857082815841,0,0,1805565.42466721,1805566.47175448,1,0,86,0,0
33,48,533.279652474448,0,0,1805568.14234685,1805569.18941795,1,0,88,0,16
33,49,373.383037280291,1,0,1805570.90708835,1805571.95416215,1,1,95,0,8
33,50,625.680676894262,1,0,1805573.33068554,1805574.37773893,1,1,63,16,0
33,51,538.806921802461,0,0,1805576.18950265,1805577.23663842,1,0,72,8,4
33,52,587.739694630727,0,0,1805578.9307265,1805579.97777104,1,0,87,8,16
33,53,581.264651147649,1,0,1805581.76603712,1805582.81311746,1,1,79,0,16
33,54,510.702077066526,0,0,1805584.48372715,1805585.53079748,1,0,64,16,8
33,55,398.081362713128,1,0,1805587.20140872,1805588.24848136,1,1,67,0,0
33,56,522.621623240411,1,0,1805589.78966371,1805590.83675175,1,1,96,16,4
33,57,595.200238050893,0,0,1805592.56617963,1805593.61324342,1,0,86,16,8
33,58,655.479349894449,0,0,1805595.38974894,1805596.43681196,1,0,71,16,4
33,59,407.551017357036,1,0,1805598.29566179,1805599.34272866,1,1,64,4,8
33,60,426.710139494389,1,0,1805600.90746023,1805601.95452324,1,1,76,4,0
33,61,373.875787248835,1,0,1805603.4133971,1805604.46050015,1,1,75,8,4
33,62,549.459176603705,0,0,1805606.00163323,1805607.0487101,1,0,70,0,8
33,63,608.18150639534,1,0,1805608.78990123,1805609.83697849,1,1,72,8,8
33,64,421.194033697248,0,0,1805611.58993519,1805612.63701014,1,0,83,8,4
33,65,431.792779127136,1,0,1805614.16644348,1805615.21351151,1,1,66,0,16
33,66,676.094009308144,0,0,1805616.79000864,1805617.83707589,1,0,100,4,16
33,67,512.079467298463,0,0,1805619.60179891,1805620.64886963,1,0,67,8,16
33,68,498.426826903597,0,0,1805622.27242208,1805623.31949819,1,0,65,8,4
33,69,459.257048787549,0,0,1805625.00186882,1805626.04893608,1,0,74,8,4
33,70,412.909673992544,0,0,1805627.60189862,1805628.64897742,1,0,65,0,16
33,71,371.444374090061,1,0,1805630.1313439,1805631.17842077,1,1,97,0,4
33,72,756.679042475298,1,0,1805632.59023584,1805633.63727114,1,1,62,4,0
33,73,463.498163968325,0,0,1805635.43728931,1805636.48436465,1,0,78,0,8
33,74,510.617000516504,1,0,1805638.09614615,1805639.14321609,1,1,96,4,4
33,75,580.922035733238,0,0,1805640.81382733,1805641.86089804,1,0,100,8,8
33,76,669.474605936557,0,0,1805643.48444972,1805644.53152121,1,0,80,4,0
33,77,663.573924219236,1,0,1805646.29624886,1805647.34331803,1,1,82,4,16
33,78,469.446580624208,0,0,1805649.20216786,1805650.24924012,1,0,67,16,4
33,79,862.19376209192,1,0,1805651.93161999,1805652.97868339,1,1,85,16,0
33,80,557.383212959394,1,0,1805654.89635526,1805655.94342405,1,1,98,8,0
33,81,456.480710534379,0,0,1805672.16715874,1805673.21422869,2,0,87,8,8
33,82,587.700043339282,1,0,1805674.79072967,1805675.83780347,2,1,80,16,8
33,83,458.693851251155,0,0,1805677.53193235,1805678.57900422,2,0,99,4,16
33,84,770.863699028268,0,0,1805680.20255359,1805681.24962354,2,0,71,8,4
33,85,901.131408521906,1,0,1805683.06141074,1805684.10848068,2,1,84,16,4
33,86,670.139433350414,0,0,1805686.17909792,1805687.22617018,2,0,97,8,16
33,87,613.180224783719,1,0,1805689.0732683,1805690.120319,2,1,96,16,0
33,88,370.595919899642,1,0,1805691.8968099,1805692.94388138,2,1,86,4,8
33,89,479.417839553207,0,0,1805694.44978245,1805695.49685856,2,0,89,8,16
33,90,399.76056246087,1,0,1805697.10863775,1805698.15571154,2,1,97,4,4
33,91,355.955854756758,0,0,1805699.67343514,1805700.72045428,2,0,86,8,8
33,92,580.150959081948,0,0,1805702.19105827,1805703.23812745,2,0,64,16,4
33,93,371.703452663496,1,1,1805704.92050347,1805705.96757188,2,0,100,8,0
33,94,517.037379322574,1,0,1805707.54405977,1805708.5911328,2,1,75,4,8
33,95,573.353318497539,0,0,1805710.26174711,1805711.3088213,2,0,69,4,8
33,96,455.5425606668,1,0,1805713.07354547,1805714.12061311,2,1,96,0,8
33,97,404.779298463836,0,0,1805715.74416787,1805716.7912767,2,0,96,8,16
33,98,608.339340426028,1,0,1805718.22655591,1805719.27362547,2,1,82,4,16
33,99,494.508693926036,1,0,1805720.97953339,1805722.02659949,2,1,87,16,16
33,100,586.058954941109,1,0,1805723.55603476,1805724.60310008,2,1,96,16,0
33,101,620.686963200569,1,0,1805726.23841617,1805727.28548535,2,1,69,8,8
33,102,503.61340562813,0,0,1805729.05027266,1805730.09729295,2,0,77,0,0
33,103,438.73247038573,1,0,1805731.70907714,1805732.75615017,2,1,96,0,16
33,104,467.235364951193,0,0,1805734.37970069,1805735.42676756,2,0,76,4,4
33,105,510.848361998796,0,0,1805737.01506798,1805738.06208904,2,0,73,16,8
33,106,628.054346190766,1,0,1805739.77976059,1805740.82683285,2,1,93,16,16
33,107,508.605964249,1,0,1805742.61513781,1805743.66216041,2,1,92,8,0
33,108,534.315582364798,0,0,1805745.19159645,1805746.23866101,2,0,61,0,16
33,109,601.74649907276,0,0,1805747.7798603,1805748.82696451,2,0,91,4,16
33,110,650.187676772475,1,0,1805750.49754494,1805751.54461142,2,1,76,8,4
33,111,463.292594533414,0,0,1805753.20346556,1805754.2505613,2,0,62,0,4
33,112,521.477904170752,0,0,1805755.76818905,1805756.81526939,2,0,77,4,0
33,113,615.586230764166,0,0,1805758.52117154,1805759.56824148,2,0,93,0,4
33,114,661.998279159889,0,0,1805761.35649756,1805762.40357289,2,0,97,8,4
33,115,474.11500220187,1,0,1805764.1565215,1805765.20361531,2,1,67,8,4
33,116,369.717439170927,0,0,1805766.83892409,1805767.88599365,2,0,62,0,0
33,117,542.502931784838,1,0,1805769.43895196,1805770.48603076,2,1,63,8,4
33,118,460.078555624932,1,0,1805772.16840409,1805773.21546788,2,1,67,0,0
33,119,703.739596065134,1,0,1805774.80373365,1805775.8507959,2,1,99,0,16
33,120,405.042611993849,1,0,1805777.67434404,1805778.72142515,2,1,65,0,4
33,121,543.864428764209,0,0,1805780.30968861,1805781.35652769,2,0,63,8,16
33,122,753.515048418194,0,0,1805783.0038275,1805784.050904,2,0,79,16,4
33,123,567.684768233448,1,0,1805785.92152208,1805786.96861166,2,1,97,4,16
33,124,646.189087070525,1,0,1805788.70977353,1805789.75716839,2,1,82,16,0
33,125,553.338428027928,0,0,1805791.45098584,1805792.49805348,2,0,95,4,0
33,126,361.112021841109,1,0,1805794.08631309,1805795.13339189,2,1,70,0,0
33,127,608.139930758625,1,0,1805796.63931913,1805797.68635366,2,1,62,16,16
33,128,428.290019277483,1,0,1805799.45108939,1805800.49816511,2,1,81,8,0
33,129,530.131441541016,1,0,1805802.109952,1805803.15701771,2,1,77,4,0
33,130,520.766881294549,0,0,1805804.83939682,1805805.8864837,2,0,87,0,16
33,131,897.993591614068,0,0,1805807.60413139,1805808.65120365,2,0,61,4,8
33,132,451.383827254176,1,0,1805810.67476442,1805811.72183321,2,1,64,16,8
33,133,489.499581977725,1,0,1805813.2277335,1805814.27480884,2,1,80,0,4
33,134,541.180976200849,1,0,1805815.81600621,1805816.86315238,2,1,72,16,0
33,135,642.05306652002,0,0,1805818.52190874,1805819.568986,2,0,87,16,4
33,136,496.758406050503,1,0,1805821.25135432,1805822.2984389,2,1,83,4,4
33,137,524.154152721167,0,0,1805823.82787455,1805824.87493873,2,0,97,8,0
33,138,414.012972265482,1,0,1805826.42788895,1805827.47495582,2,1,64,0,4
33,139,399.286290630698,1,0,1805828.94556559,1805829.99264131,2,1,75,0,16
33,140,574.023535475135,0,0,1805831.52216589,1805832.56914768,2,0,71,0,8
33,141,421.260247239843,0,0,1805834.23955662,1805835.28682578,2,0,94,4,4
33,142,383.545236894861,0,0,1805836.76919341,1805837.81629146,2,0,65,0,8
33,143,666.051147971302,0,0,1805839.298636,1805840.34572173,2,0,96,0,8
33,144,521.408226108179,1,0,1805842.20461968,1805843.25162534,2,1,97,16,16
33,145,569.480226142332,0,0,1805844.9693069,1805846.01639379,2,0,74,16,0
33,146,706.124429125339,0,0,1805847.65176338,1805848.69876019,2,0,78,8,8
33,147,616.051648277789,0,0,1805850.54585831,1805851.59294943,2,0,96,4,0
33,148,402.048770571128,0,0,1805853.25153485,1805854.29887506,2,0,75,16,8
33,149,348.893360933289,1,0,1805855.80472339,1805856.85179641,2,1,77,4,16
33,150,531.672825338319,1,0,1805858.34597696,1805859.3930138,2,1,78,8,16
33,151,511.702590389177,0,0,1805861.00458543,1805862.05188295,2,0,71,16,4
33,152,472.53088792786,0,1,1805863.68718788,1805864.73425782,2,1,91,4,4
33,153,474.604910938069,1,0,1805866.34607589,1805867.43996917,2,1,72,0,8
33,154,462.645090185106,0,0,1805869.11076966,1805870.15788311,2,0,93,4,0
33,155,490.679487353191,0,0,1805871.75787633,1805872.80493588,2,0,62,16,8
33,156,497.690396383405,1,0,1805874.31084696,1805875.35790882,2,1,62,16,16
33,157,464.4112912938,0,0,1805877.07537489,1805878.12269344,2,0,64,4,8
33,158,532.608717214316,1,0,1805879.74625705,1805880.79307095,2,1,61,8,8
33,159,471.864523366094,0,0,1805882.36976062,1805883.41665463,2,0,76,0,0
33,160,568.921262864023,1,0,1805884.93450296,1805885.98158369,2,1,95,8,0
33,161,483.02030400373,0,0,1805913.27602224,1805914.32312067,3,0,85,16,0
33,162,569.257333874702,1,0,1805915.99372228,1805917.04078645,3,1,90,8,16
33,163,504.680132493377,0,0,1805918.71139768,1805919.75846686,3,0,96,4,4
33,164,564.235903089866,0,0,1805921.346713,1805922.39379912,3,0,80,4,0
33,165,394.73605202511,1,0,1805924.02911059,1805925.07621287,3,1,66,16,0
33,166,671.534146880731,0,0,1805926.5585755,1805927.60563967,3,0,93,8,8
33,167,408.070714911446,1,0,1805929.34696669,1805930.39389574,3,1,89,4,4
33,168,396.759021794423,1,0,1805931.87631843,1805932.9233364,3,1,65,8,0
33,169,497.469044057652,1,0,1805934.46452492,1805935.5116041,3,1,81,0,8
33,170,495.673970784992,0,0,1805937.12337983,1805938.17046171,3,0,95,0,16
33,171,463.643294293433,0,0,1805939.82931546,1805940.87638233,3,0,75,16,4
33,172,420.116913272068,1,0,1805942.46443233,1805943.5117065,3,1,75,8,8
33,173,475.478149019182,0,0,1805945.07641651,1805946.12349993,3,0,83,8,0
33,174,450.109991477802,0,0,1805947.75880986,1805948.80588828,3,0,83,0,4
33,175,463.24100997299,0,0,1805950.41767055,1805951.46473395,3,0,94,8,4
33,176,471.047248225659,0,0,1805953.12370088,1805954.17065996,3,0,66,0,0
33,177,383.324654307216,0,0,1805955.6883135,1805956.7354027,3,0,85,0,8
33,178,575.511024566367,0,0,1805958.288356,1805959.33542633,3,0,62,4,4
33,179,448.03235726431,1,0,1805961.02956676,1805962.07664787,3,1,76,4,8
33,180,689.375162590295,0,0,1805963.65313038,1805964.70019879,3,0,78,8,8
33,181,645.687483018264,0,0,1805966.57080725,1805967.6178745,3,0,91,8,4
33,182,641.288534039631,1,0,1805969.30025591,1805970.34732702,3,1,81,0,0
33,183,643.700314685702,1,0,1805972.12385179,1805973.17090095,3,1,69,16,0
33,184,589.851975208148,1,0,1805974.82974007,1805975.87681118,3,1,94,0,8
33,185,535.075110150501,1,0,1805977.65330438,1805978.7003751,3,1,88,4,8
33,186,515.155690256506,1,0,1805980.35920922,1805981.40628879,3,1,84,16,4
33,187,536.181872943416,1,0,1805983.11219363,1805984.15925973,3,1,96,16,16
33,188,612.537339795381,0,0,1805985.82987019,1805986.87694129,3,0,91,0,16
33,189,373.823817819357,1,0,1805988.59461824,1805989.64168125,3,1,77,16,4
33,190,516.194699797779,1,1,1805991.12405928,1805992.17113962,3,0,100,8,16
33,191,595.700302394107,0,0,1805993.84174008,1805994.88880502,3,0,92,8,16
33,192,550.982082262635,1,0,1805996.61823367,1805997.66531016,3,1,92,0,16
33,193,763.961733784527,0,0,1805999.37121577,1806000.41827763,3,0,87,16,8
33,194,653.904859675094,1,0,1806002.3124457,1806003.35950757,3,1,71,8,4
33,195,542.370505398139,1,0,1806005.19484282,1806006.24188313,3,1,82,4,16
33,196,568.099371157587,1,0,1806007.88896593,1806008.93603588,3,1,95,0,16
33,197,805.987536907196,0,0,1806010.63023637,1806011.67725126,3,0,88,4,16
33,198,704.130331287161,0,0,1806013.54788783,1806014.59493737,3,0,71,4,16
33,199,546.443777158856,1,0,1806016.46556085,1806017.51261077,3,1,88,16,8
33,200,522.477262886241,0,0,1806019.20675891,1806020.25382,3,0,84,16,8
33,201,498.690139967948,1,0,1806021.98326135,1806023.03033938,3,1,75,16,4
33,202,719.361696857959,1,0,1806024.66564661,1806025.71272003,3,1,93,4,8
33,203,738.033458124846,1,0,1806027.60685307,1806028.65392378,3,1,98,4,0
33,204,482.042888179421,1,0,1806030.40689318,1806031.45396159,3,1,95,8,16
33,205,747.801072662696,0,0,1806033.10103823,1806034.14814783,3,0,85,8,0
33,206,538.042389322072,1,0,1806036.06577927,1806037.11286654,3,1,84,0,0
33,207,650.173048255965,0,0,1806038.66583717,1806039.71289557,3,0,71,16,16
33,208,517.697587609291,1,0,1806041.40707604,1806042.45410133,3,1,94,0,8
33,209,456.54653897509,1,0,1806043.99529638,1806045.04235902,3,1,95,0,4
33,210,572.241166140884,0,0,1806046.58355792,1806047.63062864,3,0,64,4,8
33,211,528.820649487898,1,0,1806049.407123,1806050.45419218,3,1,68,16,0
33,212,563.155702548102,0,0,1806052.13657013,1806053.18363854,3,0,78,0,8
33,213,669.34602893889,0,0,1806054.85424669,1806055.9013151,3,0,80,16,8
33,214,587.427106220275,1,0,1806057.76017878,1806058.80722602,3,1,100,0,4
33,215,539.231148781255,1,0,1806060.59549518,1806061.64256705,3,1,93,16,16
33,216,611.464068759233,1,0,1806063.25414017,1806064.30141734,3,1,89,4,8
33,217,385.505458107218,0,0,1806066.06621428,1806067.11323803,3,0,67,4,16
33,218,372.232389170676,1,0,1806068.50148733,1806069.54854688,3,1,70,4,0
33,219,530.048289801925,0,0,1806071.00738454,1806072.0544618,3,0,96,4,0
33,220,453.422195743769,0,0,1806073.77213028,1806074.81920177,3,0,77,4,16
33,221,540.436076698825,0,0,1806076.27804174,1806077.32511169,3,0,98,0,16
33,222,538.872365141287,1,0,1806079.00747732,1806080.0545542,3,1,73,4,0
33,223,676.469346508384,0,0,1806081.78397861,1806082.83106126,3,0,90,4,4
33,224,530.97951062955,0,0,1806084.56047682,1806085.60762106,3,0,97,8,16
33,225,507.245897548273,0,0,1806087.32522602,1806088.37230598,3,0,78,8,8
33,226,602.151477942243,1,0,1806089.98410057,1806091.03116204,3,1,62,0,0
33,227,615.620877128094,1,1,1806092.74883129,1806093.79589623,3,0,92,16,8
33,228,499.844637932256,1,0,1806095.52533951,1806096.57240176,3,1,77,16,16
33,229,557.277348823845,1,0,1806098.24300952,1806099.29008294,3,1,88,8,4
33,230,376.563584897667,1,0,1806101.00775257,1806102.05482174,3,1,88,16,0
33,231,414.022981189191,0,0,1806103.64308598,1806104.69016093,3,0,95,0,0
33,232,409.4103788957,1,0,1806106.25488134,1806107.30195013,3,1,89,16,4
33,233,474.466856569052,1,0,1806108.8666713,1806109.91375203,3,1,79,0,4
33,234,571.080893743783,0,0,1806111.44317306,1806112.4902507,3,0,93,8,0
33,235,491.252694278955,0,0,1806114.11382279,1806115.1608704,3,0,98,0,4
33,236,446.983723435551,0,0,1806116.84330225,1806117.89031099,3,0,76,8,8
33,237,611.620362848043,1,0,1806119.4315072,1806120.47858138,3,1,93,8,0
33,238,341.994475573301,0,0,1806122.14919223,1806123.19626641,3,0,93,4,4
33,239,442.459277575836,0,0,1806124.72568705,1806125.77276316,3,0,85,16,16
33,240,636.981206014752,1,0,1806127.26689712,1806128.31397015,3,1,90,8,4
33,241,594.840299338102,0,0,1806150.9260369,1806151.97309838,4,0,61,4,16
33,242,459.004129515961,0,0,1806153.73781063,1806154.78494525,4,0,83,16,4
33,243,463.899678084999,1,0,1806156.33785043,1806157.38492885,4,1,82,4,0
33,244,424.233685713261,0,0,1806158.9613998,1806160.00847822,4,0,71,0,4
33,245,418.65637130104,1,0,1806161.58504041,1806162.63204645,4,1,63,8,4
33,246,420.315168099478,0,0,1806164.17323727,1806165.22030337,4,0,66,0,0
33,247,365.479404106736,1,0,1806166.8320995,1806167.8791579,4,1,90,0,4
33,248,424.228296149522,1,0,1806169.31447214,1806170.36155055,4,1,77,8,16
33,249,532.9920866061,0,0,1806171.91450039,1806172.96157265,4,0,87,8,8
33,250,597.749449312687,1,0,1806174.5615832,1806175.6087363,4,1,61,8,8
33,251,532.63676748611,0,0,1806177.2910411,1806178.33812375,4,0,72,4,8
33,252,491.296194959432,0,0,1806179.87930418,1806180.92638529,4,0,69,16,8
33,253,428.42860519886,1,0,1806182.54993081,1806183.59698806,4,1,61,0,0
33,254,426.595421042293,0,0,1806185.1970217,1806186.2440878,4,0,74,0,0
33,255,476.319673703983,1,0,1806187.8441176,1806188.89118639,4,1,80,16,16
33,256,507.555406074971,0,0,1806190.5618723,1806191.60886333,4,0,78,16,16
33,257,461.251531494781,1,0,1806193.19712102,1806194.24419097,4,1,96,0,16
33,258,418.604401405901,1,0,1806195.71480728,1806196.76186915,4,1,65,0,4
33,259,409.130512271076,1,0,1806198.30306189,1806199.35013454,4,1,75,16,0
33,260,389.376625418663,0,0,1806200.86780925,1806201.91487419,4,0,74,0,8
33,261,358.273319667205,1,1,1806203.51489128,1806204.56196392,4,0,88,4,4
33,262,472.440806915984,1,0,1806205.9620527,1806207.00905527,4,1,79,8,16
33,263,412.691016215831,1,0,1806208.69142399,1806209.73852819,4,1,88,0,16
33,264,701.911416370422,0,0,1806211.25616749,1806212.30324167,4,0,92,16,16
33,265,459.761347621679,1,0,1806214.15044682,1806215.19739165,4,1,65,8,0
33,266,577.475865371525,0,0,1806216.67975967,1806217.72684809,4,0,94,8,0
33,267,433.22829855606,1,0,1806219.3856749,1806220.43292963,4,1,84,4,8
33,268,670.013551134616,0,0,1806221.97394183,1806223.02100831,4,0,87,8,16
33,269,514.13284894079,0,0,1806224.77396885,1806225.82104843,4,0,88,0,4
33,270,687.982758739963,1,0,1806227.37401482,1806228.4210813,4,1,67,16,0
33,271,548.425941262394,0,0,1806230.29169977,1806231.33875663,4,0,80,4,16
33,272,523.595189442858,0,0,1806232.90348474,1806233.95055892,4,0,80,16,8
33,273,442.734524374828,1,0,1806235.51529049,1806236.56235042,4,1,87,8,4
33,274,596.348576480523,1,0,1806238.15061966,1806239.19767614,4,1,89,8,0
33,275,631.809640442953,1,0,1806240.88010529,1806241.9271198,4,1,72,4,8
33,276,397.270249901339,1,0,1806243.76244081,1806244.80951615,4,1,67,16,16
33,277,432.565780589357,0,0,1806246.31541298,1806247.36248177,4,0,81,8,8
33,278,518.334697932005,0,0,1806248.91544932,1806249.9625185,4,0,71,16,4
33,279,631.003147223964,1,0,1806251.55077311,1806252.59784537,4,1,89,4,8
33,280,669.561221962795,1,0,1806254.23314644,1806255.28022447,4,1,81,8,0
33,281,440.482908627018,0,0,1806256.96259665,1806258.00947717,4,0,67,0,0
33,282,465.611599618569,1,0,1806259.49206541,1806260.5391111,4,1,83,0,16
33,283,446.28655933775,1,0,1806262.17443643,1806263.22150868,4,1,71,0,8
33,284,690.847253426909,1,0,1806264.76268526,1806265.8098399,4,1,98,4,16
33,285,495.502663310617,1,0,1806267.6448805,1806268.69214425,4,1,79,16,0
33,286,782.461179653183,0,0,1806270.33928826,1806271.38609783,4,0,89,16,4
33,287,426.793093327433,1,0,1806273.30396386,1806274.35083767,4,1,73,0,8
33,288,739.559828303754,0,0,1806275.79812631,1806276.84519472,4,0,81,4,16
33,289,413.348144618794,1,0,1806278.59816026,1806279.64523945,4,1,64,0,16
33,290,460.8557918109,0,0,1806281.22174082,1806282.2687919,4,0,65,4,16
33,291,704.358613118529,0,0,1806283.90410221,1806284.95121835,4,0,88,16,0
33,292,502.986304229125,1,0,1806286.73942361,1806287.78650357,4,1,64,8,4
33,293,472.141692182049,1,0,1806289.35123475,1806290.39830008,4,1,66,4,4
33,294,565.656024031341,1,0,1806292.03361578,1806293.08068573,4,1,86,16,8
33,295,422.662274912,1,0,1806294.73956027,1806295.78661944,4,1,64,4,8
33,296,503.134514437988,0,0,1806297.36307962,1806298.41016535,4,0,88,4,4
33,297,566.412472398952,0,0,1806300.06901564,1806301.1160698,4,0,97,4,0
33,298,755.072215339169,0,0,1806302.8102187,1806303.85729904,4,0,72,4,0
33,299,467.28617977351,1,0,1806305.66913278,1806306.7161431,4,1,74,16,8
33,300,572.412088979036,0,0,1806308.38675164,1806309.43381966,4,0,62,16,0
33,301,506.864401046187,0,0,1806311.16329951,1806312.2103837,4,0,73,0,16
33,302,631.312270648777,0,0,1806313.88092949,1806314.93982736,4,0,86,4,4
33,303,524.279264966026,1,0,1806316.6927317,1806317.73979895,4,1,95,8,0
33,304,344.591037137434,0,0,1806319.45727247,1806320.50455239,4,0,74,16,4
33,305,604.984790785238,0,0,1806322.02200867,1806323.06928011,4,0,82,16,8
33,306,637.10708799772,1,0,1806324.73989481,1806325.78699016,4,1,68,8,16
33,307,673.217966221273,0,0,1806327.4458135,1806328.49288422,4,0,81,8,4
33,308,605.665786657482,1,0,1806330.3282726,1806331.37528365,4,1,99,8,4
33,309,726.054628146812,0,0,1806333.13998897,1806334.18707431,4,0,90,4,4
33,310,463.795738527551,0,0,1806335.92827776,1806336.97532884,4,0,88,4,0
33,311,660.98352195695,0,0,1806338.58713113,1806339.63422341,4,0,98,0,8
33,312,552.46341181919,1,0,1806341.4695244,1806342.51658588,4,1,69,8,16
33,313,514.606735901907,0,1,1806344.18718364,1806345.23426745,4,1,61,8,8
33,314,810.126637108624,0,0,1806346.86966438,1806347.91665002,4,0,89,8,8
33,315,510.241663549095,1,0,1806349.91666965,1806350.96377809,4,1,94,0,4
33,316,591.605857480317,0,0,1806352.58729359,1806353.63436507,4,0,82,16,16
33,317,478.805366670713,1,0,1806355.25795756,1806356.30498285,4,1,81,4,0
33,318,532.058556098491,0,0,1806357.97559832,1806359.02266172,4,0,75,16,4
33,319,522.031478118151,0,0,1806360.72856348,1806361.7756342,4,0,77,0,8
33,320,438.640849664807,1,0,1806363.39918703,1806364.44625274,4,1,78,0,0
33,321,447.877217782661,0,0,1806388.14068382,1806389.18772913,5,0,63,4,4
33,322,438.985774759203,0,0,1806390.6583389,1806391.70541039,5,0,76,4,0
33,323,546.077294507995,0,0,1806393.21130568,1806394.25838063,5,0,81,16,16
33,324,490.973982494324,0,0,1806396.01133963,1806397.05840381,5,0,93,0,8
33,325,625.819647917524,0,0,1806398.6466715,1806399.69374184,5,0,89,8,8
33,326,513.487269403413,0,0,1806401.49377309,1806402.54082225,5,0,95,8,16
33,327,359.604514902458,0,0,1806404.15261569,1806405.19968525,5,0,73,4,0
33,328,455.159909557551,1,0,1806406.72911205,1806407.77618392,5,1,85,16,8
33,329,462.069958681241,0,0,1806409.43505423,1806410.48213072,5,0,92,4,8
33,330,540.33059743233,1,0,1806412.09389182,1806413.14096176,5,1,68,0,4
33,331,392.668041866273,0,0,1806414.81156453,1806415.85863794,5,0,61,4,4
33,332,580.945133464411,0,0,1806417.32924424,1806418.37632805,5,0,91,16,0
33,333,415.397291770205,0,0,1806420.01165684,1806421.05869869,5,0,91,4,16
33,334,519.49266041629,0,0,1806422.56461631,1806423.61168317,5,0,70,8,8
33,335,491.143365390599,1,0,1806425.15290402,1806426.1999374,5,1,97,0,16
33,336,510.721324943006,1,0,1806427.72937613,1806428.77644877,5,1,70,8,4
33,337,503.834758186713,1,0,1806430.44705,1806431.49412341,5,1,93,8,16
33,338,555.097699631006,1,0,1806433.16472194,1806434.21182037,5,1,91,0,16
33,339,517.970909830183,0,0,1806435.8588897,1806436.90597004,5,0,91,0,16
33,340,707.213098648936,0,0,1806438.62360541,1806439.67069499,5,0,80,8,4
33,341,466.093955561519,1,0,1806441.41188651,1806442.45895953,5,1,76,8,0
33,342,542.318150866777,0,0,1806444.02368533,1806445.07076336,5,0,86,16,16
33,343,508.828087011352,1,0,1806446.65901143,1806447.70607945,5,1,87,8,0
33,344,403.684469638392,0,0,1806449.30618739,1806450.3531688,5,0,67,16,0
33,345,521.435173461214,0,0,1806451.9414261,1806452.98849374,5,0,70,16,16
33,346,750.233640894294,0,0,1806454.63557539,1806455.68264919,5,0,63,4,16
33,347,447.690896922722,0,0,1806457.51796058,1806458.56507094,5,0,74,4,4
33,348,564.38334309496,1,1,1806460.10622943,1806461.15329784,5,0,97,16,16
33,349,624.220904894173,0,0,1806462.84743865,1806463.89450745,5,0,80,4,8
33,350,547.292231116444,0,0,1806465.60041152,1806466.64748223,5,0,68,4,16
33,351,450.563860591501,0,0,1806468.37692474,1806469.42399315,5,0,65,8,8
33,352,575.835161609575,1,0,1806470.94165438,1806471.98872741,5,1,67,16,8
33,353,446.572200162336,1,0,1806473.72992547,1806474.77699388,5,1,65,16,4
33,354,564.416834851727,0,0,1806476.41230612,1806477.45937568,5,0,90,4,4
33,355,538.297618506476,1,0,1806479.21241937,1806480.25940694,5,1,91,4,8
33,356,503.878258867189,0,0,1806481.84767002,1806482.89474189,5,0,96,8,0
33,357,626.772041199729,0,0,1806484.4947636,1806485.54182469,5,0,99,16,0
33,358,540.62932706438,0,0,1806487.18890865,1806488.23597744,5,0,98,8,4
33,359,689.976086607203,1,0,1806489.85952681,1806490.90662756,5,1,84,8,16
33,360,555.66359241493,1,0,1806492.70662494,1806493.75368834,5,1,69,16,4
33,361,574.009676929563,1,0,1806495.36547446,1806496.41257289,5,1,83,0,4
33,362,649.711094796658,0,0,1806498.16556308,1806499.21258567,5,0,82,8,16
33,363,1016.21202309616,1,0,1806500.8831842,1806501.93026031,5,1,63,16,4
33,364,623.071796493605,0,0,1806503.97734566,1806505.02441676,5,0,79,16,0
33,365,778.142925584689,1,0,1806506.8362001,1806507.88327582,5,1,77,16,16
33,366,652.942842338234,1,0,1806509.73037588,1806510.77743697,5,1,99,0,0
33,367,542.692717630416,1,0,1806512.6245016,1806513.67157578,5,1,97,4,0
33,368,566.287745023146,1,0,1806515.40104254,1806516.44807322,5,1,62,16,8
33,369,462.806388968602,1,0,1806518.13048197,1806519.17751997,5,1,75,16,8
33,370,483.801774913445,1,0,1806520.78932995,1806521.83643685,5,1,62,4,8
33,371,522.247441112995,0,0,1806523.47169366,1806524.51876399,5,0,76,0,0
33,372,439.643672900274,1,0,1806526.09527691,1806527.14240614,5,1,67,4,4
33,373,428.835509112105,1,0,1806528.69529053,1806529.74236587,5,1,100,0,8
33,374,444.873752538115,1,0,1806531.20122817,1806532.24827156,5,1,95,0,16
33,375,511.464299634099,1,0,1806533.73063842,1806534.77770529,5,1,92,0,4
33,376,484.609422972426,1,0,1806536.3894914,1806537.43656597,5,1,63,0,16
33,377,520.901232492179,0,0,1806539.11893276,1806540.16601579,5,0,83,0,0
33,378,735.928106820211,1,0,1806541.76603404,1806542.81309744,5,1,90,8,0
33,379,569.35395905748,0,0,1806544.74253333,1806545.78960289,5,0,81,0,4
33,380,460.855021839961,0,0,1806547.42492437,1806548.47199624,5,0,83,0,8
33,381,643.927826546133,1,0,1806550.07204336,1806551.11909059,5,1,71,4,16
33,382,646.846215706319,1,0,1806552.77793087,1806553.82499851,5,1,95,16,8
33,383,541.646008845419,1,0,1806555.56619541,1806556.61326267,5,1,82,16,4
33,384,538.363061845303,1,0,1806558.30740464,1806559.35447343,5,1,62,16,4
33,385,514.938572188839,1,0,1806561.0956738,1806562.14274644,5,1,69,0,8
33,386,575.620353454724,0,0,1806563.77805714,1806564.8251294,5,0,69,4,16
33,387,344.00050714612,0,0,1806566.44868339,1806567.49575025,5,0,75,0,0
33,388,379.798796959221,1,0,1806569.03697572,1806570.08402373,5,1,76,8,16
33,389,469.816143158823,1,0,1806571.58991863,1806572.63698897,5,1,86,4,0
33,390,1016.96346700192,0,0,1806574.26054103,1806575.30760713,5,0,91,8,8
33,391,546.08499375172,1,0,1806577.41352298,1806578.4605883,5,1,76,4,8
33,392,565.664108144119,1,0,1806580.15473913,1806581.20180484,5,1,90,0,4
33,393,529.243721393868,0,0,1806582.93122618,1806583.97830113,5,0,68,8,4
33,394,412.869253195822,1,0,1806585.56656113,1806586.61367227,5,1,64,8,8
33,395,494.402444921434,1,0,1806588.19011358,1806589.2371866,5,1,90,8,0
33,396,524.297358235344,1,0,1806590.88426594,1806591.93134782,5,1,99,16,0
33,397,490.744930692017,0,0,1806593.50782147,1806594.55489489,5,0,96,0,0
33,398,567.02802493237,1,0,1806596.13138778,1806597.17845773,5,1,90,0,8
33,399,525.642796885222,0,0,1806598.76671619,1806599.81378806,5,0,91,8,4
33,400,511.565159540623,0,0,1806601.51968867,1806602.56676015,5,0,73,4,0
33,401,522.346761077642,0,0,1806626.62587129,1806627.67294047,6,0,64,4,4
33,402,408.380608307198,0,0,1806629.23767012,1806630.28473814,6,0,68,4,8
33,403,521.764314966276,1,0,1806631.76717352,1806632.81422345,6,1,71,8,8
33,404,558.628561673686,1,0,1806634.35538117,1806635.40245073,6,1,70,8,0
33,405,828.24367005378,1,0,1806637.14364032,1806638.19071258,6,1,77,4,4
33,406,667.984421830624,0,0,1806640.08485524,1806641.13193366,6,0,72,0,16
33,407,531.598912551999,0,0,1806642.81430198,1806643.86137578,6,0,72,16,16
33,408,585.662060184404,0,0,1806645.42610389,1806646.47317922,6,0,79,16,8
33,409,687.423025490716,0,0,1806648.21436997,1806649.26144992,6,0,100,16,8
33,410,764.630410820246,1,0,1806651.12028743,1806652.16735353,6,1,72,16,0
33,411,561.426072847098,0,0,1806654.06149658,1806655.10856383,6,0,95,4,8
33,412,570.314821787179,0,0,1806656.86152938,1806657.90860125,6,0,64,8,4
33,413,530.112578300759,1,0,1806659.61450956,1806660.66157719,6,1,61,4,4
33,414,649.474343983456,0,0,1806662.33219805,1806663.37925144,6,0,72,16,16
33,415,546.654735924676,1,0,1806665.09692954,1806666.1440172,6,1,75,0,0
33,416,443.003996973857,0,0,1806667.76754232,1806668.81460957,6,0,83,8,8
33,417,484.794204356149,1,0,1806670.30875123,1806671.35583311,6,1,81,0,0
33,418,537.12040768005,1,0,1806672.8734905,1806673.92055275,6,1,80,0,8
33,419,695.950680878013,0,0,1806675.4617532,1806676.50883469,6,0,72,0,4
33,420,473.437470849603,1,0,1806678.34414339,1806679.39120833,6,1,98,4,4
33,421,551.96373257786,0,0,1806681.07358898,1806682.120662,6,0,65,0,4
33,422,564.166994998232,0,0,1806683.83832239,1806684.88539388,6,0,67,8,4
33,423,540.156210074201,1,0,1806686.49718269,1806687.54425264,6,1,66,4,16
33,424,769.677249249071,1,0,1806689.27368052,1806690.3207497,6,1,94,4,0
33,425,508.366903755814,0,0,1806692.20313527,1806693.25020213,6,0,65,8,0
33,426,645.149307558313,1,0,1806694.85021692,1806695.89729225,6,1,72,16,0
33,427,534.605842782184,0,0,1806697.62672437,1806698.67379431,6,0,93,4,4
33,428,466.250634752214,1,1,1806700.30910886,1806701.35617804,6,0,79,8,16
33,429,524.487143848091,1,0,1806702.96796531,1806704.01502756,6,1,66,8,0
33,430,491.676536155865,1,0,1806705.73270219,1806706.77977137,6,1,74,16,16
33,431,393.162331543863,1,0,1806708.41515136,1806709.46218358,6,1,64,4,0
33,432,410.195314325392,0,0,1806710.96806001,1806712.01513381,6,0,92,0,8
33,433,632.140321889892,0,0,1806713.61514628,1806714.6622247,6,0,68,8,16
33,434,579.447635449469,1,0,1806716.48577515,1806717.53284702,6,1,99,16,4
33,435,411.725918995216,1,0,1806719.12110047,1806720.16817119,6,1,86,0,16
33,436,587.016352917999,1,0,1806721.76819252,1806722.81526824,6,1,71,0,4
33,437,437.585286563262,1,0,1806724.49763695,1806725.54470574,6,1,81,4,8
33,438,734.78708229959,0,0,1806727.01532898,1806728.06240432,6,0,82,16,8
33,439,380.643786164001,1,0,1806729.95652735,1806731.00359691,6,1,98,8,0
33,440,469.79843499139,0,0,1806732.58007172,1806733.62714936,6,0,86,0,4
33,441,571.673733880743,0,0,1806735.12130296,1806736.16836559,6,0,77,0,4
33,442,605.741624021903,0,0,1806737.88603407,1806738.93316292,6,0,79,16,0
33,443,756.764503894374,0,0,1806740.73316453,1806741.78025873,6,0,82,16,16
33,444,582.013400271535,1,0,1806743.63904427,1806744.68610767,6,1,87,8,16
33,445,460.742613300681,0,0,1806746.33319279,1806747.38026428,6,0,84,4,16
33,446,542.880193796009,0,0,1806748.85087097,1806749.89793398,6,0,76,0,8
33,447,528.383718803525,1,0,1806751.62737149,1806752.67444066,6,1,64,0,8
33,448,602.280824910849,1,0,1806754.32152193,1806755.36859457,6,1,93,8,0
33,449,477.916491683573,1,0,1806757.00390488,1806758.05097829,6,1,71,0,16
33,450,534.539244603366,1,0,1806759.68629092,1806760.73335932,6,1,91,4,16
33,451,662.23964956589,1,0,1806762.33338488,1806763.38045676,6,1,97,8,4
33,452,703.860473586246,0,0,1806765.10992198,1806766.15696536,6,0,98,8,8
33,453,773.39712693356,1,0,1806767.88639131,1806768.93346434,6,1,61,16,4
33,454,1099.78974238038,0,0,1806770.76880075,1806771.81587455,6,0,89,8,4
33,455,588.053822750226,1,0,1806773.9805955,1806775.02764812,6,1,72,4,16
33,456,513.913806062192,0,0,1806776.72180472,1806777.76886851,6,0,72,4,0
33,457,710.54339595139,0,0,1806779.3688829,1806780.41595786,6,0,95,16,4
33,458,455.797789618373,1,0,1806782.1807367,1806783.22775468,6,1,96,0,16
33,459,451.519718626514,1,0,1806784.71012192,1806785.75719264,6,1,84,4,8
33,460,541.915481677279,0,0,1806787.34544186,1806788.39252028,6,0,92,4,0
33,461,688.538642600179,0,0,1806789.96901356,1806791.01608043,6,0,91,8,16
33,462,544.577486580238,0,0,1806792.7337643,1806793.78082308,6,0,81,0,0
33,463,791.743981419131,0,0,1806795.48671945,1806796.53379325,6,0,100,8,4
33,464,569.131836527959,0,0,1806798.46323106,1806799.51029947,6,0,89,0,0
33,465,723.165495786816,1,0,1806801.16914475,1806802.21621355,6,1,94,16,0
33,466,615.252084331587,0,0,1806803.96917024,1806805.01624943,6,0,92,16,4
33,467,537.02455246821,1,0,1806806.76924346,1806807.81628222,6,1,82,4,0
33,468,574.780368711799,1,0,1806809.35747998,1806810.40455916,6,1,94,4,16
33,469,567.980803083628,0,0,1806812.06344756,1806813.11045861,6,0,81,16,16
33,470,592.844661790878,0,0,1806814.81636615,1806815.86343494,6,0,82,16,8
33,471,549.42222032696,0,0,1806817.60463492,1806818.6517041,6,0,85,8,16
33,472,497.014789842069,1,0,1806820.22819469,1806821.27526964,6,1,78,8,8
33,473,504.682827275246,1,0,1806822.81646239,1806823.86352733,6,1,73,0,16
33,474,417.376375989988,1,0,1806825.51060359,1806826.55766776,6,1,63,0,8
33,475,733.35464252159,0,0,1806828.11063685,1806829.15771526,6,0,78,0,0
33,476,659.788218094036,1,0,1806831.07538289,1806832.12245784,6,1,75,16,4
33,477,579.449175158516,1,0,1806833.96953595,1806835.01660359,6,1,70,16,0
33,478,606.143908109516,0,0,1806836.80486274,1806837.851935,6,0,83,16,8
33,479,563.444423256442,1,0,1806839.47548976,1806840.52255547,6,1,64,4,8
33,480,648.843778064474,1,0,1806842.09904221,1806843.14614488,6,1,72,8,8
33,481,541.272596921772,0,0,1806848.67559516,1806849.72266857,7,0,86,0,0
33,482,365.609135711566,1,0,1806851.44033705,1806852.48740392,7,1,87,16,16
33,483,407.224185531959,0,0,1806853.87566053,1806854.92272816,7,0,69,0,0
33,484,405.334797222167,1,0,1806856.44039248,1806857.48746859,7,1,67,4,8
33,485,535.41849530302,1,0,1806859.08748684,1806860.13455178,7,1,83,4,4
33,486,446.191088994965,0,0,1806861.78168463,1806862.8287207,7,0,80,8,8
33,487,435.612746747211,1,0,1806864.45225274,1806865.49932269,7,1,87,16,16
33,488,598.238734994084,0,0,1806866.99346513,1806868.04052853,7,0,63,4,16
33,489,544.934730511159,1,0,1806869.82879153,1806870.87586956,7,1,79,16,0
33,490,483.939975965768,0,0,1806872.4405865,1806873.48765799,7,0,94,16,16
33,491,617.695046821609,0,0,1806875.07591414,1806876.12298216,7,0,97,4,0
33,492,602.506411960348,1,0,1806877.87594694,1806878.92302112,7,1,80,0,0
33,493,470.288490178064,1,0,1806880.60544873,1806881.6524617,7,1,68,4,8
33,494,439.115891233087,1,0,1806883.20542194,1806884.25248726,7,1,79,16,0
33,495,414.421030785888,1,0,1806885.87607167,1806886.92311774,7,1,63,0,4
33,496,455.546795390546,1,1,1806888.4760749,1806889.523146,7,0,80,4,4
33,497,571.83426246047,1,0,1806891.00551209,1806892.05258704,7,1,91,8,8
33,498,625.188696896657,0,0,1806893.67613603,1806894.7232106,7,0,61,16,4
33,499,693.932715570554,1,0,1806896.46440981,1806897.51147206,7,1,91,0,4
33,500,463.891209103167,1,0,1806899.26443799,1806900.31151679,7,1,72,8,4
33,501,471.249352674931,0,0,1806901.87623412,1806902.9233033,7,0,88,0,8
33,502,410.94791283831,1,0,1806904.57038456,1806905.61746298,7,1,84,0,0
33,503,453.324030619115,1,0,1806907.14688747,1806908.19395626,7,1,99,0,16
33,504,441.93072617054,0,0,1806909.78221279,1806910.82928466,7,0,61,16,0
33,505,363.235851516947,1,0,1806912.34695206,1806913.39402086,7,1,77,0,16
33,506,431.131416000426,1,0,1806914.88815328,1806915.93522515,7,1,75,8,0
33,507,391.472737770528,0,0,1806917.51172806,1806918.55878492,7,0,64,0,4
33,508,412.597085814923,0,0,1806919.97057342,1806921.01764452,7,0,74,8,0
33,509,698.434833902866,0,0,1806922.55883381,1806923.60590876,7,0,78,16,4
33,510,551.588780479506,1,0,1806925.3824497,1806926.42947076,7,1,75,8,8
33,511,435.621215729043,0,0,1806928.02949131,1806929.07655856,7,0,86,16,4
33,512,346.076601417735,0,1,1806930.70011525,1806931.74718905,7,1,83,16,8
33,513,568.614448886365,1,0,1806933.19426615,1806934.2413669,7,1,92,8,16
33,514,502.772651147097,0,0,1806935.85311914,1806936.90022258,7,0,62,8,4
33,515,1063.33855888806,0,0,1806938.52378465,1806939.57080186,7,0,72,0,16
33,516,548.017882741988,0,0,1806941.7120117,1806942.75914093,7,0,82,4,4
33,517,475.364970508963,0,0,1806944.33557223,1806945.38264025,7,0,85,0,8
33,518,522.05611532554,0,0,1806946.92383878,1806947.97090795,7,0,97,0,16
33,519,573.31328256987,0,0,1806949.59450583,1806950.64153805,7,0,89,4,0
33,520,619.321122067049,1,0,1806952.39449243,1806953.44155622,7,1,73,16,0
33,521,520.778815029189,1,0,1806955.06510444,1806956.11219825,7,1,62,16,8
33,522,599.639607826248,1,0,1806957.77103237,1806958.81809731,7,1,70,16,0
33,523,408.560384996235,1,0,1806960.61811856,1806961.66519236,7,1,88,16,8
33,524,458.749285433441,1,1,1806963.17109304,1806964.21815606,7,0,99,0,16
33,525,1049.34638296254,1,0,1806965.80643492,1806966.85348524,7,1,64,8,16
33,526,594.085776014254,1,0,1806969.05351365,1806970.10058321,7,1,98,4,16
33,527,495.825645513833,1,0,1806971.84178242,1806972.88886546,7,1,76,16,8
33,528,453.428355045617,1,0,1806974.47711121,1806975.52417962,7,1,78,16,16
33,529,561.635106801987,0,0,1806977.08895123,1806978.13597421,7,0,61,8,4
33,530,474.474555812776,1,0,1806979.78306163,1806980.83012888,7,1,97,0,4
33,531,460.590168600902,0,0,1806982.39491088,1806983.44191924,7,0,92,4,4
33,532,689.0814374201,1,0,1806984.97135258,1806986.01842253,7,1,83,4,16
33,533,681.556990370154,0,0,1806987.90085699,1806988.94788575,7,0,79,16,16
33,534,496.550142066553,0,0,1806990.64201232,1806991.68907996,7,0,76,0,8
33,535,607.685676775873,0,0,1806993.25381153,1806994.30087763,7,0,89,8,16
33,536,1076.3263721019,0,0,1806995.94795928,1806996.99502807,7,0,82,8,0
33,537,407.243048539385,0,0,1806999.13622867,1807000.18330246,7,0,75,4,16
33,538,388.893114635721,0,0,1807001.61861978,1807002.66568088,7,0,65,8,16
33,539,408.925713039935,1,1,1807004.1362945,1807005.18336483,7,0,97,4,4
33,540,557.326623704284,1,0,1807006.6069674,1807007.65397922,7,1,97,8,8
33,541,452.243060106412,0,0,1807009.40695131,1807010.45401394,7,0,74,8,4
33,542,651.593938935548,0,0,1807012.06581738,1807013.11286731,7,0,70,4,8
33,543,541.121691931039,1,0,1807014.79523949,1807015.84231482,7,1,90,8,16
33,544,465.041472343728,0,0,1807017.45411865,1807018.50117012,7,0,89,8,4
33,545,444.170814007521,1,0,1807020.11295508,1807021.16002156,7,1,97,8,0
33,546,443.586058216169,0,0,1807022.63062749,1807023.67769666,7,0,79,0,4
33,547,580.915491562337,1,0,1807025.20712962,1807026.25420265,7,1,76,4,0
33,548,472.411165013909,1,0,1807027.98364169,1807029.0307074,7,1,100,8,0
33,549,469.403850147501,0,0,1807030.68955115,1807031.73661917,7,0,63,0,8
33,550,391.044276300818,1,0,1807033.26605098,1807034.31312824,7,1,88,4,0
33,551,382.992817787454,1,0,1807035.77195974,1807036.81903315,7,1,66,4,0
33,552,619.331515859813,0,0,1807038.23081242,1807039.27788352,7,0,92,4,8
33,553,380.975622450933,1,0,1807041.06619965,1807042.11322533,7,1,80,0,8
33,554,519.954228540882,1,0,1807043.52499843,1807044.57207569,7,1,94,0,0
33,555,469.513948773965,0,0,1807046.16032761,1807047.20741334,7,0,61,4,16
33,556,393.432574346662,1,0,1807048.70153691,1807049.74860262,7,1,96,4,8
33,557,548.136065714061,0,0,1807051.28980268,1807052.33686609,7,0,97,16,4
33,558,545.228070579469,0,0,1807054.04277016,1807055.08984241,7,0,65,16,4
33,559,504.460319876671,0,0,1807056.71338947,1807057.7604625,7,0,87,16,8
33,560,469.999769469723,1,0,1807059.39578282,1807060.44284892,7,1,83,8,8
33,561,437.732726568356,0,0,1807089.77261764,1807090.81968951,8,0,84,8,0
33,562,427.599399350584,1,0,1807092.40794489,1807093.45501407,8,1,84,16,0
33,563,397.359560942277,1,0,1807095.05503309,1807096.10210111,8,1,89,0,4
33,564,596.421334194019,1,0,1807097.60800564,1807098.65507674,8,1,62,0,8
33,565,689.670427702367,0,0,1807100.41980824,1807101.46687741,8,0,76,8,8
33,566,451.281042769551,1,0,1807103.30219612,1807104.34926106,8,1,77,8,16
33,567,343.691383488476,0,0,1807105.98457869,1807107.03165903,8,0,63,0,16
33,568,636.492305668071,1,0,1807108.52578106,1807109.57285254,8,1,100,8,8
33,569,545.31122231856,1,0,1807111.41993373,1807112.46700753,8,1,83,8,0
33,570,467.124111019075,1,1,1807114.11408071,1807115.1611572,8,0,99,4,0
33,571,593.296606093645,1,0,1807116.66707174,1807117.71412629,8,1,100,16,8
33,572,644.333960255608,1,0,1807119.37297273,1807120.42004345,8,1,93,4,8
33,573,455.274627776816,0,0,1807122.12594097,1807123.17302054,8,0,87,0,4
33,574,483.212784398347,1,0,1807124.78480358,1807125.83187507,8,1,73,4,0
33,575,545.728904893622,1,0,1807127.34954285,1807128.3966282,8,1,79,0,8
33,576,572.489850921556,0,0,1807130.04368906,1807131.09075746,8,0,62,16,4
33,577,445.851168362424,0,0,1807132.82019227,1807133.8672653,8,0,93,0,4
33,578,458.459025016055,1,0,1807135.40845304,1807136.45552722,8,1,65,8,4
33,579,372.138843405992,0,0,1807138.0320232,1807139.07908737,8,0,75,0,0
33,580,427.683320827782,0,1,1807140.51441316,1807141.56147425,8,1,62,4,16
33,581,648.167016450316,0,0,1807143.09090644,1807144.1379737,8,0,97,8,16
33,582,381.02566730231,1,0,1807145.93799418,1807146.98511263,8,1,78,4,4
33,583,487.115518655628,1,0,1807148.45567697,1807149.50274345,8,1,62,16,0
33,584,497.522168327123,0,0,1807151.1262986,1807152.17336585,8,0,62,16,16
33,585,471.370230428874,0,0,1807153.86750089,1807154.91457854,8,0,64,0,8
33,586,473.12103305012,1,0,1807156.56165172,1807157.60872821,8,1,85,8,4
33,587,576.007624156773,1,0,1807159.16168806,1807160.20875416,8,1,99,4,16
33,588,637.733419658616,1,0,1807161.90289459,1807162.94998148,8,1,83,4,0
33,589,468.304786365479,0,0,1807164.62057808,1807165.66764456,8,0,67,0,0
33,590,437.175688333809,1,0,1807167.31472467,1807168.36179077,8,1,75,4,4
33,591,429.828323423862,1,0,1807169.91475986,1807170.96188678,8,1,95,4,0
33,592,375.528424745426,1,0,1807172.59714435,1807173.6442143,8,1,65,0,4
33,593,529.222548706457,1,0,1807175.07952507,1807176.12658886,8,1,69,16,4
33,594,744.820704916492,0,0,1807177.82072352,1807178.86780694,8,0,97,4,8
33,595,387.606574920937,1,0,1807180.65606032,1807181.70312911,8,1,65,0,16
33,596,417.695123702288,1,0,1807183.16199411,1807184.2090371,8,1,68,4,4
33,597,392.824335955083,1,0,1807185.67965611,1807186.72675378,8,1,75,16,16
33,598,567.873784108087,0,0,1807188.13850494,1807189.18557296,8,0,98,8,8
33,599,409.663298167288,1,0,1807190.87972187,1807191.92677295,8,1,67,8,16
33,600,415.636352496222,1,0,1807193.42091654,1807194.46798725,8,1,83,4,16
33,601,531.975019723177,0,0,1807195.9503622,1807196.99743561,8,0,61,4,0
33,602,601.796159055084,0,0,1807198.58569138,1807199.63276132,8,0,98,16,8
33,603,513.793313410133,0,0,1807201.24454552,1807202.291617,8,0,78,0,0
33,604,530.443259747699,1,0,1807203.82103996,1807204.8681126,8,1,98,4,8
33,605,470.997203374282,0,0,1807206.60931528,1807207.65638368,8,0,75,16,0
33,606,693.189355777577,0,0,1807209.2211114,1807210.26817596,8,0,67,8,0
33,607,355.87116330862,0,0,1807212.05643819,1807213.10351199,8,0,65,0,16
33,608,588.185864267871,0,0,1807214.52704797,1807215.57412022,8,0,97,0,16
33,609,601.33266588673,1,0,1807217.28002237,1807218.32709539,8,1,89,16,4
33,610,765.196688706055,1,0,1807220.08006363,1807221.12712896,8,1,81,8,4
33,611,564.689001999795,1,0,1807223.10362632,1807224.15069281,8,1,94,16,8
33,612,510.112701682374,0,0,1807225.78600235,1807226.8330927,8,0,96,0,0
33,613,355.616704095155,1,0,1807228.51546102,1807229.56252558,8,1,87,0,16
33,614,587.418637005612,0,0,1807230.95077873,1807231.99785214,8,0,87,8,16
33,615,485.151833156124,1,0,1807233.59786692,1807234.64494649,8,1,84,4,4
33,616,503.311981447041,1,1,1807236.20967037,1807237.25673415,8,0,68,8,0
33,617,749.516458716244,0,0,1807238.76263599,1807239.80970863,8,0,81,8,4
33,618,630.592393688858,0,0,1807241.68032017,1807242.72738973,8,0,71,4,16
33,619,512.358563952148,0,0,1807244.40976306,1807245.45683147,8,0,61,4,8
33,620,572.320083156228,0,0,1807247.17450341,1807248.22157105,8,0,70,16,16
33,621,552.659356966615,1,0,1807249.93924376,1807250.9863087,8,1,95,16,16
33,622,613.745732232928,0,0,1807252.69221931,1807253.73928657,8,0,97,16,16
33,623,451.743381097913,0,0,1807255.45698199,1807256.50405964,8,0,74,8,4
33,624,516.371011966839,1,0,1807258.12757552,1807259.17464238,8,1,97,16,8
33,625,419.694995973259,0,0,1807260.79819445,1807261.84526555,8,0,75,0,4
33,626,501.985020935535,1,0,1807263.42175652,1807264.46882724,8,1,63,16,4
33,627,528.427989222109,1,0,1807266.13943539,1807267.18650611,8,1,67,16,8
33,628,667.761914432049,0,0,1807268.8688829,1807269.9159567,8,0,79,8,0
33,629,513.828344875947,0,0,1807271.77479306,1807272.82190458,8,0,74,8,8
33,630,491.819356800988,1,0,1807274.37487598,1807275.42190743,8,1,86,0,0
33,631,677.647711941972,0,0,1807277.02192375,1807278.0689833,8,0,70,16,4
33,632,879.640577826649,1,0,1807279.92783429,1807280.97490693,8,1,85,4,16
33,633,576.914592180401,0,0,1807282.93963257,1807283.9867056,8,0,86,16,0
33,634,425.734648481011,0,0,1807285.77495743,1807286.82203354,8,0,87,0,8
33,635,762.832643464208,0,0,1807288.43382389,1807289.48088037,8,0,92,8,16
33,636,574.480099137872,1,0,1807291.28091432,1807292.32797695,8,1,99,16,0
33,637,474.427205743268,1,0,1807293.92799366,1807294.97506322,8,1,73,4,8
33,638,581.285054096952,0,0,1807296.52803577,1807297.57510572,8,0,63,0,8
33,639,373.106250306591,1,1,1807299.21042219,1807300.25749522,8,0,87,8,8
33,640,371.122161857784,0,0,1807301.66925947,1807302.71634097,8,0,65,4,4
33,641,545.901752309874,1,0,1807311.77527965,1807312.82235036,9,1,80,16,0
33,642,661.661823047325,0,0,1807314.51648579,1807315.56359539,9,0,89,0,16
33,643,541.976690292358,1,0,1807317.42244984,1807318.46946935,9,1,98,16,8
33,644,353.524441365153,0,0,1807320.10484588,1807321.15186925,9,0,85,8,16
33,645,413.14680990763,1,0,1807322.58717078,1807323.63424342,9,1,95,0,0
33,646,420.198524836451,0,0,1807325.09308224,1807326.14014796,9,0,86,8,4
33,647,626.851343084127,0,0,1807327.72843952,1807328.77547752,9,0,83,8,0
33,648,515.087937004864,0,0,1807330.44609337,1807331.49315215,9,0,78,4,8
33,649,548.588779754937,1,0,1807333.12847324,1807334.17554473,9,1,92,8,0
33,650,594.487290130928,1,0,1807335.86968593,1807336.91675434,9,1,61,0,4
33,651,478.503942023963,1,0,1807338.63448056,1807339.68150855,9,1,81,16,4
33,652,494.533331599087,1,0,1807341.23445415,1807342.28152179,9,1,61,0,4
33,653,475.823843851686,0,0,1807343.95218846,1807344.99920027,9,0,76,16,16
33,654,575.850945198908,1,0,1807346.55216705,1807347.59924393,9,1,81,16,0
33,655,662.290464388207,0,0,1807349.37572559,1807350.42279515,9,0,88,8,16
33,656,501.835271250457,1,0,1807352.21105584,1807353.25813464,9,1,70,8,0
33,657,535.979768494144,0,0,1807354.86990267,1807355.91698262,9,0,61,16,16
33,658,710.822492605075,1,0,1807357.46993939,1807358.5170563,9,1,67,0,8
33,659,512.62726681307,0,0,1807360.35233574,1807361.39939568,9,0,65,4,4
33,660,495.606987504289,1,0,1807363.05824135,1807364.10531322,9,1,67,4,0
33,661,591.127350926399,0,0,1807365.7406297,1807366.78770157,9,0,92,16,8
33,662,606.833373429254,0,0,1807368.43477783,1807369.4818547,9,0,82,4,0
33,663,460.449657868594,1,0,1807371.11715924,1807372.16423381,9,1,79,16,8
33,664,654.777566203848,0,0,1807373.63484358,1807374.68191968,9,0,91,8,16
33,665,424.25370356068,1,1,1807376.45840596,1807377.50547129,9,0,89,0,8
33,666,421.954331919551,1,0,1807378.94083904,1807379.98786086,9,1,85,4,4
33,667,604.191386140883,0,0,1807381.49381313,1807382.55259474,9,0,70,16,16
33,668,440.812029642984,1,0,1807384.29379473,1807385.34090741,9,1,76,16,4
33,669,502.205218421295,0,1,1807386.87029956,1807387.91736681,9,1,69,16,16
33,670,613.679518923163,1,0,1807389.58797189,1807390.63504222,9,1,66,4,16
33,671,502.57285637781,1,0,1807392.29391946,1807393.34095784,9,1,80,0,16
33,672,503.390898229554,1,0,1807394.94097647,1807395.98805065,9,1,92,8,8
33,673,551.786265568808,1,0,1807397.55278838,1807398.59984832,9,1,62,4,16
33,674,491.729275789112,0,0,1807400.31751564,1807401.36463409,9,0,65,0,4
33,675,599.714290117845,0,0,1807402.96460422,1807404.01171959,9,0,73,4,8
33,676,485.103328013793,0,0,1807405.68228501,1807406.7293411,9,0,96,0,8
33,677,512.902898713946,1,0,1807408.32937975,1807409.37644585,9,1,95,0,0
33,678,604.652954498306,0,0,1807411.07063209,1807412.11765661,9,0,61,16,4
33,679,559.613291872665,1,0,1807413.91767055,1807414.96474396,9,1,99,16,8
33,680,519.449929706752,0,0,1807416.70597974,1807417.75303391,9,0,62,0,8
33,681,395.907103316858,1,1,1807419.38832767,1807420.43544535,9,0,99,0,0
33,682,763.490156503394,0,0,1807421.91777218,1807422.96484405,9,0,80,4,16
33,683,505.083571653813,0,0,1807424.80016275,1807425.84722885,9,0,84,0,8
33,684,447.735937312245,0,0,1807427.43548385,1807428.48255302,9,0,93,16,0
33,685,445.906217908487,0,0,1807429.94145651,1807430.98845986,9,0,76,0,4
33,686,537.757903104648,1,0,1807432.54143819,1807433.58849736,9,1,84,8,16
33,687,533.688095863909,1,0,1807435.29440335,1807436.34147445,9,1,93,8,0
33,688,511.185202980414,0,0,1807437.9179662,1807438.96503383,9,0,95,4,8
33,689,452.856302959844,1,0,1807440.60036186,1807441.64742025,9,1,94,8,4
33,690,674.025999149308,0,0,1807443.22390815,1807444.27098387,9,0,91,4,16
33,691,372.963429894298,0,0,1807446.11806467,1807447.16517504,9,0,72,4,0
33,692,580.266062403098,1,0,1807448.58870139,1807449.63575016,9,1,85,16,16
33,693,497.261164942756,0,0,1807451.24753359,1807452.29460276,9,0,64,4,8
33,694,615.849158959463,1,0,1807453.82409924,1807454.8711049,9,1,98,4,16
33,695,453.859126195312,1,0,1807456.56524379,1807457.61230296,9,1,90,4,4
33,696,447.922643506899,0,1,1807459.23586734,1807460.28293267,9,1,81,8,8
33,697,529.385387199,1,0,1807461.80060353,1807462.84766848,9,1,73,16,8
33,698,687.600492732599,0,0,1807464.51828048,1807465.56535582,9,0,67,8,8
33,699,463.288745144382,1,0,1807467.36539169,1807468.41244316,9,1,96,16,4
33,700,640.390805201605,0,0,1807470.05952751,1807471.1065963,9,0,92,8,4
33,701,484.639065107331,1,0,1807472.94191346,1807473.98903038,9,1,66,0,16
33,702,588.526939740404,1,0,1807475.53017885,1807476.57724572,9,1,62,16,4
33,703,453.253582818434,0,0,1807478.21256104,1807479.25962983,9,0,62,0,16
33,704,543.838361743838,0,0,1807480.80083336,1807481.84790869,9,0,67,16,0
33,705,381.688955007121,0,0,1807483.60093083,1807484.64793495,9,0,64,4,0
33,706,534.171991748735,0,0,1807486.17736021,1807487.22443708,9,0,70,0,16
33,707,386.908640619367,0,0,1807488.8597524,1807489.90682735,9,0,75,16,0
33,708,374.385860748589,0,0,1807491.43625107,1807492.48333026,9,0,75,8,16
33,709,450.757880927995,0,0,1807493.87157378,1807494.9187007,9,0,87,8,4
33,710,598.558637313545,0,0,1807496.50690065,1807497.55397213,9,0,90,8,0
33,711,502.13900511153,1,0,1807499.18928899,1807500.23634431,9,1,73,8,8
33,712,480.220098048449,1,0,1807501.74225693,1807502.78932764,9,1,87,8,8
33,713,461.977567989379,0,1,1807504.33052462,1807505.37759149,9,1,71,4,0
33,714,680.634239222854,1,0,1807506.91879001,1807507.96585996,9,1,81,0,0
33,715,564.556190511212,1,0,1807509.82470902,1807510.87177858,9,1,84,0,0
33,716,560.16917526722,0,0,1807512.60121146,1807513.64828488,9,0,88,4,4
33,717,393.144238274544,1,0,1807515.40124118,1807516.44830882,9,1,85,8,4
33,718,564.343692036346,0,0,1807517.9189259,1807518.96599123,9,0,89,0,4
33,719,545.828224858269,1,0,1807520.69544529,1807521.74250253,9,1,87,4,4
33,720,514.001962263137,1,0,1807523.40140441,1807524.44841083,9,1,70,4,8
