sub_id,Trial,RT,Resp,Error,Fix_onset,Disp_onset,block,tid,tloc,fish_setsize,bird_setsize
28,1,411.810531048104,1,0,1712087.57933922,1712088.62638414,1,1,67,0,0
28,2,499.462292063981,0,0,1712090.16752954,1712091.21459602,1,0,77,4,0
28,3,596.978678135201,0,0,1712092.89696204,1712093.94404007,1,0,66,16,16
28,4,624.611175851896,1,0,1712095.73228536,1712096.77937109,1,1,79,4,4
28,5,540.530697442591,0,0,1712098.57938772,1712099.62645805,1,0,63,0,8
28,6,449.64102958329,1,0,1712101.33235288,1712102.37942629,1,1,64,8,16
28,7,600.986506557092,1,0,1712103.86180163,1712104.90885772,1,1,68,16,16
28,8,656.181054189801,0,0,1712106.56771263,1712107.61477757,1,0,84,16,0
28,9,682.165919104591,0,0,1712109.42656284,1712110.47363394,1,0,97,4,4
28,10,745.969349052757,0,0,1712112.32071205,1712113.36778315,1,0,86,4,0
28,11,597.731661750004,0,0,1712115.30898806,1712116.35606147,1,0,77,4,0
28,12,492.223101202399,0,0,1712118.02664345,1712119.07372341,1,0,68,4,16
28,13,575.627588201314,0,0,1712120.69727509,1712121.74434657,1,0,89,8,16
28,14,607.005756115541,0,0,1712123.52089752,1712124.5679155,1,0,74,0,0
28,15,703.878102358431,0,0,1712126.2267527,1712127.27387269,1,0,61,16,0
28,16,609.316291753203,1,0,1712129.09737079,1712130.14444497,1,1,61,8,4
28,17,671.746180858463,1,0,1712131.87387824,1712132.92094549,1,1,76,0,8
28,18,658.37071230635,0,0,1712134.65037106,1712135.69744331,1,0,81,8,8
28,19,564.55957563594,0,0,1712137.47393421,1712138.52100685,1,0,62,4,0
28,20,1241.07110570185,1,0,1712140.19161039,1712141.23868495,1,1,91,16,4
28,21,531.70392755419,0,0,1712143.48577253,1712144.53283516,1,0,84,0,16
28,22,776.700012385845,0,0,1712146.13284879,1712147.17991989,1,0,94,4,16
28,23,430.738291470334,1,0,1712149.03878512,1712150.08584082,1,1,85,4,16
28,24,537.282781675458,1,0,1712151.56821231,1712152.61528649,1,1,99,0,4
28,25,529.505415353924,1,0,1712154.33294303,1712155.38001375,1,1,86,16,4
28,26,470.980570651591,1,0,1712156.95651203,1712158.00357428,1,1,67,8,0
28,27,661.90426889807,1,0,1712159.50953502,1712160.55654221,1,1,80,8,0
28,28,534.510677913204,1,0,1712162.34480599,1712163.39186515,1,1,71,0,4
28,29,660.859099822119,0,0,1712165.01541953,1712166.06248832,1,0,74,8,16
28,30,670.113946311176,1,0,1712167.9330964,1712168.98016634,1,1,81,16,0
28,31,605.323091847822,1,0,1712170.74488629,1712171.79196047,1,1,93,16,16
28,32,671.29462165758,0,0,1712173.49786993,1712174.54493333,1,0,89,4,16
28,33,612.52802121453,0,0,1712176.35672322,1712177.40379317,1,0,99,0,16
28,34,625.213639810681,0,0,1712179.20381403,1712180.25087705,1,0,62,8,4
28,35,535.327949794009,0,0,1712181.90971887,1712182.95679652,1,0,66,4,8
28,36,453.280065441504,0,0,1712184.50975329,1712185.55682554,1,0,77,4,8
28,37,497.030493803322,0,0,1712187.19213817,1712188.23921158,1,0,88,4,4
28,38,519.244281109422,1,0,1712189.80393122,1712190.85099808,1,1,65,0,4
28,39,482.848916901276,0,0,1712192.4863261,1712193.53337719,1,0,74,0,0
28,40,634.921585209668,0,0,1712195.14521297,1712196.19224249,1,0,99,4,16
28,41,697.522011818364,1,0,1712197.88636676,1712198.93344171,1,1,72,16,4
28,42,531.250058673322,1,0,1712200.72169855,1712201.76876773,1,1,93,0,16
28,43,590.724602108821,1,0,1712203.39231556,1712204.43938319,1,1,66,4,4
28,44,546.466795261949,0,0,1712206.13352594,1712207.18059858,1,0,64,0,4
28,45,615.365953417495,1,0,1712208.93355104,1712209.98062021,1,1,69,16,16
28,46,514.399162493646,1,0,1712211.74534824,1712212.79242281,1,1,86,4,4
28,47,644.108678679913,0,0,1712214.33361517,1712215.38068319,1,0,100,0,0
28,48,675.768637796864,1,0,1712217.16897815,1712218.21601807,1,1,88,4,8
28,49,587.613732786849,0,0,1712220.00424912,1712221.05133331,1,0,78,8,4
28,50,544.15279510431,0,0,1712222.79253291,1712223.83960439,1,0,65,8,4
28,51,496.295988326892,0,0,1712225.49845006,1712226.54550808,1,0,78,8,8
28,52,665.019757812843,1,0,1712228.08671006,1712229.13378656,1,1,92,4,0
28,53,503.268016269431,0,0,1712230.89849457,1712231.94557298,1,0,85,0,8
28,54,673.644423484802,0,0,1712233.52206472,1712234.56913891,1,0,80,16,8
28,55,637.560492614284,0,0,1712236.38090916,1712237.42797834,1,0,97,0,8
28,56,731.472873827443,0,0,1712239.12212763,1712240.16919642,1,0,70,16,8
28,57,751.351102953777,1,0,1712242.01627876,1712243.0633514,1,1,91,8,16
28,58,816.084983525798,0,0,1712244.95749176,1712246.00456132,1,0,80,8,0
28,59,816.197392065078,0,0,1712247.96929043,1712249.01635768,1,0,97,16,16
28,60,456.523361615837,1,0,1712250.94579587,1712251.99286313,1,1,86,4,8
28,61,784.958195174113,0,0,1712253.55763435,1712254.60465887,1,0,93,16,0
28,62,642.610025592148,1,0,1712256.45173313,1712257.49880885,1,1,80,16,8
28,63,998.245045775548,1,0,1712259.18122414,1712260.22824905,1,1,65,8,8
28,64,590.435881633312,0,0,1712262.39298193,1712263.44004648,1,0,77,8,0
28,65,515.761924209073,1,0,1712265.06360971,1712266.1106708,1,1,77,16,4
28,66,679.476966848597,1,0,1712267.69892003,1712268.74598766,1,1,89,16,8
28,67,728.025548625737,1,0,1712270.42836176,1712271.47544826,1,1,63,8,16
28,68,534.946453757584,0,0,1712273.22844191,1712274.27546951,1,0,92,0,8
28,69,724.024649243802,1,0,1712275.93431133,1712276.98139668,1,1,70,8,4
28,70,536.755770212039,1,0,1712278.82850751,1712279.87553126,1,1,77,16,0
28,71,441.888300701976,1,0,1712281.54613749,1712282.59321013,1,1,66,0,0
28,72,588.63156940788,0,1,1712284.2285266,1712285.27558923,1,1,71,8,8
28,73,537.042566342279,1,0,1712286.89912513,1712287.94622395,1,1,66,0,16
28,74,678.336327429861,1,0,1712289.66387472,1712290.71094775,1,1,84,8,0
28,75,747.999247862026,0,0,1712292.45212925,1712293.49923192,1,0,78,16,8
28,76,707.971392199397,0,0,1712295.4168726,1712296.46395602,1,0,81,8,8
28,77,733.257552841678,1,0,1712298.38170103,1712299.42868282,1,1,70,0,4
28,78,774.816783377901,1,0,1712301.20518834,1712302.25225213,1,1,91,16,4
28,79,658.814572263509,1,0,1712304.21697893,1712305.26405734,1,1,80,0,16
28,80,683.141795219854,1,0,1712306.98171427,1712308.02879615,1,1,91,4,8
28,81,659.612981136888,1,0,1712318.72303051,1712319.77009661,2,1,81,16,8
28,82,646.143197314814,0,0,1712321.4524711,1712322.49953873,2,0,89,0,16
28,83,648.99498806335,1,0,1712324.34662724,1712325.39368717,2,1,77,4,8
28,84,679.721416905522,0,0,1712327.18200715,1712328.22901589,2,0,93,0,4
28,85,602.611811831594,1,0,1712330.07609207,1712331.12316279,2,1,97,8,8
28,86,589.719469193369,1,0,1712332.79377864,1712333.84085436,2,1,69,0,8
28,87,775.026587303728,0,0,1712335.51145251,1712336.55852168,2,0,85,16,0
28,88,560.500547057018,1,0,1712338.47618662,1712339.52326349,2,1,78,8,8
28,89,563.197968760505,0,0,1712341.27622789,1712342.32329167,2,0,85,4,4
28,90,669.015652732924,0,0,1712343.95860507,1712345.00567078,2,0,80,4,4
28,91,556.827634805813,1,0,1712346.85281818,1712347.89983269,2,1,76,8,8
28,92,731.565264519304,0,0,1712349.64105,1712350.68809069,2,0,89,16,8
28,93,560.188343981281,0,0,1712352.53517765,1712353.58224606,2,0,71,0,16
28,94,442.835689755157,0,0,1712355.21756407,1712356.26462901,2,0,66,8,0
28,95,656.115225981921,1,0,1712357.88816991,1712358.93525795,2,1,61,16,8
28,96,510.40365267545,1,0,1712360.79409777,1712361.84116233,2,1,65,4,4
28,97,546.577664092183,0,0,1712363.40588774,1712364.45296038,2,0,85,0,0
28,98,621.085703372955,0,0,1712366.19415883,1712367.24122877,2,0,70,4,8
28,99,592.754886252806,1,0,1712368.97066358,1712370.01773006,2,1,74,4,0
28,100,512.573677580804,0,0,1712371.72363452,1712372.77070177,2,0,67,0,4
28,101,599.821999669075,0,0,1712374.3824902,1712375.4295536,2,0,70,4,4
28,102,608.347345143557,0,0,1712377.15903191,1712378.20605797,2,0,89,16,0
28,103,562.954673310742,1,0,1712379.84137983,1712380.88844478,2,1,68,0,0
28,104,691.513926256448,0,0,1712382.62966401,1712383.67670008,2,0,81,16,4
28,105,579.837521305308,0,0,1712385.54732702,1712386.59439273,2,0,98,4,0
28,106,683.452458586544,0,0,1712388.27674681,1712389.32382099,2,0,82,4,16
28,107,709.391128271818,0,0,1712391.18268083,1712392.22974308,2,0,89,16,8
28,108,719.905566889793,1,0,1712394.00624475,1712395.05331932,2,1,81,4,0
28,109,541.187055874616,1,0,1712396.8768459,1712397.92393471,2,1,72,8,16
28,110,620.043228846043,0,0,1712399.61806436,1712400.66517897,2,0,75,8,16
28,111,567.275475244969,1,0,1712402.44162367,1712403.48869554,2,1,94,0,4
28,112,744.223166024312,0,0,1712405.13577719,1712406.18284675,2,0,80,8,0
28,113,663.341328268871,1,0,1712408.05349717,1712409.10052747,2,1,81,4,16
28,114,1007.94490706176,1,0,1712410.88878354,1712411.93585041,2,1,98,16,16
28,115,608.469762839377,1,0,1712414.00646495,1712415.05353336,2,1,88,16,8
28,116,636.334006907418,0,0,1712416.80650391,1712417.85357078,2,0,72,4,0
28,117,586.349905934185,0,0,1712419.6535851,1712420.7006612,2,0,92,8,4
28,118,605.311157880351,0,0,1712422.31244732,1712423.35951342,2,0,87,16,4
28,119,585.293957963586,1,0,1712425.01841568,1712426.0654402,2,1,63,16,16
28,120,665.890924632549,0,0,1712427.85368203,1712428.9007489,2,0,83,8,8
28,121,557.588702533394,0,0,1712430.5831638,1712431.63019641,2,0,92,16,16
28,122,454.450346762314,1,1,1712433.23021697,1712434.27728345,2,0,89,8,16
28,123,718.75607362017,0,0,1712435.84201232,1712436.88907881,2,0,85,0,8
28,124,609.897582791746,1,0,1712438.70087447,1712439.74794519,2,1,95,0,0
28,125,560.873574344441,0,0,1712441.51266398,1712442.55975856,2,0,88,0,8
28,126,531.189619796351,0,0,1712444.32446234,1712445.3715269,2,0,92,0,16
28,127,579.171538818628,1,0,1712446.92448867,1712447.97154938,2,1,93,0,4
28,128,509.741519810632,1,0,1712449.60687316,1712450.65394504,2,1,76,16,0
28,129,785.707714036107,1,0,1712452.312778,1712453.35985603,2,1,93,16,4
28,130,621.817514067516,0,0,1712455.26575579,1712456.3128319,2,0,86,4,0
28,131,699.946881039068,0,0,1712458.07759842,1712459.12463257,2,0,90,16,0
28,132,573.690849589184,1,0,1712460.86582139,1712461.91289865,2,1,67,8,0
28,133,601.633626036346,1,0,1712463.63057983,1712464.67766441,2,1,61,8,16
28,134,596.500941552222,1,0,1712466.37177404,1712467.41884014,2,1,98,8,4
28,135,611.150630982593,1,0,1712469.05415584,1712470.10122309,2,1,69,8,8
28,136,603.49760693498,1,0,1712471.87772169,1712472.92479548,2,1,68,4,16
28,137,551.544815534726,1,0,1712474.73657652,1712475.78364955,2,1,98,0,0
28,138,752.592987148091,1,0,1712477.43072465,1712478.47778805,2,1,95,16,0
28,139,630.300513934344,0,0,1712480.37193534,1712481.41901068,2,0,98,4,8
28,140,591.835599625483,1,0,1712483.08960998,1712484.13668262,2,1,85,8,4
28,141,813.812173902988,1,0,1712485.85435687,1712486.90141834,2,1,91,8,4
28,142,671.462079742923,1,0,1712488.73673474,1712489.78380777,2,1,91,16,4
28,143,786.393714370206,0,0,1712491.64264066,1712492.68971984,2,0,62,4,4
28,144,750.082271639258,0,0,1712494.52504047,1712495.57210888,2,0,88,16,16
28,145,742.809204384685,0,0,1712497.41921778,1712498.46626656,2,0,62,4,8
28,146,499.530430184677,0,0,1712500.40748494,1712501.45453025,2,0,67,0,0
28,147,568.082353333011,0,0,1712502.98396629,1712504.03103085,2,0,71,0,8
28,148,647.674187086523,0,0,1712505.72516551,1712506.77223353,2,0,89,0,16
28,149,751.408462179825,1,0,1712508.46637512,1712509.51343352,2,1,70,4,16
28,150,677.713460754603,0,0,1712511.38407662,1712512.4311843,2,0,99,16,4
28,151,569.84354974702,1,0,1712514.28997215,1712515.33704864,2,1,75,16,16
28,152,649.634023429826,1,0,1712516.93706881,1712517.98413606,2,1,69,4,16
28,153,582.475273869932,1,0,1712519.83121455,1712520.8782845,2,1,66,4,8
28,154,759.475704049692,1,0,1712522.58418318,1712523.63124889,2,1,71,0,8
28,155,482.608701102436,0,0,1712525.59604729,1712526.64305796,2,0,89,0,4
28,156,440.465484978631,1,0,1712528.2901269,1712529.3372084,2,1,63,0,16
28,157,655.836129095405,1,0,1712530.96075546,1712532.00782463,2,1,89,8,16
28,158,560.528264380991,1,0,1712533.79608148,1712534.84319146,2,1,80,8,0
28,159,522.920658113435,0,1,1712536.572587,1712537.61964963,2,1,71,8,4
28,160,771.593505283818,0,0,1712539.19613021,1712540.24320478,2,0,77,8,0
28,161,595.161662204191,1,0,1712552.3962922,1712553.44336523,3,1,98,4,4
28,162,573.345539625734,1,0,1712555.1140038,1712556.1610441,3,1,73,16,0
28,163,466.652839444578,0,0,1712557.77282252,1712558.81989247,3,0,73,0,8
28,164,719.656882341951,0,0,1712560.37285424,1712561.41992958,3,0,78,8,4
28,165,533.744990592822,0,0,1712563.29057307,1712564.33761491,3,0,93,4,4
28,166,667.126264190301,0,0,1712565.96115582,1712567.00822461,3,0,99,16,8
28,167,507.645022356883,1,0,1712568.83177698,1712569.87884885,3,1,97,0,0
28,168,664.086997509003,1,0,1712571.45534098,1712572.50240862,3,1,82,4,8
28,169,552.59306402877,0,0,1712574.2906543,1712575.33773194,3,0,74,0,4
28,170,721.518938429654,1,0,1712576.99657338,1712578.04365026,3,1,81,8,8
28,171,442.121971864253,1,0,1712579.87896165,1712580.9260339,3,1,64,0,4
28,172,516.152659663931,0,0,1712582.43193266,1712583.47899953,3,0,63,0,8
28,173,566.911687143147,1,0,1712585.12607848,1712586.17315305,3,1,95,8,16
28,174,499.54890832305,1,0,1712587.79670396,1712588.84377044,3,1,65,4,0
28,175,782.322367187589,0,0,1712590.54966489,1712591.5967433,3,0,98,16,16
28,176,514.238248579204,1,0,1712593.49088674,1712594.53795938,3,1,67,8,0
28,177,758.247293764725,0,0,1712596.2320898,1712597.29093031,3,0,70,4,0
28,178,652.314891340211,1,0,1712599.14977244,1712600.19684239,3,1,86,8,16
28,179,692.717699101195,0,0,1712601.97334099,1712603.02040362,3,0,79,16,0
28,180,483.340127160773,0,0,1712604.80865892,1712605.85573618,3,0,68,0,0
28,181,464.959781151265,0,0,1712607.54987507,1712608.59694156,3,0,77,0,8
28,182,564.785547787324,1,0,1712610.1969598,1712611.24408441,3,1,94,8,0
28,183,706.213275436312,0,0,1712612.85581895,1712613.90288004,3,0,61,16,8
28,184,599.342338275164,0,0,1712615.62055121,1712616.6676227,3,0,62,16,16
28,185,1291.23806301504,0,0,1712618.3264676,1712619.37354602,3,0,93,16,16
28,186,540.126103209332,0,0,1712621.82064584,1712622.86768768,3,0,74,4,16
28,187,599.1902789101,1,0,1712624.47947495,1712625.52654683,3,1,68,8,8
28,188,470.5740516074,0,0,1712627.30306236,1712628.35010844,3,0,65,0,0
28,189,704.580656019971,1,0,1712629.99719432,1712631.04425772,3,1,62,16,8
28,190,737.464791163802,1,0,1712632.95016749,1712633.99723359,3,1,79,16,0
28,191,583.651714492589,0,0,1712635.76197355,1712636.8090254,3,0,61,0,4
28,192,772.348413942382,1,0,1712638.55022385,1712639.5972911,3,1,72,16,16
28,193,872.511021327227,0,0,1712641.51496797,1712642.56203445,3,0,75,8,4
28,194,539.614490233362,1,0,1712644.46794152,1712645.51501532,3,1,67,4,0
28,195,755.54640754126,1,0,1712647.11503857,1712648.16210313,3,1,86,8,0
28,196,1167.21596010029,0,0,1712650.00918162,1712651.0562508,3,0,97,4,16
28,197,515.43547748588,1,0,1712653.42098822,1712654.4680574,3,1,85,8,16
28,198,502.513877581805,1,0,1712656.17396493,1712657.22107453,3,1,93,8,4
28,199,688.917749328539,1,0,1712658.90340513,1712659.95047046,3,1,100,8,0
28,200,520.674026105553,1,0,1712661.83284794,1712662.87992482,3,1,67,16,8
28,201,622.353379614651,1,0,1712664.42111141,1712665.46818636,3,1,71,4,4
28,202,435.896383365616,1,0,1712667.25643704,1712668.30354933,3,1,96,0,16
28,203,436.640512896702,1,0,1712669.89176853,1712670.93883924,3,1,97,8,16
28,204,710.084442980587,0,0,1712672.46826951,1712673.51533984,3,0,91,8,8
28,205,510.672740172595,0,0,1712675.25654714,1712676.30360939,3,0,73,16,4
28,206,613.567030755803,0,0,1712677.95067987,1712678.99775329,3,0,95,4,0
28,207,640.958928037435,1,0,1712680.77424842,1712681.82132452,3,1,70,0,16
28,208,663.293207995594,1,0,1712683.5507474,1712684.59782004,3,1,79,4,8
28,209,689.207624876872,1,0,1712686.29195893,1712687.33902772,3,1,100,8,8
28,210,531.435994664207,0,0,1712689.20963695,1712690.25670844,3,0,78,16,4
28,211,520.623211283237,1,0,1712691.9155545,1712692.96262329,3,1,73,16,0
28,212,464.954006718472,1,0,1712694.58617689,1712695.63325839,3,1,65,0,4
28,213,700.244455831125,0,0,1712697.15090808,1712698.19797803,3,0,92,0,16
28,214,734.130259603262,0,0,1712700.00976984,1712701.05688521,3,0,63,4,16
28,215,809.388972586021,0,0,1712702.82155935,1712703.86862968,3,0,62,8,16
28,216,552.282785531133,1,0,1712705.86865663,1712706.91572311,3,1,80,16,16
28,217,482.35693690367,0,0,1712708.6216318,1712709.66869905,3,0,65,4,8
28,218,560.537118464708,0,0,1712711.18635875,1712712.23343832,3,0,100,8,4
28,219,489.424050087109,1,0,1712713.88051342,1712714.92758068,3,1,75,0,16
28,220,473.424687515944,0,0,1712716.49231148,1712717.53937834,3,0,95,0,16
28,221,525.716244708747,0,0,1712719.10411492,1712720.15117563,3,0,72,16,4
28,222,481.727525824681,1,0,1712721.71601229,1712722.76298677,3,1,82,0,4
28,223,683.483640430495,0,0,1712724.39828515,1712725.44535817,3,0,100,4,8
28,224,617.357356473804,0,0,1712727.15125801,1712728.19832603,3,0,63,4,8
28,225,621.221979614347,0,0,1712729.99834767,1712731.04541569,3,0,63,4,4
28,226,548.545969650149,0,0,1712732.71602538,1712733.76309263,3,0,77,8,4
28,227,453.566091600806,0,0,1712735.41017582,1712736.45724577,3,0,74,4,16
28,228,661.470802733675,0,0,1712737.91609306,1712738.963163,3,0,78,4,0
28,229,613.019616343081,1,0,1712740.78670883,1712741.83380188,3,1,83,0,8
28,230,604.723322670907,1,0,1712743.4809047,1712744.52792884,3,1,72,4,16
28,231,582.146517233923,1,0,1712746.1514809,1712747.19854892,3,1,69,16,4
28,232,705.843328032643,1,0,1712748.84563173,1712749.89271938,3,1,94,16,0
28,233,624.645437346771,1,0,1712751.78683587,1712752.83390235,3,1,82,0,0
28,234,768.250504275784,0,0,1712754.5751085,1712755.62217459,3,0,99,8,8
28,235,517.551607685164,1,0,1712757.43395755,1712758.48102904,3,1,63,4,4
28,236,597.113414201885,0,0,1712760.1751841,1712761.22224173,3,0,99,0,8
28,237,524.030500557274,1,0,1712762.86931453,1712763.91639179,3,1,65,0,0
28,238,674.064800841734,0,0,1712765.57523476,1712766.62230471,3,0,71,8,0
28,239,649.274469586089,0,0,1712768.4929201,1712769.53998273,3,0,71,16,4
28,240,668.010904686525,1,0,1712771.28118965,1712772.32825074,3,1,71,16,8
28,241,715.18132602796,1,0,1712784.49310103,1712785.54016751,4,1,94,16,4
28,242,467.703012749553,1,0,1712787.43435945,1712788.48138744,4,1,83,4,8
28,243,506.805037613958,1,0,1712789.98728004,1712791.03435614,4,1,76,8,8
28,244,625.284857582301,0,0,1712792.65793901,1712793.70497315,4,0,99,0,8
28,245,721.139366971329,0,0,1712795.36381497,1712796.4108853,4,0,93,16,0
28,246,691.878099460155,0,0,1712798.24625521,1712799.29327742,4,0,91,4,16
28,247,396.945648360997,1,0,1712801.01094051,1712802.05801661,4,1,85,0,0
28,248,577.660951996222,0,0,1712803.64627353,1712804.69333694,4,0,73,16,16
28,249,519.144961144775,0,0,1712806.46982129,1712807.51689547,4,0,65,16,4
28,250,563.947487622499,1,0,1712809.16398251,1712810.21105053,4,1,94,4,0
28,251,602.988303638995,0,0,1712811.81106377,1712812.85814296,4,0,99,0,0
28,252,615.345935337245,0,0,1712814.64639133,1712815.69346012,4,0,73,16,8
28,253,484.350649407133,0,0,1712817.39935957,1712818.44643568,4,0,65,0,4
28,254,514.687113231048,0,0,1712820.01116533,1712821.05822603,4,0,77,0,4
28,255,918.851851951331,0,0,1712822.67001562,1712823.71711443,4,0,100,8,4
28,256,421.665146481246,1,0,1712825.76417129,1712826.81124047,4,1,77,0,4
28,257,477.288540685549,1,0,1712828.25831142,1712829.30538829,4,1,75,4,4
28,258,554.748845519498,1,0,1712830.87011409,1712831.91717942,4,1,85,4,16
28,259,670.164376264438,1,0,1712833.59954967,1712834.64661961,4,1,89,4,16
28,260,499.432650161907,0,0,1712836.36429155,1712837.41137228,4,0,90,0,0
28,261,596.270349808037,1,0,1712839.10549462,1712840.15256765,4,1,98,0,16
28,262,589.213630417362,1,0,1712841.87024382,1712842.91730992,4,1,95,4,4
28,263,725.779301254079,0,0,1712844.64679169,1712845.69382006,4,0,70,16,8
28,264,640.264073386788,0,0,1712847.42324794,1712848.47032212,4,0,73,16,8
28,265,534.156898967922,0,0,1712850.11740223,1712851.16445139,4,0,63,0,16
28,266,680.053638294339,0,0,1712852.87036855,1712853.91744735,4,0,99,16,0
28,267,573.589219944552,0,0,1712855.74097739,1712856.78806043,4,0,61,16,16
28,268,746.502519585192,1,0,1712858.39984231,1712859.44691842,4,1,93,4,8
28,269,552.42676101625,0,0,1712861.29399576,1712862.34106532,4,0,86,8,16
28,270,635.9906217549,1,0,1712864.08226569,1712865.12933102,4,1,62,8,4
28,271,985.57444056496,0,0,1712866.95288378,1712867.99995218,4,0,98,8,0
28,272,1316.86337431893,1,0,1712870.12939223,1712871.17651414,4,1,88,8,16
28,273,612.674691248685,1,0,1712873.56473149,1712874.61179566,4,1,77,16,8
28,274,557.159471092746,0,0,1712876.40005058,1712877.44712168,4,0,98,0,4
28,275,608.576011843979,0,0,1712879.02361573,1712880.07068106,4,0,78,16,8
28,276,588.476815260947,1,0,1712881.77658051,1712882.8236597,4,1,68,16,4
28,277,465.4444467742,0,0,1712884.47074019,1712885.51780898,4,0,65,8,0
28,278,531.740883830935,1,0,1712887.14136066,1712888.18845255,4,1,64,16,16
28,279,544.318328378722,1,0,1712889.82373784,1712890.87081279,4,1,79,0,0
28,280,718.314908444881,0,0,1712892.51789136,1712893.56495708,4,0,93,4,0
28,281,482.616400578991,1,0,1712895.38851753,1712896.43558671,4,1,87,8,0
28,282,480.298550566658,1,0,1712898.07089818,1712899.11797582,4,1,84,0,8
28,283,705.615431303158,0,0,1712900.75328229,1712901.80034877,4,0,70,4,16
28,284,672.696264460683,0,0,1712903.60037271,1712904.64744382,4,0,79,8,4
28,285,650.045161601156,0,0,1712906.32981445,1712907.37688363,4,0,81,8,4
28,286,490.540821803734,1,0,1712909.10632075,1712910.15338877,4,1,82,4,4
28,287,430.538111831993,1,0,1712911.80046195,1712912.84753613,4,1,95,0,16
28,288,645.256247138605,1,0,1712914.34167202,1712915.3887412,4,1,93,8,0
28,289,461.321130162105,1,0,1712917.10640544,1712918.1534827,4,1,84,4,16
28,290,541.673646541312,1,0,1712919.82415129,1712920.87115887,4,1,78,16,16
28,291,583.777211606503,0,0,1712922.62411942,1712923.67119321,4,0,76,8,16
28,292,630.42254652828,1,0,1712925.2594509,1712926.30651623,4,1,82,8,8
28,293,591.911052120849,0,0,1712927.94183809,1712928.98893421,4,0,61,8,4
28,294,557.156391441822,0,0,1712930.70657767,1712931.75363876,4,0,66,4,0
28,295,575.587552273646,0,0,1712933.48307742,1712934.53014621,4,0,87,4,8
28,296,480.654639424756,0,0,1712936.18898649,1712937.23605875,4,0,86,4,0
28,297,450.297772884369,0,0,1712938.77724726,1712939.82432375,4,0,74,0,8
28,298,492.213477147743,1,0,1712941.47140155,1712942.5184715,4,1,85,4,0
28,299,652.17322576791,1,0,1712944.17731486,1712945.22438981,4,1,91,0,8
28,300,466.144690988585,1,0,1712946.93028695,1712947.9773646,4,1,72,8,0
28,301,540.362854488194,0,0,1712949.54208269,1712950.58915264,4,0,76,16,0
28,302,667.286793002859,1,0,1712952.18922632,1712953.23624353,4,1,99,16,16
28,303,516.176912235096,0,0,1712954.97744121,1712956.02451539,4,0,70,0,0
28,304,552.856377558783,1,0,1712957.71871549,1712958.76574925,4,1,65,16,4
28,305,548.443954903632,1,0,1712960.40103377,1712961.44810756,4,1,93,0,16
28,306,565.714458469301,1,0,1712963.01283182,1712964.05989946,4,1,77,8,8
28,307,601.853823522106,0,0,1712965.68345537,1712966.73059577,4,0,86,16,0
28,308,499.33063541539,1,0,1712968.50701699,1712969.55408616,4,1,63,0,8
28,309,487.946185050532,0,0,1712971.18942535,1712972.23646989,4,0,63,4,4
28,310,475.475374609232,0,0,1712973.82472796,1712974.8717956,4,0,76,4,8
28,311,395.902019226924,1,0,1712976.49534651,1712977.54241954,4,1,67,0,16
28,312,648.983824066818,0,0,1712979.10719615,1712980.15422182,4,0,98,8,16
28,313,620.176425436512,1,0,1712981.96599362,1712983.01306472,4,1,89,4,4
28,314,740.743888774887,1,0,1712984.64842855,1712985.69545499,4,1,72,8,8
28,315,748.727979138494,0,0,1712987.54253194,1712988.58959881,4,0,82,16,0
28,316,487.619738094509,1,0,1712990.40139294,1712991.44845749,4,1,72,8,8
28,317,542.827759403735,1,0,1712993.06031329,1712994.10731856,4,1,77,8,16
28,318,433.129668934271,0,0,1712995.71909698,1712996.76616308,4,0,95,0,4
28,319,534.476031316444,1,1,1712998.29560143,1712999.34266945,4,0,100,16,4
28,320,479.787322459742,1,0,1713001.06033023,1713002.10740672,4,1,67,4,8
28,321,419.73148775287,1,0,1713009.67225647,1713010.71928831,5,1,78,0,4
28,322,462.729317136109,1,0,1713012.33105826,1713013.37812667,5,1,68,4,16
28,323,486.541077494621,0,1,1713014.91932442,1713015.96638705,5,1,96,4,16
28,324,532.668254803866,1,0,1713017.48408371,1713018.53113517,5,1,84,8,8
28,325,691.886183340102,0,0,1713020.23705272,1713021.28410996,5,0,99,8,4
28,326,748.085864121094,0,0,1713023.06059739,1713024.10766387,5,0,93,0,4
28,327,569.573692278937,1,0,1713025.93121471,1713026.97828927,5,1,95,4,8
28,328,449.929365189746,1,0,1713028.6018448,1713029.64891129,5,1,94,16,0
28,329,476.954394718632,1,0,1713031.26068817,1713032.30775619,5,1,96,0,0
28,330,610.118935583159,0,0,1713033.96666846,1713035.01368836,5,0,87,16,4
28,331,556.270596338436,0,0,1713036.73133913,1713037.778411,5,0,64,16,8
28,332,600.909514352679,1,0,1713039.35490736,1713040.4019673,5,1,61,0,8
28,333,480.379007291049,0,0,1713042.19022799,1713043.23730025,5,0,65,4,4
28,334,609.678925247863,1,0,1713044.84908252,1713045.89615169,5,1,89,4,4
28,335,914.275435963646,0,0,1713047.68441701,1713048.73148079,5,0,61,8,4
28,336,463.913457002491,1,0,1713050.82562261,1713051.8727426,5,1,64,4,4
28,337,451.676703058183,1,0,1713053.41389223,1713054.46095602,5,1,64,4,0
28,338,658.505833474919,0,0,1713055.95508922,1713057.00216879,5,0,98,16,0
28,339,588.384424569085,1,0,1713058.86101554,1713059.90808548,5,1,68,0,0
28,340,524.746528128162,1,0,1713061.57869556,1713062.62576243,5,1,67,0,16
28,341,634.184384951368,1,0,1713064.2492991,1713065.29638714,5,1,94,0,0
28,342,722.449003951624,1,0,1713067.11993027,1713068.16700291,5,1,81,0,4
28,343,698.997567174956,1,0,1713070.00230622,1713071.04937847,5,1,79,8,4
28,344,495.589199941605,1,0,1713072.83764648,1713073.88471489,5,1,70,8,16
28,345,515.346551313996,0,0,1713075.42590263,1713076.47298297,5,0,69,8,16
28,346,696.003725752234,0,0,1713078.06123989,1713079.10830945,5,0,81,0,4
28,347,723.029525252059,0,0,1713080.92008934,1713081.96716698,5,0,95,16,4
28,348,701.298863859847,0,0,1713083.83777429,1713084.88484886,5,0,84,16,0
28,349,593.089802423492,0,0,1713086.77897805,1713087.82605723,5,0,71,0,16
28,350,513.984559336677,0,0,1713089.47313272,1713090.52019574,5,0,72,8,0
28,351,546.068745665252,1,0,1713092.08493116,1713093.13200111,5,1,65,8,8
28,352,643.097001127899,1,0,1713094.73202051,1713095.77908661,5,1,87,16,16
28,353,620.18720456399,1,0,1713097.49676047,1713098.54382772,5,1,93,4,8
28,354,539.933622814715,0,0,1713100.2262561,1713101.27327985,5,0,73,0,8
28,355,529.309085337445,0,0,1713102.89682345,1713103.94388647,5,0,64,16,8
28,356,438.231171574444,0,0,1713105.60273753,1713106.64982326,5,0,64,16,16
28,357,747.02298711054,1,0,1713108.19100099,1713109.23807132,5,1,92,4,16
28,358,576.684306142852,1,0,1713111.07337617,1713112.12045728,5,1,99,0,8
28,359,724.608635064214,0,0,1713113.7322511,1713114.77931296,5,0,78,16,16
28,360,495.290085207671,1,0,1713116.7087731,1713117.75582187,5,1,85,0,16
28,361,517.356817610562,0,0,1713119.36759914,1713120.41467217,5,0,83,8,8
28,362,464.148668339476,0,0,1713122.12057546,1713123.16764426,5,0,67,0,16
28,363,612.531870603561,0,0,1713124.74412792,1713125.79121134,5,0,88,4,0
28,364,573.641959577799,0,0,1713127.54416533,1713128.59123721,5,0,62,4,0
28,365,459.978771163151,0,0,1713130.26185383,1713131.30896035,5,0,78,16,8
28,366,759.116535773501,1,0,1713132.92070527,1713133.96777753,5,1,79,16,0
28,367,779.819736024365,1,0,1713135.76779147,1713136.81490722,5,1,80,8,0
28,368,938.084886409342,0,0,1713138.68547488,1713139.73255021,5,0,90,8,8
28,369,456.195374717936,1,0,1713141.79142653,1713142.83845836,5,1,65,0,4
28,370,721.791875548661,0,0,1713144.32083485,1713145.36790634,5,0,81,16,8
28,371,478.448043344542,1,0,1713147.10910478,1713148.15617627,5,1,70,16,4
28,372,699.518804205582,1,0,1713149.72091323,1713150.76796739,5,1,94,16,16
28,373,481.291749980301,0,0,1713152.55622924,1713153.60330034,5,0,64,8,0
28,374,515.762694180012,1,0,1713155.23860873,1713156.28571294,5,1,88,16,16
28,375,566.141380229965,0,0,1713157.89752716,1713158.94453859,5,0,88,0,0
28,376,1122.70407937467,1,0,1713160.63867979,1713161.68577669,5,1,82,8,0
28,377,539.457041304559,1,0,1713163.87400412,1713164.92107984,5,1,95,16,0
28,378,642.286658287048,0,0,1713166.47403469,1713167.52110386,5,0,80,4,16
28,379,483.256590552628,1,0,1713169.27406402,1713170.32114359,5,1,76,8,0
28,380,603.438322898,0,0,1713171.88586477,1713172.93297359,5,0,98,4,4
28,381,557.577923638746,1,1,1713174.69766582,1713175.74472768,5,0,62,4,8
28,382,562.510813353583,0,0,1713177.43886157,1713178.48594884,5,0,66,8,16
28,383,573.730885516852,1,0,1713180.20361154,1713181.25067764,5,1,62,4,4
28,384,497.506690444425,1,0,1713183.00362933,1713184.05071159,5,1,75,0,8
28,385,742.986286524683,0,0,1713185.58014417,1713186.62721296,5,0,80,8,4
28,386,428.192544728518,1,0,1713188.48606164,1713189.53313543,5,1,67,16,8
28,387,561.926057562232,0,0,1713191.13314867,1713192.18022324,5,0,88,4,8
28,388,541.459223022684,1,0,1713193.80385461,1713194.85084256,5,1,61,0,0
28,389,502.660162746906,0,0,1713196.47439886,1713197.52145918,5,0,97,0,16
28,390,481.893828837201,0,0,1713199.03912465,1713200.08619884,5,0,88,4,0
28,391,788.618018850684,0,0,1713201.72151377,1713202.76858064,5,0,92,16,4
28,392,545.267642010003,0,0,1713204.60389665,1713205.65096082,5,0,77,16,4
28,393,527.626421069726,0,0,1713207.22745911,1713208.2745252,5,0,78,4,16
28,394,501.491421367973,0,0,1713209.98042735,1713211.0275023,5,0,84,8,8
28,395,1262.7952224575,1,0,1713212.54517393,1713213.5922612,5,1,71,8,16
28,396,1215.34416475333,0,0,1713215.98049703,1713217.02757275,5,0,82,0,8
28,397,1298.05841646157,1,0,1713219.30994623,1713220.35702157,5,1,96,4,0
28,398,806.014404632151,1,0,1713222.6746902,1713223.72176091,5,1,95,8,4
28,399,673.33183507435,1,0,1713225.63942816,1713226.68650773,5,1,74,4,8
28,400,723.584253806621,0,0,1713228.4041739,1713229.45123691,5,0,92,8,16
28,401,691.687158541754,1,0,1713247.88675634,1713248.93383129,6,1,97,0,8
28,402,664.721798151731,0,0,1713250.63978078,1713251.68680992,6,0,100,8,4
28,403,572.709199041128,1,0,1713253.38094343,1713254.42801183,6,1,90,16,16
28,404,500.192563049495,1,0,1713256.11037515,1713257.15745626,6,1,98,4,4
28,405,615.215818397701,1,0,1713258.71041226,1713259.75747875,6,1,69,16,4
28,406,728.532927110791,0,0,1713261.43984746,1713262.4869432,6,0,83,16,8
28,407,619.461552938446,0,0,1713264.28694828,1713265.33402708,6,0,83,4,16
28,408,711.978835752234,0,0,1713267.01639617,1713268.06346689,6,0,76,16,0
28,409,448.222833219916,0,0,1713269.87525948,1713270.92231942,6,0,84,4,8
28,410,510.554942069575,0,0,1713272.39292572,1713273.43999721,6,0,73,0,16
28,411,749.343916773796,0,0,1713275.04001045,1713276.08709002,6,0,99,8,8
28,412,630.826755659655,0,0,1713278.01657903,1713279.06359008,6,0,93,8,4
28,413,615.057984599844,0,0,1713280.84008405,1713281.88715092,6,0,98,16,0
28,414,647.224937332794,1,0,1713283.64011416,1713284.68719103,6,1,98,0,8
28,415,571.364145725966,0,0,1713286.51073609,1713287.55781066,6,0,78,4,4
28,416,582.890646765009,0,0,1713289.28728242,1713290.33437162,6,0,82,8,0
28,417,580.396099481732,0,0,1713292.06374329,1713293.11081786,6,0,62,16,4
28,418,596.800056053326,0,0,1713294.79319388,1713295.84026268,6,0,68,16,0
28,419,741.548842051998,1,0,1713297.56969325,1713298.61675973,6,1,92,16,4
28,420,712.516241241246,0,0,1713300.52266642,1713301.56973714,6,0,81,16,4
28,421,480.765123385936,1,0,1713303.3462492,1713304.39336034,6,1,65,0,4
28,422,574.409956578165,1,0,1713306.02861753,1713307.07568709,6,1,86,8,8
28,423,541.142015485093,1,0,1713308.7698229,1713309.81689247,6,1,78,8,8
28,424,563.403537729755,0,0,1713311.48750832,1713312.53457519,6,0,95,8,16
28,425,461.465490283445,1,0,1713314.1816476,1713315.22872216,6,1,95,8,4
28,426,797.451332909986,0,0,1713316.73462015,1713317.78169202,6,0,80,16,8
28,427,445.56660274975,1,0,1713319.69936119,1713320.74642998,6,1,76,16,16
28,428,872.557216556743,0,0,1713322.35820147,1713323.40529452,6,0,61,0,4
28,429,582.150366622955,1,0,1713325.28766315,1713326.33472886,6,1,68,4,0
28,430,548.234151210636,1,0,1713327.94650497,1713328.99359648,6,1,75,4,0
28,431,730.124740628526,1,0,1713330.59360548,1713331.64067505,6,1,95,4,16
28,432,2204.64917924255,0,0,1713333.42895422,1713334.47601108,6,0,64,0,0
28,433,645.169246010482,1,0,1713337.75839957,1713338.80546221,6,1,83,16,8
28,434,414.117987034842,1,0,1713340.5584343,1713341.60550732,6,1,75,16,0
28,435,485.20256835036,1,0,1713343.06433613,1713344.11141224,6,1,74,0,16
28,436,643.224808154628,1,0,1713345.80557423,1713346.85261068,6,1,100,4,8
28,437,570.090694818646,1,0,1713348.65263963,1713349.69971728,6,1,83,8,0
28,438,588.96225085482,1,0,1713351.40561095,1713352.45274634,6,1,69,4,16
28,439,618.615408893675,0,0,1713354.14682826,1713355.19387896,6,0,62,8,4
28,440,804.376780753955,0,0,1713356.92332339,1713357.9703968,6,0,82,16,16
28,441,667.953160358593,0,0,1713359.81747799,1713360.86455525,6,0,90,4,4
28,442,495.442914776504,1,0,1713362.54691973,1713363.59398891,6,1,62,4,8
28,443,553.8372581359,1,0,1713365.1587251,1713366.20578542,6,1,80,8,0
28,444,597.575367428362,1,0,1713367.89992085,1713368.94700196,6,1,91,0,16
28,445,577.690209029242,1,0,1713370.57059829,1713371.61761665,6,1,89,4,0
28,446,540.428682696074,1,0,1713373.29998652,1713374.34705839,6,1,74,16,4
28,447,541.765652131289,0,0,1713375.92354475,1713376.97064895,6,0,64,8,4
28,448,674.585652770475,1,0,1713378.61769981,1713379.6647686,6,1,93,8,0
28,449,742.443491471931,0,1,1713381.35890403,1713382.40597474,6,1,92,16,8
28,450,534.722406417131,1,0,1713384.2295737,1713385.27659822,6,1,81,0,16
28,451,716.623774729669,0,0,1713386.98250652,1713388.02957339,6,0,96,4,8
28,452,544.661713531241,0,0,1713389.93548623,1713390.98254733,6,0,76,4,16
28,453,498.026772635058,1,0,1713392.70021349,1713393.74728998,6,1,94,0,4
28,454,617.601036792621,0,0,1713395.42965754,1713396.47672287,6,0,85,0,4
28,455,619.786845054477,1,0,1713398.14733641,1713399.19440713,6,1,96,4,0
28,456,440.471644280478,1,0,1713400.98266436,1713402.02972853,6,1,66,8,8
28,457,640.560493338853,1,0,1713403.5944574,1713404.64152004,6,1,100,16,16
28,458,732.641230337322,0,0,1713406.40625538,1713407.4533465,6,0,92,8,8
28,459,648.852552520111,0,0,1713409.2651106,1713410.31219633,6,0,89,16,0
28,460,579.879097174853,1,0,1713412.01808808,1713413.06516072,6,1,92,0,0
28,461,507.510286057368,0,0,1713414.70046834,1713415.74753982,6,0,75,0,0
28,462,579.074143664911,0,0,1713417.27696701,1713418.32404543,6,0,97,8,16
28,463,526.315629016608,0,0,1713419.99464935,1713421.04172045,6,0,66,4,8
28,464,625.42729312554,1,0,1713422.71233437,1713423.759387,6,1,69,8,16
28,465,536.355795804411,0,0,1713425.45353898,1713426.50061201,6,0,95,16,16
28,466,490.674788365141,0,0,1713428.21831166,1713429.26534542,6,0,87,0,8
28,467,597.847534809262,0,0,1713430.8418337,1713431.8889741,6,0,73,0,16
28,468,591.096859425306,1,0,1713433.54774817,1713434.59481465,6,1,72,0,4
28,469,504.389022476971,1,0,1713436.31248851,1713437.3595573,6,1,76,4,4
28,470,466.103500220925,1,0,1713438.95957055,1713440.00664126,6,1,74,0,8
28,471,542.762316064909,0,0,1713441.65373446,1713442.70085522,6,0,98,8,16
28,472,587.477841414511,1,0,1713444.43023537,1713445.47730377,6,1,94,0,8
28,473,616.131255868822,0,0,1713447.21850222,1713448.26556716,6,0,79,0,0
28,474,463.53696542792,1,0,1713450.04207885,1713451.08913416,6,1,76,4,0
28,475,512.760768411681,0,0,1713452.65390115,1713453.70092721,6,0,79,4,4
28,476,626.823546364903,0,0,1713455.40683975,1713456.45389545,6,0,91,16,8
28,477,448.344096075743,1,0,1713458.24216269,1713459.28923456,6,1,86,8,0
28,478,606.54341802001,0,0,1713460.80689734,1713461.85396536,6,0,61,4,16
28,479,655.851527582854,0,0,1713463.47750934,1713464.52458968,6,0,68,8,16
28,480,513.818256324157,0,0,1713466.32468138,1713467.37167857,6,0,98,0,0
28,481,770.457485690713,1,0,1713489.63075922,1713490.67782955,7,1,93,16,8
28,482,593.583707232028,1,0,1713492.64255866,1713493.68963515,7,1,72,16,0
28,483,538.960826583207,1,0,1713495.31318029,1713496.36025139,7,1,95,16,8
28,484,593.960969010368,1,0,1713498.01909668,1713499.0661697,7,1,83,4,8
28,485,477.099525043741,1,0,1713500.83089196,1713501.87795536,7,1,92,0,16
28,486,602.973675122485,0,0,1713503.52504394,1713504.57211042,7,0,77,0,4
28,487,491.50514905341,1,0,1713506.20742651,1713507.25449607,7,1,88,0,4
28,488,454.625504091382,0,0,1713508.91333558,1713509.96041092,7,0,94,4,4
28,489,478.763711173087,1,0,1713511.52513479,1713512.5722032,7,1,98,8,8
28,490,403.779860120267,1,0,1713514.0781058,1713515.12517228,7,1,66,8,0
28,491,501.921807881445,1,0,1713516.7369661,1713517.78402912,7,1,98,4,0
28,492,487.831466598436,0,0,1713519.4311177,1713520.47822768,7,0,93,0,0
28,493,599.607191514224,0,0,1713522.12526005,1713523.17233193,7,0,70,0,8
28,494,451.879962580279,1,0,1713524.84293469,1713525.89000541,7,1,84,0,4
28,495,1341.35921020061,0,0,1713527.36071488,1713528.40768397,7,0,70,8,16
28,496,548.566757468507,1,0,1713530.78418541,1713531.83125536,7,1,88,0,16
28,497,518.658370478079,0,0,1713533.44309345,1713534.4901018,7,0,65,8,16
28,498,772.662926698104,0,0,1713536.09018973,1713537.13719885,7,0,92,8,16
28,499,542.397373123094,1,0,1713538.93722241,1713539.98428427,7,1,98,16,16
28,500,536.927847657353,0,0,1713541.71372331,1713542.76079172,7,0,64,0,8
28,501,674.261515727267,0,0,1713544.337285,1713545.38435303,7,0,81,4,8
28,502,922.64756700024,0,0,1713547.16085047,1713548.20792503,7,0,90,16,16
28,503,636.899514589459,0,0,1713550.26680558,1713551.31382856,7,0,81,0,4
28,504,650.817778194323,1,0,1713553.01973764,1713554.06681066,7,1,100,16,4
28,505,963.419552426785,1,0,1713555.74922287,1713556.79624509,7,1,85,16,0
28,506,624.313215957955,1,0,1713558.8433362,1713559.89039922,7,1,92,16,0
28,507,619.163208408281,0,0,1713561.70219335,1713562.74926214,7,0,72,0,16
28,508,649.821499129757,0,0,1713564.49047252,1713565.53757981,7,0,75,4,4
28,509,785.941000329331,0,0,1713567.33755217,1713568.38463174,7,0,82,8,4
28,510,738.734777551144,0,0,1713570.29052803,1713571.33760452,7,0,83,16,4
28,511,456.042160280049,1,0,1713573.10231946,1713574.14939595,7,1,85,16,4
28,512,683.761197375134,0,0,1713575.79647106,1713576.84355217,7,0,82,8,16
28,513,703.235217370093,0,0,1713578.66709145,1713579.71415909,7,0,67,8,8
28,514,535.165496636182,1,0,1713581.46712387,1713582.51419651,7,1,85,16,0
28,515,847.65640180558,1,0,1713584.14951144,1713585.19658909,7,1,84,16,8
28,516,713.532153517008,0,0,1713587.13777783,1713588.18484932,7,0,66,8,4
28,517,1073.56881699525,0,0,1713589.94957927,1713590.99664806,7,0,100,4,16
28,518,570.914895972237,0,0,1713593.16138171,1713594.20845782,7,0,92,4,16
28,519,477.716617286205,1,0,1713595.86733236,1713596.91437151,7,1,84,8,0
28,520,658.160138409585,1,0,1713598.58497274,1713599.63204268,7,1,70,8,8
28,521,535.451907431707,0,0,1713601.45559467,1713602.50268425,7,0,70,8,0
28,522,592.553936643526,1,0,1713604.06738541,1713605.11445921,7,1,98,4,8
28,523,557.427788851783,0,0,1713606.91448661,1713607.96154732,7,0,79,4,0
28,524,711.798289092258,0,0,1713609.72634464,1713610.77335415,7,0,81,16,4
28,525,753.283992176875,0,0,1713612.60866131,1713613.65575397,7,0,100,0,0
28,526,591.665831627324,1,0,1713615.58516907,1713616.63224171,7,1,99,8,0
28,527,554.377358173952,0,0,1713618.37344015,1713619.42050663,7,0,73,0,8
28,528,522.016769740731,1,0,1713621.00876201,1713622.0558362,7,1,73,0,8
28,529,518.8339126762,0,0,1713623.70291707,1713624.74998356,7,0,95,4,0
28,530,821.241150610149,0,0,1713626.31470627,1713627.36178815,7,0,90,4,4
28,531,664.42383849062,0,0,1713629.33827474,1713630.38534507,7,0,81,16,0
28,532,560.669930186123,0,0,1713632.0912449,1713633.13831408,7,0,68,4,8
28,533,697.900813538581,1,0,1713634.86774735,1713635.91481422,7,1,92,4,16
28,534,709.89003777504,0,0,1713637.62071675,1713638.66779824,7,0,69,8,8
28,535,461.840057512745,1,0,1713640.51487596,1713641.56194745,7,1,75,4,4
28,536,720.52920376882,1,0,1713643.20902025,1713644.25609481,7,1,63,16,16
28,537,548.436640761793,1,0,1713646.04434819,1713647.09141891,7,1,69,16,16
28,538,530.51901771687,0,0,1713648.70320387,1713649.75027613,7,0,78,0,16
28,539,661.133961984888,0,0,1713651.38559067,1713652.43266024,7,0,84,4,8
28,540,462.365914136171,1,0,1713654.20915036,1713655.25621954,7,1,85,4,16
28,541,499.910771613941,0,0,1713656.87977776,1713657.9268735,7,0,83,0,0
28,542,795.198926469311,0,0,1713659.55038823,1713660.59745856,7,0,80,4,0
28,543,656.982928048819,0,0,1713662.55042326,1713663.59749244,7,0,63,16,4
28,544,551.75538896583,1,0,1713665.29165635,1713666.33869897,7,1,88,8,4
28,545,576.010239310563,1,0,1713668.00931212,1713669.05638245,7,1,82,8,8
28,546,578.234928660095,1,0,1713670.71521504,1713671.76229076,7,1,93,16,8
28,547,515.10479580611,1,0,1713673.40937934,1713674.45644813,7,1,69,0,4
28,548,562.601279234514,1,0,1713676.13882069,1713677.18588987,7,1,88,4,4
28,549,642.251241952181,0,0,1713678.92709293,1713679.97415556,7,0,70,8,4
28,550,634.743348229676,1,0,1713681.7624101,1713682.80950122,7,1,71,4,16
28,551,573.188475565985,1,0,1713684.57421,1713685.62126685,7,1,98,0,16
28,552,749.770838534459,0,0,1713687.25658833,1713688.30366559,7,0,93,16,16
28,553,506.335770012811,1,0,1713690.2448682,1713691.29192159,7,1,63,0,0
28,554,534.625011263415,0,0,1713692.86842296,1713693.91549675,7,0,61,8,0
28,555,514.956970931962,0,0,1713695.58610183,1713696.63316869,7,0,97,0,8
28,556,736.065073171631,1,0,1713698.18612739,1713699.23321042,7,1,99,8,4
28,557,648.506472585723,0,0,1713701.00970247,1713702.05676819,7,0,82,8,16
28,558,703.366874251515,1,0,1713703.76267264,1713704.80975298,7,1,71,16,8
28,559,627.156922826543,1,0,1713706.70388564,1713707.75095443,7,1,79,4,0
28,560,609.516856493428,1,0,1713709.48038731,1713710.52744648,7,1,83,0,0
28,561,683.167587500066,0,0,1713719.5157991,1713720.56286019,8,0,93,8,0
28,562,475.845322012901,1,0,1713722.25700409,1713723.30411176,8,1,78,8,0
28,563,433.441872242838,0,0,1713724.8805627,1713725.92763265,8,0,94,0,16
28,564,957.508861552924,1,0,1713727.38647647,1713728.43354757,8,1,93,4,8
28,565,400.608551921323,0,0,1713730.45714799,1713731.50416596,8,0,75,8,4
28,566,380.485487636179,1,0,1713732.95124615,1713733.99831571,8,1,76,16,8
28,567,610.944676678628,0,0,1713735.42186824,1713736.46898015,8,0,97,16,0
28,568,597.699324833229,1,0,1713738.25719426,1713739.30425882,8,1,92,0,0
28,569,532.049622386694,0,0,1713741.08075895,1713742.12782505,8,0,77,16,0
28,570,769.70450184308,1,0,1713743.71607889,1713744.76314537,8,1,77,16,8
28,571,550.938886823133,1,0,1713746.63375884,1713747.68086228,8,1,64,4,0
28,572,434.828116791323,1,0,1713749.38673362,1713750.43383437,8,1,75,8,8
28,573,777.354061137885,0,0,1713751.96323422,1713753.01029801,8,0,82,16,4
28,574,466.773717198521,1,0,1713754.8809211,1713755.92798296,8,1,76,0,4
28,575,439.767165808007,1,0,1713757.53977832,1713758.58687829,8,1,85,16,8
28,576,717.263194965199,0,0,1713760.16333693,1713761.21039995,8,0,97,4,0
28,577,1107.65403043479,0,0,1713763.03395347,1713764.08101187,8,0,93,4,16
28,578,604.447690537199,1,0,1713766.37517286,1713767.4222378,8,1,95,16,8
28,579,504.471404245123,1,0,1713769.18696391,1713770.23403385,8,1,96,4,16
28,580,558.781311614439,1,0,1713771.8576198,1713772.90466087,8,1,91,0,4
28,581,913.136336486787,0,0,1713774.46938282,1713775.51645161,8,0,76,8,16
28,582,631.643257802352,1,0,1713777.55177409,1713778.59882787,8,1,95,16,0
28,583,598.572801332921,1,0,1713780.35180727,1713781.39887529,8,1,69,0,0
28,584,656.254196772352,0,0,1713783.09301765,1713784.14008567,8,0,77,16,16
28,585,724.86578905955,0,0,1713785.92835445,1713786.97541131,8,0,81,8,0
28,586,543.062585638836,1,0,1713788.74014164,1713789.78720736,8,1,68,0,16
28,587,482.083999319002,1,0,1713791.54017367,1713792.58723169,8,1,64,16,16
28,588,541.24595480971,1,0,1713794.2578537,1713795.30491556,8,1,85,8,4
28,589,578.62450927496,0,0,1713796.88141385,1713797.9284761,8,0,96,0,0
28,590,653.42473401688,0,0,1713799.62261152,1713800.66970495,8,0,81,4,16
28,591,559.488099766895,0,0,1713802.46971042,1713803.51677536,8,0,86,16,4
28,592,574.654021998867,1,0,1713805.1286096,1713806.17562604,8,1,95,8,0
28,593,854.760471498594,0,0,1713807.89330991,1713808.94037062,8,0,89,4,8
28,594,547.848420450464,0,0,1713810.84628385,1713811.89335072,8,0,63,4,0
28,595,725.888630142435,0,0,1713813.5992571,1713814.64632435,8,0,95,16,16
28,596,806.052130879834,0,0,1713816.42281101,1713817.46988173,8,0,68,16,16
28,597,473.207184812054,0,0,1713819.43461353,1713820.48168117,8,0,76,4,16
28,598,449.230661150068,1,0,1713821.97581859,1713823.02289162,8,1,65,0,0
28,599,536.012410651892,1,0,1713824.68178811,1713825.72882495,8,1,80,0,16
28,600,458.577128360048,1,0,1713827.30528743,1713828.35236662,8,1,79,8,16
28,601,708.734384737909,0,0,1713829.82297523,1713830.87004518,8,0,73,8,0
28,602,463.726751040667,0,0,1713832.61124093,1713833.6583078,8,0,87,4,4
28,603,571.502731414512,0,0,1713835.16420848,1713836.21127573,8,0,69,8,16
28,604,480.516053503379,0,0,1713837.81129706,1713838.85836662,8,0,68,0,8
28,605,431.666817283258,0,0,1713840.47015389,1713841.5172223,8,0,63,4,4
28,606,421.483829850331,1,0,1713843.0231226,1713844.070191,8,1,64,0,8
28,607,674.49018266052,0,0,1713845.67021426,1713846.7172765,8,0,79,4,0
28,608,843.19932362996,1,0,1713848.56436847,1713849.6114311,8,1,76,0,0
28,609,538.559312466532,0,0,1713851.57616598,1713852.62323208,8,0,76,8,4
28,610,514.997776597738,0,0,1713854.2585447,1713855.30562427,8,0,67,4,8
28,611,550.084658432752,1,0,1713856.91740192,1713857.96448072,8,1,98,4,0
28,612,687.740923836827,1,0,1713859.55275497,1713860.59985725,8,1,89,8,16
28,613,610.528918914497,1,0,1713862.44687954,1713863.49395026,8,1,78,0,8
28,614,480.119158746675,0,0,1713865.11750271,1713866.16457188,8,0,63,0,16
28,615,564.639647491276,0,0,1713867.7058193,1713868.75283804,8,0,87,0,4
28,616,449.478191090748,1,0,1713870.44698117,1713871.49404188,8,1,86,4,4
28,617,680.352753028274,0,0,1713872.99994641,1713874.04701212,8,0,71,4,16
28,618,658.308733487502,1,0,1713875.7411564,1713876.78822365,8,1,90,8,8
28,619,692.139487713575,0,0,1713878.48236139,1713879.52942749,8,0,70,16,0
28,620,522.496046265587,1,0,1713881.36475543,1713882.41181653,8,1,66,0,8
28,621,510.934898629785,1,0,1713884.03536551,1713885.08244085,8,1,70,0,16
28,622,664.252530783415,1,0,1713886.65892104,1713887.70600331,8,1,90,8,4
28,623,794.870169833303,1,0,1713889.54131624,1713890.58838195,8,1,98,4,8
28,624,484.748699236661,1,0,1713892.48252885,1713893.52959341,8,1,79,8,4
28,625,611.326558049768,0,0,1713895.11785033,1713896.16491796,8,0,67,8,8
28,626,866.01326521486,0,0,1713897.84729861,1713898.89436624,8,0,69,0,4
28,627,608.214148553088,1,0,1713900.87085745,1713901.91792085,8,1,61,16,0
28,628,535.447672940791,1,0,1713903.58853747,1713904.63560165,8,1,72,4,4
28,629,655.127416132018,0,0,1713906.31798499,1713907.36505763,8,0,95,8,8
28,630,582.11610512808,1,0,1713909.17683943,1713910.22391169,8,1,69,16,4
28,631,684.749392094091,0,0,1713912.00040028,1713913.04747446,8,0,81,8,16
28,632,520.943498704582,1,0,1713914.91808138,1713915.96515364,8,1,90,16,4
28,633,546.34437779896,0,0,1713917.63575525,1713918.68281942,8,0,83,0,4
28,634,614.931717282161,0,0,1713920.42402749,1713921.47115094,8,0,72,16,16
28,635,548.714582575485,1,0,1713923.21229395,1713924.25937121,8,1,98,4,8
28,636,700.209039263427,0,0,1713925.94173993,1713926.98880679,8,0,80,4,4
28,637,525.290478020906,1,0,1713928.70647642,1713929.75354907,8,1,79,0,8
28,638,487.58701630868,1,0,1713931.37715657,1713932.42416954,8,1,99,16,8
28,639,560.003177495673,0,0,1713934.09477461,1713935.14184764,8,0,66,8,8
28,640,484.8426298704,0,0,1713936.89481241,1713937.9418839,8,0,87,16,4
28,641,705.640453612432,1,0,1713949.49499619,1713950.54202534,9,1,70,4,4
28,642,866.985291708261,0,0,1713952.25969112,1713953.30676953,9,0,99,8,0
28,643,502.156633883715,1,0,1713955.27150172,1713956.31856974,9,1,99,0,16
28,644,809.302356326953,0,0,1713957.97741079,1713959.02447728,9,0,81,0,16
28,645,542.574840132147,0,0,1713960.9068794,1713961.95392432,9,0,76,16,0
28,646,511.591642163694,1,0,1713963.64810094,1713964.6951297,9,1,95,16,8
28,647,669.868726283312,1,0,1713966.37750765,1713967.42458299,9,1,81,16,0
28,648,756.779437651858,0,0,1713969.2128202,1713970.25990824,9,0,92,8,0
28,649,591.421766672283,1,0,1713972.05992949,1713973.10699366,9,1,62,16,0
28,650,713.345447089523,1,0,1713974.84820558,1713975.89526436,9,1,80,8,8
28,651,570.431385189295,1,0,1713977.66003512,1713978.70706195,9,1,80,4,16
28,652,629.356974735856,1,0,1713980.46002673,1713981.50709398,9,1,91,8,8
28,653,637.724485946819,1,0,1713983.14242431,1713984.18952467,9,1,91,0,0
28,654,583.164353854954,0,0,1713986.00127106,1713987.04833754,9,0,93,8,4
28,655,479.284948203713,0,0,1713988.71894492,1713989.76600833,9,0,75,0,8
28,656,605.480925645679,0,0,1713991.43662687,1713992.48369451,9,0,81,4,4
28,657,721.967032877728,0,0,1713994.10724273,1713995.15431806,9,0,99,4,0
28,658,579.318209085613,0,0,1713996.97786851,1713998.02492999,9,0,82,0,16
28,659,466.348335379735,1,0,1713999.63672458,1714000.68379606,9,1,98,8,16
28,660,446.950537152588,1,0,1714002.27204259,1714003.31911831,9,1,88,4,4
28,661,559.084275970235,0,0,1714004.87207393,1714005.91914657,9,0,80,0,8
28,662,462.728932267055,0,0,1714007.60151951,1714008.64858946,9,0,94,8,16
28,663,484.456128906459,0,0,1714010.14272689,1714011.1897926,9,0,95,4,8
28,664,633.509548380971,1,0,1714012.75452417,1714013.80158064,9,1,93,8,0
28,665,464.492438593879,0,0,1714015.613379,1714016.66044895,9,0,93,4,8
28,666,437.793856021017,1,0,1714018.27223853,1714019.31930117,9,1,88,8,4
28,667,424.90767268464,0,0,1714020.88402927,1714021.93110076,9,0,91,0,16
28,668,649.323359830305,1,0,1714023.46052294,1714024.50759674,9,1,91,4,16
28,669,656.220705248415,0,0,1714026.24886794,1714027.29586975,9,0,72,16,0
28,670,546.576124383137,1,0,1714029.11941635,1714030.16649091,9,1,100,0,4
28,671,584.212602581829,0,0,1714031.80180546,1714032.84886732,9,0,62,8,4
28,672,571.523904334754,0,0,1714034.53124643,1714035.57831561,9,0,63,8,16
28,673,522.507980233058,1,0,1714037.17833963,1714038.22541188,9,1,100,8,4
28,674,524.246463784948,1,0,1714039.76660194,1714040.81367381,9,1,63,0,8
28,675,767.528317635879,1,0,1714042.43721856,1714043.48428235,9,1,74,16,16
28,676,680.015527177602,0,0,1714045.27255382,1714046.31962261,9,0,96,0,4
28,677,478.159707272425,0,0,1714048.13140865,1714049.17847552,9,0,87,4,8
28,678,684.955346398056,0,0,1714050.66087626,1714051.70792619,9,0,71,16,4
28,679,652.855761582032,0,0,1714053.4608925,1714054.50793743,9,0,98,16,16
28,680,622.338366229087,1,0,1714056.29620659,1714057.34327923,9,1,71,0,4
28,681,487.938870675862,1,0,1714059.13154955,1714060.1786041,9,1,62,0,0
28,682,682.142821606249,0,0,1714061.74332797,1714062.79040253,9,0,89,8,16
28,683,547.080038115382,0,0,1714064.63748526,1714065.68455405,9,0,83,0,0
28,684,483.106840634719,0,0,1714067.24927754,1714068.29634787,9,0,96,4,16
28,685,548.316532745957,0,0,1714069.95519739,1714071.00226195,9,0,88,16,16
28,686,580.034621292725,1,0,1714072.60228712,1714073.64935592,9,1,98,4,0
28,687,509.278796613216,0,0,1714075.35525806,1714076.40232724,9,0,64,0,4
28,688,676.805722760037,0,0,1714078.09646267,1714079.14353531,9,0,91,16,8
28,689,514.043073402718,0,0,1714080.95532212,1714082.00238899,9,0,73,4,16
28,690,469.14430661127,1,0,1714083.70829344,1714084.75536454,9,1,75,16,4
28,691,621.352481190115,0,0,1714086.42597231,1714087.47304033,9,0,66,16,16
28,692,479.904735460877,1,0,1714089.15547911,1714090.20249054,9,1,88,0,16
28,693,556.600122712553,1,0,1714091.69662219,1714092.74369021,9,1,89,8,4
28,694,536.418159492314,1,0,1714094.34370885,1714095.39078187,9,1,92,16,8
28,695,601.013453677297,1,0,1714097.02609835,1714098.07317099,9,1,98,4,0
28,696,525.558795547113,1,0,1714099.74377645,1714100.79084254,9,1,87,0,8
28,697,773.723109392449,0,0,1714102.35557296,1714103.40264522,9,0,90,16,0
28,698,569.535581162199,0,0,1714105.24972833,1714106.29679096,9,0,95,16,8
28,699,487.05076565966,0,0,1714108.03799633,1714109.08506089,9,0,87,0,0
28,700,623.13523539342,1,0,1714110.5909635,1714111.63804153,9,1,70,16,4
28,701,406.392975244671,1,0,1714113.35570269,1714114.40277379,9,1,86,0,8
28,702,743.050575023517,1,0,1714115.83808534,1714116.88516067,9,1,79,4,4
28,703,622.3687781021,1,0,1714118.70870381,1714119.75577799,9,1,100,4,0
28,704,606.456801760942,1,0,1714121.47344839,1714122.52050987,9,1,94,8,0
28,705,607.036553090438,0,0,1714124.24994121,1714125.29701809,9,0,81,16,4
28,706,543.209255905822,1,0,1714127.06173996,1714128.10882107,9,1,78,4,0
28,707,805.123989935964,0,0,1714129.76765865,1714130.81473284,9,0,87,0,0
28,708,521.728434134275,0,0,1714132.65003691,1714133.69712149,9,0,75,0,4
28,709,619.419207330793,0,0,1714135.23831116,1714136.28538495,9,0,97,8,0
28,710,688.69216227904,0,0,1714138.05010528,1714139.09718293,9,0,91,16,8
28,711,674.492107471451,1,0,1714140.83838291,1714141.88544708,9,1,81,16,4
28,712,582.289337646216,1,0,1714143.57965681,1714144.62665823,9,1,80,4,8
28,713,817.003500415012,0,0,1714146.36785899,1714147.4149297,9,0,95,8,8
28,714,504.115315154195,1,0,1714149.37965304,1714150.42672722,9,1,85,8,8
28,715,740.724255796522,0,0,1714152.10909708,1714153.15616934,9,0,87,8,16
28,716,599.174110451713,1,0,1714155.09737079,1714156.14444227,9,1,71,8,8
28,717,539.422394707799,1,0,1714157.80328333,1714158.85035096,9,1,66,4,16
28,718,667.978567769751,1,0,1714160.59154556,1714161.63862166,9,1,80,4,8
28,719,646.744506200776,0,0,1714163.47393229,1714164.52100878,9,0,93,4,4
28,720,458.147511817515,1,0,1714166.30926331,1714167.35633364,9,1,75,16,16
