sub_id,Trial,RT,Resp,Error,Fix_onset,Disp_onset,block,tid,tloc,fish_setsize,bird_setsize
22,1,486.3809235,1,0,2280501.271,2280502.318,1,1,69,16,16
22,2,440.4797177,1,0,2280503.93,2280504.977,1,1,66,4,4
22,3,588.5545667,0,0,2280506.483,2280507.53,1,0,92,4,16
22,4,440.875073,0,0,2280509.318,2280510.366,1,0,76,8,0
22,5,444.0871873,1,0,2280511.93,2280512.977,1,1,76,4,4
22,6,1020.746003,0,0,2280514.624,2280515.672,1,0,90,16,8
22,7,722.7346343,0,0,2280517.872,2280518.919,1,0,81,16,16
22,8,380.2733636,1,0,2280520.813,2280521.86,1,1,67,0,8
22,9,656.7192194,0,0,2280523.436,2280524.484,1,0,72,4,0
22,10,696.2550948,0,0,2280526.166,2280527.213,1,0,98,0,16
22,11,405.8547891,1,0,2280529.107,2280530.154,1,1,76,0,16
22,12,468.3655202,1,0,2280531.684,2280532.731,1,1,84,4,16
22,13,388.3067286,0,0,2280534.237,2280535.284,1,0,61,0,16
22,14,377.3903912,0,0,2280536.849,2280537.896,1,0,63,4,4
22,15,632.1152095,1,0,2280539.437,2280540.484,1,1,80,16,4
22,16,515.8893354,0,0,2280542.225,2280543.272,1,0,81,16,0
22,17,513.2596674,1,0,2280544.896,2280545.943,1,1,89,0,4
22,18,427.7609927,0,0,2280547.625,2280548.672,1,0,65,8,8
22,19,428.7006822,0,0,2280550.178,2280551.226,1,0,68,4,4
22,20,360.1452946,0,0,2280552.708,2280553.755,1,0,74,0,0
22,21,430.5300168,1,0,2280555.19,2280556.237,1,1,74,16,4
22,22,636.1234225,1,0,2280557.873,2280558.92,1,1,94,4,4
22,23,522.8301818,0,0,2280560.708,2280561.755,1,0,81,0,16
22,24,590.7157375,0,0,2280563.355,2280564.402,1,0,92,8,4
22,25,574.4372783,0,0,2280566.049,2280567.097,1,0,62,16,8
22,26,518.1602207,1,0,2280568.697,2280569.744,1,1,78,16,16
22,27,555.2897053,1,0,2280571.403,2280572.45,1,1,96,0,8
22,28,502.0203469,0,0,2280574.203,2280575.25,1,0,84,8,16
22,29,634.9900975,0,0,2280576.956,2280578.003,1,0,79,16,16
22,30,551.4231571,0,0,2280579.732,2280580.779,1,0,100,4,0
22,31,630.6211757,0,0,2280582.391,2280583.438,1,0,81,16,4
22,32,393.149538,0,0,2280585.226,2280586.274,1,0,66,0,0
22,33,514.36566,0,0,2280587.685,2280588.732,1,0,97,8,16
22,34,495.1106831,1,0,2280590.38,2280591.427,1,1,70,0,0
22,35,397.9588547,0,0,2280593.038,2280594.086,1,0,64,0,4
22,36,498.5961192,1,0,2280595.568,2280596.615,1,1,62,4,0
22,37,470.3476839,1,0,2280598.215,2280599.262,1,1,72,8,8
22,38,521.6110107,0,0,2280600.933,2280601.98,1,0,76,8,0
22,39,515.2957258,0,0,2280603.615,2280604.662,1,0,86,0,4
22,40,392.8369493,0,0,2280606.309,2280607.357,1,0,73,4,16
22,41,392.9308797,1,0,2280608.957,2280610.004,1,1,75,0,0
22,42,680.3331091,1,0,2280611.439,2280612.486,1,1,96,8,16
22,43,540.0644988,0,0,2280614.286,2280615.333,1,0,97,16,0
22,44,605.9124563,0,0,2280617.074,2280618.122,1,0,97,16,0
22,45,563.6845487,1,0,2280619.816,2280620.863,1,1,91,0,16
22,46,498.5899599,1,0,2280622.475,2280623.522,1,1,68,4,0
22,47,474.6838845,1,0,2280625.075,2280626.122,1,1,88,16,8
22,48,549.8794639,0,0,2280627.651,2280628.698,1,0,92,8,16
22,49,472.5766084,0,0,2280630.393,2280631.44,1,0,71,8,0
22,50,750.4984043,1,0,2280632.934,2280633.981,1,1,100,16,8
22,51,531.2384991,1,0,2280635.887,2280636.934,1,1,87,0,8
22,52,592.4326633,1,0,2280638.499,2280639.546,1,1,81,8,0
22,53,574.617825,0,0,2280641.216,2280642.263,1,0,68,16,4
22,54,453.0282905,0,0,2280643.887,2280644.934,1,0,66,0,4
22,55,556.1135216,0,0,2280646.452,2280647.499,1,0,91,16,0
22,56,594.2238867,1,0,2280649.252,2280650.299,1,1,69,0,8
22,57,388.1111685,0,0,2280652.064,2280653.111,1,0,83,8,16
22,58,611.3265473,1,0,2280654.57,2280655.617,1,1,82,0,0
22,59,836.956786,0,0,2280657.358,2280658.405,1,0,99,8,8
22,60,515.1717681,1,0,2280660.276,2280661.323,1,1,89,0,4
22,61,687.3898287,1,0,2280662.993,2280664.041,1,1,68,8,0
22,62,524.8958822,1,0,2280665.77,2280666.817,1,1,69,4,16
22,63,430.4087539,1,0,2280668.5,2280669.547,1,1,65,0,8
22,64,631.0627256,1,0,2280671.088,2280672.135,1,1,100,4,8
22,65,405.7854963,1,0,2280673.876,2280674.923,1,1,97,8,4
22,66,641.3958482,0,0,2280676.476,2280677.523,1,0,81,4,8
22,67,514.9203893,1,0,2280679.206,2280680.253,1,1,94,4,8
22,68,515.2891814,1,0,2280681.876,2280682.923,1,1,65,4,16
22,69,556.9388778,0,0,2280684.465,2280685.512,1,0,71,4,8
22,70,539.0035468,1,0,2280687.171,2280688.218,1,1,62,8,8
22,71,457.8945818,1,0,2280689.771,2280690.818,1,1,63,8,8
22,72,564.5010513,0,0,2280692.312,2280693.359,1,0,81,8,4
22,73,445.2420701,0,0,2280695.041,2280696.089,1,0,85,16,4
22,74,576.9637772,1,0,2280697.595,2280698.642,1,1,97,16,8
22,75,512.1625285,1,0,2280700.3,2280701.348,1,1,71,4,0
22,76,576.5630328,1,0,2280702.936,2280703.983,1,1,88,8,4
22,77,572.5852312,1,0,2280705.642,2280706.689,1,1,68,4,8
22,78,518.6995505,0,0,2280708.454,2280709.501,1,0,96,16,0
22,79,619.9723859,0,0,2280711.218,2280712.265,1,0,80,8,4
22,80,529.6054948,1,0,2280714.054,2280715.101,1,1,95,16,16
22,81,701.7619614,1,0,2280720.03,2280721.078,2,1,91,0,8
22,82,366.0163344,0,0,2280722.948,2280723.995,2,0,75,16,16
22,83,364.1396496,1,0,2280725.548,2280726.595,2,1,76,8,8
22,84,499.4438034,1,0,2280728.125,2280729.172,2,1,92,16,16
22,85,606.7108656,1,0,2280730.795,2280731.843,2,1,89,8,0
22,86,407.7410977,1,0,2280733.501,2280734.548,2,1,75,0,8
22,87,520.2320805,1,0,2280736.031,2280737.078,2,1,90,4,8
22,88,342.7038686,1,0,2280738.654,2280739.702,2,1,75,0,16
22,89,362.6367622,1,0,2280741.16,2280742.208,2,1,85,4,4
22,90,608.2784268,1,0,2280743.749,2280744.796,2,1,92,4,16
22,91,537.14765,1,0,2280746.443,2280747.49,2,1,61,16,16
22,92,762.6970471,0,0,2280749.22,2280750.267,2,0,76,4,8
22,93,567.9356726,1,0,2280752.149,2280753.196,2,1,100,0,4
22,94,549.8024714,0,0,2280754.902,2280755.949,2,0,70,0,16
22,95,493.1997368,0,0,2280757.667,2280758.714,2,0,68,8,0
22,96,359.9004596,1,0,2280760.267,2280761.314,2,1,67,16,8
22,97,707.2541993,0,0,2280762.738,2280763.785,2,0,61,4,0
22,98,471.7808939,0,0,2280765.608,2280766.655,2,0,79,8,0
22,99,1008.560834,1,0,2280768.314,2280769.361,2,1,80,8,0
22,100,465.2431016,0,0,2280771.455,2280772.503,2,0,94,0,0
22,101,649.0754341,1,0,2280774.091,2280775.138,2,1,98,16,8
22,102,471.5672401,0,0,2280776.832,2280777.879,2,0,65,16,16
22,103,398.6259927,0,0,2280779.385,2280780.432,2,0,61,0,4
22,104,439.8676297,0,0,2280781.95,2280782.997,2,0,65,4,4
22,105,662.8374038,1,0,2280784.609,2280785.656,2,1,91,8,4
22,106,439.6470473,1,0,2280787.456,2280788.503,2,1,68,4,8
22,107,433.5496505,0,0,2280790.009,2280791.056,2,0,64,0,0
22,108,417.5733859,0,0,2280792.656,2280793.703,2,0,65,4,4
22,109,567.2766194,0,0,2280795.291,2280796.339,2,0,75,0,4
22,110,522.6095989,0,0,2280798.08,2280799.127,2,0,69,4,16
22,111,504.3482063,1,0,2280800.715,2280801.762,2,1,99,0,16
22,112,395.3665281,1,0,2280803.315,2280804.362,2,1,76,8,4
22,113,555.6750512,1,0,2280805.892,2280806.939,2,1,97,4,16
22,114,407.829639,0,0,2280808.598,2280809.645,2,0,95,4,16
22,115,678.7878764,0,0,2280811.198,2280812.245,2,0,79,16,4
22,116,440.5740337,0,0,2280813.998,2280815.045,2,0,79,4,4
22,117,451.4676589,1,0,2280816.645,2280817.692,2,1,76,8,16
22,118,520.0511487,0,0,2280819.292,2280820.339,2,0,67,8,8
22,119,503.8489117,0,0,2280822.033,2280823.081,2,0,97,16,4
22,120,569.6064034,1,0,2280824.669,2280825.716,2,1,63,4,0
22,121,601.695979,1,0,2280827.386,2280828.434,2,1,68,8,16
22,122,523.1246771,1,0,2280830.057,2280831.104,2,1,80,0,4
22,123,586.1597243,1,0,2280832.669,2280833.716,2,1,61,16,4
22,124,575.0524458,0,0,2280835.422,2280836.469,2,0,81,4,0
22,125,633.5618924,0,0,2280838.093,2280839.14,2,0,100,8,16
22,126,595.8153154,1,0,2280840.963,2280842.01,2,1,98,16,0
22,127,696.185417,1,0,2280843.787,2280844.834,2,1,81,16,0
22,128,754.2367601,0,0,2280846.599,2280847.646,2,0,81,16,4
22,129,475.9253836,0,0,2280849.446,2280850.493,2,0,63,0,0
22,130,438.0194326,0,0,2280852.152,2280853.199,2,0,74,4,16
22,131,493.6020207,1,0,2280854.787,2280855.834,2,1,67,8,8
22,132,634.1116168,0,0,2280857.517,2280858.564,2,0,99,4,8
22,133,534.1514987,1,0,2280860.329,2280861.376,2,1,91,4,8
22,134,478.5666005,1,0,2280862.94,2280863.988,2,1,74,8,0
22,135,617.1336835,0,0,2280865.588,2280866.635,2,0,89,0,16
22,136,982.2606859,1,0,2280868.435,2280869.482,2,1,90,16,8
22,137,475.642052,0,0,2280871.576,2280872.623,2,0,84,4,4
22,138,450.7955168,1,0,2280874.176,2280875.223,2,1,79,8,4
22,139,1009.883945,0,0,2280876.741,2280877.788,2,0,62,8,16
22,140,434.1509598,1,0,2280879.964,2280881.012,2,1,75,8,4
22,141,570.0556529,0,0,2280882.565,2280883.612,2,0,79,0,4
22,142,553.7148295,0,0,2280885.2,2280886.247,2,0,68,16,16
22,143,419.1848324,0,0,2280887.871,2280888.918,2,0,98,0,0
22,144,888.3575439,0,0,2280890.494,2280891.541,2,0,92,0,8
22,145,500.8800928,0,0,2280893.471,2280894.518,2,0,64,8,16
22,146,670.792622,1,0,2280896.083,2280897.13,2,1,81,16,0
22,147,504.9448959,1,0,2280898.942,2280899.989,2,1,86,16,0
22,148,330.8420661,1,0,2280901.695,2280902.742,2,1,68,0,16
22,149,411.2038217,1,0,2280904.118,2280905.165,2,1,64,0,0
22,150,461.4820331,0,0,2280906.624,2280907.671,2,0,90,0,8
22,151,449.435065,0,0,2280909.189,2280910.236,2,0,66,8,8
22,152,564.5176042,0,0,2280911.895,2280912.942,2,0,83,0,8
22,153,858.7721391,1,0,2280914.707,2280915.754,2,1,89,4,0
22,154,495.3312655,0,1,2280917.648,2280918.695,2,1,79,16,4
22,155,481.8884288,0,0,2280920.272,2280921.319,2,0,76,8,4
22,156,517.2397788,0,0,2280922.895,2280923.942,2,0,70,4,0
22,157,695.2588158,0,0,2280925.648,2280926.695,2,0,98,16,8
22,158,438.0279016,1,0,2280928.448,2280929.495,2,1,66,16,8
22,159,541.4026235,1,0,2280931.119,2280932.166,2,1,84,16,0
22,160,563.0266503,0,0,2280933.907,2280934.954,2,0,88,8,8
22,161,488.2914843,1,0,2280951.414,2280952.461,3,1,86,16,4
22,162,424.6443491,0,0,2280954.037,2280955.084,3,0,77,0,4
22,163,417.671551,0,0,2280956.59,2280957.637,3,0,64,4,16
22,164,347.3130059,0,0,2280959.132,2280960.179,3,0,75,0,8
22,165,756.8102237,1,0,2280961.649,2280962.696,3,1,94,16,4
22,166,568.8129989,1,0,2280964.508,2280965.555,3,1,80,0,4
22,167,489.5198951,1,0,2280967.296,2280968.344,3,1,70,0,0
22,168,499.7602412,1,0,2280969.861,2280970.908,3,1,80,16,4
22,169,592.7090654,0,0,2280972.614,2280973.661,3,0,91,0,4
22,170,425.0751203,1,0,2280975.403,2280976.45,3,1,95,0,0
22,171,567.5226096,1,0,2280977.956,2280979.003,3,1,80,4,0
22,172,548.4797456,1,0,2280980.732,2280981.779,3,1,90,4,8
22,173,514.7394575,0,0,2280983.45,2280984.497,3,0,79,0,16
22,174,517.8695749,1,0,2280986.203,2280987.25,3,1,100,0,8
22,175,519.6819715,1,0,2280988.956,2280990.003,3,1,66,4,16
22,176,577.5273601,1,0,2280991.556,2280992.603,3,1,85,0,8
22,177,617.1579361,0,0,2280994.286,2280995.333,3,0,83,4,8
22,178,618.5499551,1,0,2280997.062,2280998.109,3,1,69,8,16
22,179,726.1946634,1,0,2280999.897,2281000.945,3,1,73,4,0
22,180,588.0098469,0,0,2281002.698,2281003.745,3,0,62,0,16
22,181,578.1910326,1,0,2281005.368,2281006.415,3,1,89,8,0
22,182,654.7135725,1,0,2281008.051,2281009.098,3,1,82,8,16
22,183,636.6161727,0,0,2281010.851,2281011.898,3,0,83,4,0
22,184,674.371989,0,0,2281013.686,2281014.733,3,0,69,8,8
22,185,619.7040677,0,0,2281016.557,2281017.604,3,0,63,4,0
22,186,615.5946096,0,0,2281019.369,2281020.416,3,0,94,8,0
22,187,644.6256703,0,0,2281022.075,2281023.122,3,0,95,8,8
22,188,646.8892409,0,0,2281024.828,2281025.875,3,0,89,16,4
22,189,537.9044833,1,0,2281027.545,2281028.592,3,1,69,4,8
22,190,600.514919,0,0,2281030.334,2281031.381,3,0,98,8,0
22,191,532.1046612,0,0,2281033.157,2281034.204,3,0,77,0,0
22,192,567.2173356,1,0,2281035.816,2281036.863,3,1,98,16,8
22,193,706.4523259,1,0,2281038.499,2281039.546,3,1,81,0,4
22,194,621.3620948,0,0,2281041.334,2281042.381,3,0,79,8,4
22,195,415.2405225,1,0,2281044.099,2281045.146,3,1,77,4,4
22,196,452.7191669,1,0,2281046.616,2281047.664,3,1,78,8,0
22,197,648.8244394,1,0,2281049.134,2281050.181,3,1,82,16,8
22,198,631.0184556,1,0,2281051.852,2281052.899,3,1,72,16,16
22,199,686.962137,0,0,2281054.605,2281055.652,3,0,77,8,4
22,200,600.3289828,1,0,2281057.476,2281058.523,3,1,94,8,16
22,201,408.2927471,0,0,2281060.276,2281061.323,3,0,96,8,4
22,202,465.9568197,1,0,2281062.911,2281063.958,3,1,97,16,0
22,203,373.7956253,1,0,2281065.617,2281066.664,3,1,66,16,0
22,204,615.0117787,0,0,2281068.182,2281069.229,3,0,92,8,8
22,205,551.0281874,1,0,2281071.041,2281072.088,3,1,94,0,0
22,206,528.7181595,1,0,2281073.735,2281074.782,3,1,69,0,8
22,207,451.9222979,1,0,2281076.347,2281077.394,3,1,85,4,16
22,208,631.2898532,0,0,2281079.017,2281080.065,3,0,67,4,4
22,209,420.8008987,1,0,2281081.841,2281082.888,3,1,86,4,8
22,210,367.9927238,1,0,2281084.312,2281085.359,3,1,76,16,4
22,211,445.9912041,1,0,2281086.771,2281087.818,3,1,87,4,4
22,212,533.8231269,1,1,2281089.312,2281090.359,3,0,70,4,0
22,213,683.3585175,0,0,2281091.947,2281092.994,3,0,81,4,16
22,214,391.9091937,1,0,2281094.771,2281095.818,3,1,75,0,8
22,215,592.003047,1,0,2281097.289,2281098.336,3,1,81,16,0
22,216,512.3931207,0,0,2281100.018,2281101.065,3,0,71,4,16
22,217,662.6414587,0,0,2281102.736,2281103.783,3,0,99,8,0
22,218,351.1271994,0,0,2281105.512,2281106.559,3,0,84,0,0
22,219,499.848397,0,0,2281107.948,2281108.995,3,0,87,16,16
22,220,490.3910612,0,0,2281110.583,2281111.63,3,0,66,8,8
22,221,640.3549137,1,0,2281113.136,2281114.183,3,1,90,0,16
22,222,539.7272734,0,0,2281115.971,2281117.019,3,0,93,4,8
22,223,400.2077971,1,0,2281118.583,2281119.63,3,1,75,16,16
22,224,423.7485444,0,0,2281121.113,2281122.16,3,0,94,16,0
22,225,495.9017779,1,0,2281123.666,2281124.725,3,1,92,0,4
22,226,421.1234958,0,0,2281126.301,2281127.348,3,0,86,16,16
22,227,626.6491483,1,0,2281128.878,2281129.925,3,1,94,16,8
22,228,504.0667998,0,0,2281131.607,2281132.654,3,0,64,8,16
22,229,571.3737588,1,0,2281134.278,2281135.325,3,1,95,8,4
22,230,587.2079735,0,0,2281136.925,2281137.972,3,0,61,16,16
22,231,663.8498511,0,0,2281139.713,2281140.76,3,0,61,16,0
22,232,573.4363799,1,0,2281142.549,2281143.596,3,1,65,4,4
22,233,477.3670621,0,0,2281145.349,2281146.396,3,0,81,0,16
22,234,498.3936297,0,0,2281148.067,2281149.114,3,0,82,8,16
22,235,474.4070973,1,0,2281150.761,2281151.808,3,1,63,8,4
22,236,546.0837488,0,0,2281153.408,2281154.455,3,0,86,16,8
22,237,583.031917,0,0,2281156.102,2281157.149,3,0,70,4,4
22,238,550.9311771,0,0,2281158.914,2281159.961,3,0,62,16,8
22,239,385.5407843,0,0,2281161.538,2281162.585,3,0,76,0,16
22,240,467.1686767,0,0,2281164.079,2281165.126,3,0,78,8,8
22,241,536.0054704,1,0,2281185.915,2281186.962,4,1,80,0,8
22,242,555.0995343,1,0,2281188.679,2281189.727,4,1,88,4,4
22,243,617.3569607,0,0,2281191.397,2281192.444,4,0,85,16,16
22,244,526.0800221,0,0,2281194.091,2281195.138,4,0,68,8,0
22,245,473.8388951,0,0,2281196.774,2281197.821,4,0,80,4,8
22,246,653.4158695,1,0,2281199.362,2281200.409,4,1,90,16,8
22,247,596.8504753,0,0,2281202.186,2281203.233,4,0,83,8,16
22,248,429.1406926,1,0,2281204.915,2281205.962,4,1,88,16,4
22,249,423.2646488,1,0,2281207.562,2281208.609,4,1,74,8,4
22,250,435.1668716,0,0,2281210.127,2281211.174,4,0,85,0,8
22,251,419.9913256,0,0,2281212.821,2281213.868,4,0,64,8,8
22,252,880.1940619,0,0,2281215.48,2281216.527,4,0,89,4,16
22,253,575.7422959,1,0,2281218.469,2281219.516,4,1,64,16,16
22,254,602.3804396,1,0,2281221.21,2281222.257,4,1,90,4,4
22,255,617.0774791,1,0,2281223.939,2281224.986,4,1,87,4,4
22,256,981.0519088,0,0,2281226.645,2281227.692,4,0,73,16,4
22,257,552.0822108,0,0,2281229.704,2281230.751,4,0,96,8,16
22,258,541.1712616,0,0,2281232.469,2281233.516,4,0,73,0,8
22,259,536.8350619,1,0,2281235.257,2281236.304,4,1,80,0,8
22,260,475.6616852,1,0,2281237.893,2281238.94,4,1,74,16,8
22,261,724.8191983,0,0,2281240.458,2281241.505,4,0,66,16,8
22,262,748.2275194,1,0,2281243.387,2281244.434,4,1,100,8,4
22,263,1111.414704,0,0,2281246.305,2281247.352,4,0,68,0,4
22,264,571.6913515,0,0,2281249.47,2281250.517,4,0,62,8,0
22,265,512.8535335,1,0,2281252.293,2281253.34,4,1,96,8,8
22,266,449.4073479,0,0,2281254.87,2281255.917,4,0,77,4,16
22,267,671.3581295,0,0,2281257.47,2281258.517,4,0,72,8,16
22,268,462.7755019,0,0,2281260.293,2281261.34,4,0,86,0,4
22,269,477.9887744,1,0,2281262.87,2281263.917,4,1,94,0,8
22,270,480.5668578,0,0,2281265.446,2281266.494,4,0,62,4,0
22,271,547.2532599,0,0,2281268.035,2281269.082,4,0,84,4,8
22,272,850.4531323,1,0,2281270.811,2281271.858,4,1,82,16,8
22,273,625.1624296,0,0,2281273.753,2281274.8,4,0,61,4,8
22,274,449.4600873,1,0,2281276.47,2281277.517,4,1,72,8,4
22,275,399.3431744,0,0,2281279.059,2281280.106,4,0,68,0,0
22,276,386.9008515,0,0,2281281.541,2281282.588,4,0,73,4,16
22,277,696.9006746,1,0,2281284.047,2281285.094,4,1,64,0,0
22,278,457.5023064,1,0,2281286.835,2281287.882,4,1,94,8,4
22,279,462.8651976,0,0,2281289.459,2281290.506,4,0,96,0,4
22,280,469.7844861,0,0,2281292.071,2281293.118,4,0,65,8,0
22,281,543.3563003,0,0,2281294.647,2281295.694,4,0,88,8,16
22,282,558.3963399,0,0,2281297.4,2281298.447,4,0,92,0,4
22,283,565.9954697,1,0,2281300.189,2281301.236,4,1,91,16,4
22,284,756.8063745,1,0,2281302.942,2281303.989,4,1,70,8,8
22,285,493.5650644,0,0,2281305.836,2281306.883,4,0,67,4,4
22,286,519.1534194,1,0,2281308.565,2281309.612,4,1,61,0,4
22,287,430.8968848,0,0,2281311.307,2281312.354,4,0,63,4,4
22,288,547.0892666,1,0,2281313.918,2281314.966,4,1,81,4,0
22,289,450.6038064,1,0,2281316.707,2281317.754,4,1,87,8,0
22,290,674.4370474,1,0,2281319.401,2281320.448,4,1,78,4,8
22,291,740.9044071,0,0,2281322.236,2281323.283,4,0,87,16,4
22,292,843.5330745,1,0,2281325.166,2281326.213,4,1,69,16,0
22,293,477.673491,1,0,2281328.131,2281329.178,4,1,94,4,16
22,294,640.0034442,0,0,2281330.66,2281331.707,4,0,77,4,16
22,295,508.4272525,1,0,2281333.437,2281334.484,4,1,82,8,8
22,296,586.1466359,1,0,2281336.072,2281337.119,4,1,70,16,8
22,297,432.7035062,1,0,2281338.907,2281339.955,4,1,95,0,16
22,298,756.7386213,1,0,2281341.413,2281342.46,4,1,62,4,0
22,299,388.3540789,1,0,2281344.249,2281345.296,4,1,84,8,0
22,300,594.0129282,1,0,2281346.79,2281347.837,4,1,86,0,0
22,301,641.9105409,0,0,2281349.543,2281350.59,4,0,97,8,16
22,302,425.3626862,0,0,2281352.414,2281353.461,4,0,73,0,16
22,303,655.5889738,0,0,2281355.037,2281356.084,4,0,62,4,0
22,304,456.68157,1,0,2281357.837,2281358.885,4,1,67,4,8
22,305,445.7887146,1,0,2281360.496,2281361.543,4,1,84,16,16
22,306,410.0616425,1,0,2281363.026,2281364.073,4,1,64,16,4
22,307,428.2048526,1,0,2281365.685,2281366.732,4,1,87,16,0
22,308,557.7665442,0,0,2281368.261,2281369.308,4,0,91,16,16
22,309,510.6480918,1,0,2281371.073,2281372.12,4,1,90,0,16
22,310,585.8652294,0,0,2281373.779,2281374.826,4,0,85,16,0
22,311,572.7780969,0,0,2281376.485,2281377.532,4,0,68,0,16
22,312,641.6318291,1,0,2281379.132,2281380.179,4,1,82,0,0
22,313,581.5829239,0,0,2281381.979,2281383.026,4,0,83,8,8
22,314,475.3286941,0,0,2281384.779,2281385.826,4,0,94,8,4
22,315,499.4903835,0,0,2281387.438,2281388.485,4,0,85,0,0
22,316,446.0651167,0,0,2281390.027,2281391.074,4,0,95,4,0
22,317,548.2949642,0,0,2281392.544,2281393.591,4,0,67,16,0
22,318,736.8311351,1,0,2281395.321,2281396.368,4,1,61,16,0
22,319,606.4117509,1,0,2281398.156,2281399.203,4,1,70,0,16
22,320,416.6294616,1,0,2281400.827,2281401.874,4,1,76,16,16
22,321,727.4792786,1,0,2281422.969,2281424.016,5,1,81,16,0
22,322,472.0907873,1,0,2281425.851,2281426.898,5,1,66,16,16
22,323,457.163156,1,0,2281428.404,2281429.451,5,1,77,8,16
22,324,428.7330192,0,0,2281431.087,2281432.134,5,0,64,0,8
22,325,462.5522248,1,0,2281433.593,2281434.64,5,1,97,4,4
22,326,417.0525335,0,0,2281436.169,2281437.216,5,0,74,0,4
22,327,636.9772661,0,0,2281438.675,2281439.722,5,0,61,4,16
22,328,702.6643096,0,0,2281441.51,2281442.558,5,0,93,16,8
22,329,437.9251166,0,0,2281444.369,2281445.416,5,0,66,0,4
22,330,467.5174509,1,0,2281446.911,2281447.958,5,1,87,0,16
22,331,601.9935538,1,0,2281449.487,2281450.534,5,1,81,16,4
22,332,369.6018606,0,0,2281452.17,2281453.217,5,0,95,0,0
22,333,482.5309287,1,0,2281454.676,2281455.723,5,1,69,8,8
22,334,580.6971285,1,0,2281457.346,2281458.393,5,1,88,4,8
22,335,426.9791371,1,0,2281460.017,2281461.064,5,1,96,4,4
22,336,528.4771742,1,0,2281462.641,2281463.688,5,1,77,4,16
22,337,578.4982317,0,0,2281465.252,2281466.299,5,0,88,16,16
22,338,434.1621236,0,0,2281468.041,2281469.088,5,0,65,8,0
22,339,828.7755959,1,0,2281470.664,2281471.711,5,1,61,16,8
22,340,743.3288908,0,0,2281473.653,2281474.7,5,0,89,16,8
22,341,664.5951355,0,0,2281476.582,2281477.629,5,0,61,8,16
22,342,624.6685246,0,0,2281479.488,2281480.535,5,0,83,4,8
22,343,642.392897,1,0,2281482.182,2281483.229,5,1,89,4,16
22,344,786.9788446,0,0,2281484.912,2281485.959,5,0,71,16,8
22,345,615.1699978,1,0,2281487.818,2281488.865,5,1,94,4,16
22,346,632.3538851,1,0,2281490.547,2281491.594,5,1,91,4,0
22,347,533.8473795,1,0,2281493.265,2281494.312,5,1,100,8,4
22,348,597.78901,0,0,2281495.924,2281496.971,5,0,96,4,8
22,349,557.4947614,1,0,2281498.665,2281499.712,5,1,99,0,8
22,350,442.5546578,1,0,2281501.324,2281502.371,5,1,96,4,16
22,351,665.4401249,0,0,2281503.924,2281504.971,5,0,91,8,8
22,352,613.5169752,0,0,2281506.689,2281507.736,5,0,70,0,4
22,353,589.7687338,0,0,2281509.442,2281510.489,5,0,78,4,0
22,354,536.8008004,0,0,2281512.16,2281513.207,5,0,91,0,4
22,355,759.6758734,0,0,2281514.76,2281515.807,5,0,69,8,16
22,356,530.2864905,1,0,2281517.748,2281518.795,5,1,73,4,0
22,357,460.5038473,1,0,2281520.513,2281521.56,5,1,75,0,16
22,358,507.7982266,1,0,2281523.125,2281524.172,5,1,78,16,16
22,359,576.6588883,0,0,2281525.831,2281526.878,5,0,95,8,0
22,360,767.3920309,0,0,2281528.666,2281529.713,5,0,70,16,0
22,361,478.187799,0,0,2281531.666,2281532.713,5,0,68,8,16
22,362,632.361969,1,0,2281534.372,2281535.419,5,1,99,8,4
22,363,621.0321835,1,0,2281537.113,2281538.16,5,1,94,16,16
22,364,440.5794227,0,0,2281539.902,2281540.949,5,0,65,16,0
22,365,454.876103,1,0,2281542.514,2281543.561,5,1,76,0,0
22,366,491.708783,0,0,2281545.114,2281546.161,5,0,98,0,8
22,367,582.0756736,1,0,2281547.843,2281548.89,5,1,83,4,4
22,368,638.6356778,0,0,2281550.584,2281551.631,5,0,100,8,8
22,369,502.3056031,0,0,2281553.373,2281554.42,5,0,81,0,16
22,370,537.6919848,1,0,2281555.937,2281556.984,5,1,62,8,4
22,371,482.3854133,1,0,2281558.585,2281559.632,5,1,77,0,16
22,372,585.9237434,0,0,2281561.208,2281562.255,5,0,82,16,0
22,373,465.724688,1,0,2281564.008,2281565.055,5,1,84,0,0
22,374,439.3456229,1,0,2281566.691,2281567.738,5,1,84,16,4
22,375,582.50375,0,0,2281569.255,2281570.303,5,0,61,0,8
22,376,505.9438692,0,0,2281572.032,2281573.079,5,0,74,16,4
22,377,512.6556638,1,0,2281574.726,2281575.773,5,1,63,8,0
22,378,653.0031906,0,0,2281577.444,2281578.491,5,0,82,4,4
22,379,617.8704989,0,0,2281580.303,2281581.35,5,0,79,4,0
22,380,462.2149984,1,0,2281583.068,2281584.115,5,1,72,8,0
22,381,729.2177617,1,0,2281585.774,2281586.821,5,1,71,16,4
22,382,626.5864,1,0,2281588.644,2281589.691,5,1,92,8,0
22,383,459.1068239,1,0,2281591.327,2281592.374,5,1,63,0,0
22,384,589.6193688,0,0,2281594.009,2281595.056,5,0,82,4,4
22,385,484.841079,0,0,2281596.833,2281597.88,5,0,86,0,16
22,386,541.6436088,0,0,2281599.574,2281600.621,5,0,96,8,4
22,387,414.4494277,1,0,2281602.268,2281603.315,5,1,65,8,8
22,388,613.6132153,0,0,2281604.786,2281605.833,5,0,65,16,4
22,389,468.1757344,1,0,2281607.562,2281608.61,5,1,75,4,0
22,390,432.445968,0,0,2281610.092,2281611.139,5,0,67,0,0
22,391,637.4927289,0,0,2281612.739,2281613.786,5,0,99,0,4
22,392,530.753063,0,0,2281615.469,2281616.516,5,0,73,0,8
22,393,591.3170469,1,0,2281618.139,2281619.186,5,1,87,8,16
22,394,509.9959681,0,0,2281620.986,2281622.033,5,0,84,16,16
22,395,858.1485022,1,0,2281623.704,2281624.751,5,1,77,16,8
22,396,741.8325478,1,0,2281626.634,2281627.681,5,1,80,4,8
22,397,569.3507893,1,0,2281629.575,2281630.622,5,1,61,8,8
22,398,444.6253623,0,0,2281632.34,2281633.387,5,0,77,4,8
22,399,550.7348469,1,0,2281634.893,2281635.94,5,1,84,8,4
22,400,873.4229831,0,0,2281637.693,2281638.74,5,0,70,16,0
22,401,781.5058543,1,0,2281644.364,2281645.411,6,1,78,8,4
22,402,435.3828346,0,0,2281647.305,2281648.352,6,0,93,4,16
22,403,549.5738047,0,0,2281649.823,2281650.87,6,0,63,16,16
22,404,494.2949507,1,0,2281652.458,2281653.505,6,1,61,0,0
22,405,741.8079101,1,0,2281655.14,2281656.187,6,1,92,4,4
22,406,507.5429971,1,0,2281658.093,2281659.14,6,1,86,8,16
22,407,417.3501083,0,0,2281660.788,2281661.835,6,0,94,4,0
22,408,662.4489781,0,0,2281663.446,2281664.494,6,0,100,16,8
22,409,524.4916733,0,0,2281666.258,2281667.305,6,0,84,0,16
22,410,473.4573988,0,0,2281669,2281670.047,6,0,75,16,8
22,411,428.4762503,1,0,2281671.553,2281672.6,6,1,66,0,8
22,412,480.8290163,0,0,2281674.129,2281675.176,6,0,67,16,4
22,413,548.0227969,1,0,2281676.788,2281677.835,6,1,62,16,16
22,414,559.6747953,0,0,2281679.494,2281680.541,6,0,83,8,0
22,415,633.5353306,0,0,2281682.282,2281683.329,6,0,70,8,0
22,416,625.50312,1,0,2281685.141,2281686.188,6,1,83,16,0
22,417,455.2283422,0,0,2281687.882,2281688.93,6,0,76,8,0
22,418,520.3244709,1,0,2281690.588,2281691.636,6,1,69,0,0
22,419,486.8856068,1,0,2281693.283,2281694.33,6,1,86,4,8
22,420,537.382476,1,0,2281696.012,2281697.059,6,1,69,4,8
22,421,546.5630251,1,0,2281698.765,2281699.812,6,1,81,8,4
22,422,672.3490194,0,0,2281701.518,2281702.565,6,0,71,4,8
22,423,596.7130442,0,0,2281704.283,2281705.33,6,0,98,8,0
22,424,496.1762545,1,0,2281707.118,2281708.165,6,1,87,4,16
22,425,418.952316,1,0,2281709.718,2281710.766,6,1,63,8,16
22,426,539.1710047,0,0,2281712.271,2281713.319,6,0,98,0,4
22,427,578.3434776,1,0,2281714.942,2281715.989,6,1,80,8,8
22,428,512.901654,1,0,2281717.73,2281718.778,6,1,90,0,4
22,429,687.3378591,1,0,2281720.401,2281721.448,6,1,72,16,0
22,430,679.7953187,1,0,2281723.178,2281724.225,6,1,83,8,0
22,431,432.1965128,1,0,2281726.048,2281727.095,6,1,75,4,4
22,432,644.9752152,1,0,2281728.601,2281729.648,6,1,70,4,4
22,433,710.2145492,0,0,2281731.319,2281732.366,6,0,61,4,16
22,434,682.3260523,0,0,2281734.131,2281735.178,6,0,99,8,16
22,435,820.8581042,0,0,2281736.907,2281737.955,6,0,79,8,16
22,436,808.5944024,1,0,2281739.802,2281740.849,6,1,79,4,0
22,437,587.3942943,0,0,2281742.802,2281743.849,6,0,74,16,4
22,438,494.890485,1,0,2281745.578,2281746.625,6,1,96,0,8
22,439,586.4700032,1,0,2281748.308,2281749.355,6,1,79,4,8
22,440,442.5923838,0,0,2281751.073,2281752.12,6,0,64,0,16
22,441,621.6993206,0,0,2281753.684,2281754.732,6,0,99,0,16
22,442,584.1887249,1,0,2281756.461,2281757.508,6,1,100,16,8
22,443,501.2088497,0,0,2281759.226,2281760.273,6,0,84,4,8
22,444,523.0784817,0,0,2281761.92,2281762.967,6,0,89,4,0
22,445,521.4651106,1,0,2281764.649,2281765.697,6,1,93,4,0
22,446,609.1241855,1,0,2281767.332,2281768.379,6,1,98,4,16
22,447,587.6822448,1,0,2281770.12,2281771.167,6,1,98,0,0
22,448,849.6420202,0,0,2281772.767,2281773.814,6,0,82,16,0
22,449,494.290716,0,0,2281775.815,2281776.862,6,0,67,0,4
22,450,534.0352408,1,0,2281778.556,2281779.603,6,1,83,4,16
22,451,495.9710706,0,0,2281781.262,2281782.309,6,0,85,16,16
22,452,478.4068419,0,0,2281783.827,2281784.874,6,0,96,8,8
22,453,400.1146364,0,0,2281786.368,2281787.415,6,0,76,0,4
22,454,372.1325938,0,0,2281788.98,2281790.027,6,0,75,0,8
22,455,481.7036474,1,0,2281791.462,2281792.509,6,1,64,16,8
22,456,551.9093629,0,0,2281794.18,2281795.227,6,0,62,16,16
22,457,662.3696764,0,0,2281796.956,2281798.003,6,0,62,4,4
22,458,439.334074,0,0,2281799.803,2281800.851,6,0,79,0,0
22,459,607.9823915,1,0,2281802.392,2281803.439,6,1,71,0,8
22,460,680.7072912,0,0,2281805.086,2281806.133,6,0,66,0,4
22,461,877.929721,0,0,2281807.957,2281809.004,6,0,97,16,4
22,462,427.2451452,1,0,2281811.027,2281812.074,6,1,75,8,8
22,463,454.9692636,0,0,2281813.616,2281814.663,6,0,61,0,0
22,464,484.1215876,1,0,2281816.227,2281817.275,6,1,67,8,16
22,465,505.1962752,0,0,2281818.945,2281819.992,6,0,93,0,16
22,466,452.1105434,1,0,2281821.592,2281822.639,6,1,68,16,16
22,467,609.5191557,1,0,2281824.263,2281825.31,6,1,96,16,0
22,468,641.2437884,1,0,2281827.11,2281828.157,6,1,82,4,0
22,469,664.9939548,0,0,2281829.804,2281830.851,6,0,63,16,0
22,470,604.5843409,1,0,2281832.687,2281833.734,6,1,91,8,8
22,471,398.7541841,1,0,2281835.346,2281836.393,6,1,84,0,16
22,472,643.2740726,0,0,2281837.887,2281838.934,6,0,66,16,4
22,473,693.3101434,1,0,2281840.687,2281841.734,6,1,76,4,4
22,474,422.6714242,1,0,2281843.511,2281844.558,6,1,63,8,4
22,475,442.6435838,0,0,2281846.122,2281847.17,6,0,95,0,8
22,476,616.1639672,0,0,2281848.746,2281849.793,6,0,81,8,4
22,477,389.4204209,1,0,2281851.511,2281852.558,6,1,74,8,8
22,478,527.5012981,1,0,2281854.029,2281855.076,6,1,66,16,8
22,479,550.882672,0,0,2281856.805,2281857.852,6,0,91,8,4
22,480,545.4601119,0,0,2281859.429,2281860.476,6,0,78,16,4
22,481,418.1477479,1,0,2281865.935,2281866.982,7,1,78,0,0
22,482,596.6310478,0,1,2281868.523,2281869.57,7,1,91,8,4
22,483,434.8134776,0,0,2281871.229,2281872.276,7,0,63,8,8
22,484,465.3235585,0,0,2281873.864,2281874.912,7,0,74,4,8
22,485,468.8836774,1,0,2281876.535,2281877.582,7,1,77,4,0
22,486,483.156105,1,0,2281879.065,2281880.112,7,1,63,8,16
22,487,543.2743034,1,0,2281881.724,2281882.771,7,1,80,0,4
22,488,508.2305376,1,0,2281884.429,2281885.477,7,1,80,8,0
22,489,495.1380151,1,0,2281887.124,2281888.171,7,1,70,16,0
22,490,414.2119065,1,0,2281889.841,2281890.889,7,1,63,0,0
22,491,645.2454575,1,0,2281892.336,2281893.383,7,1,97,8,16
22,492,505.5346554,0,0,2281895.206,2281896.253,7,0,72,4,16
22,493,450.7847377,1,0,2281897.924,2281898.971,7,1,96,0,4
22,494,472.6824723,1,0,2281900.43,2281901.477,7,1,92,8,0
22,495,583.7556431,1,0,2281903.148,2281904.195,7,1,87,4,0
22,496,413.0909005,0,0,2281905.912,2281906.96,7,0,75,0,0
22,497,398.9408901,1,0,2281908.407,2281909.454,7,1,66,8,0
22,498,647.6006489,1,0,2281911.054,2281912.101,7,1,95,16,4
22,499,654.8945038,0,0,2281913.819,2281914.866,7,0,77,4,4
22,500,537.4717871,0,0,2281916.654,2281917.701,7,0,70,16,0
22,501,668.2865261,1,0,2281919.442,2281920.489,7,1,93,8,8
22,502,390.2415428,0,0,2281922.254,2281923.301,7,0,75,0,16
22,503,408.3839827,1,0,2281924.866,2281925.913,7,1,93,0,0
22,504,535.7706444,1,0,2281927.443,2281928.49,7,1,84,16,0
22,505,642.4976061,0,0,2281930.125,2281931.172,7,0,76,4,8
22,506,415.9207484,0,0,2281932.902,2281933.949,7,0,67,0,16
22,507,413.7310903,0,0,2281935.455,2281936.502,7,0,67,4,16
22,508,395.9131725,1,0,2281938.113,2281939.161,7,1,87,4,16
22,509,745.3172142,0,0,2281940.737,2281941.784,7,0,61,8,0
22,510,467.7942377,0,0,2281943.725,2281944.772,7,0,70,0,16
22,511,521.8908773,0,0,2281946.384,2281947.431,7,0,77,8,8
22,512,525.0086756,1,0,2281948.996,2281950.043,7,1,71,0,8
22,513,391.6385658,0,0,2281951.679,2281952.726,7,0,85,4,0
22,514,410.1909897,1,1,2281954.208,2281955.255,7,0,96,16,16
22,515,494.0170087,1,0,2281956.855,2281957.902,7,1,73,4,16
22,516,516.6234565,0,0,2281959.596,2281960.644,7,0,71,0,8
22,517,587.0466749,1,0,2281962.373,2281963.42,7,1,68,8,4
22,518,550.5096447,0,0,2281965.102,2281966.15,7,0,87,4,4
22,519,574.3637509,0,0,2281967.891,2281968.938,7,0,87,16,16
22,520,630.8540772,0,0,2281970.526,2281971.573,7,0,63,16,4
22,521,507.3412773,0,0,2281973.256,2281974.303,7,0,100,0,8
22,522,543.2785382,1,0,2281975.856,2281976.903,7,1,89,4,4
22,523,514.111971,1,0,2281978.562,2281979.609,7,1,74,16,0
22,524,542.8955019,1,0,2281981.244,2281982.291,7,1,78,8,16
22,525,787.6490615,0,0,2281983.985,2281985.032,7,0,97,16,4
22,526,430.2401417,1,0,2281986.927,2281987.974,7,1,66,4,4
22,527,408.6084147,0,0,2281989.55,2281990.597,7,0,84,4,4
22,528,621.3343777,0,0,2281992.092,2281993.139,7,0,91,16,4
22,529,595.4869436,1,0,2281994.915,2281995.962,7,1,100,4,8
22,530,420.8574882,0,0,2281997.727,2281998.774,7,0,88,0,0
22,531,522.5607092,1,0,2282000.315,2282001.362,7,1,79,0,8
22,532,652.9793236,0,0,2282002.951,2282003.998,7,0,87,4,0
22,533,445.9938984,1,0,2282005.763,2282006.81,7,1,95,16,16
22,534,552.3701613,0,0,2282008.374,2282009.421,7,0,88,16,4
22,535,536.3681037,1,0,2282011.092,2282012.139,7,1,79,0,16
22,536,451.9946701,0,0,2282013.716,2282014.763,7,0,63,8,8
22,537,384.7504593,0,0,2282016.363,2282017.41,7,0,76,4,0
22,538,542.1352042,0,0,2282018.845,2282019.892,7,0,81,8,8
22,539,664.7383408,0,0,2282021.469,2282022.516,7,0,61,16,8
22,540,526.4634434,0,0,2282024.222,2282025.269,7,0,98,0,8
22,541,439.956171,1,0,2282026.904,2282027.951,7,1,86,8,4
22,542,429.8651894,0,0,2282029.446,2282030.493,7,0,64,8,4
22,543,625.1089196,1,0,2282032.069,2282033.116,7,1,100,16,8
22,544,576.0306315,0,0,2282034.763,2282035.811,7,0,100,16,16
22,545,391.6354859,1,0,2282037.458,2282038.505,7,1,95,0,4
22,546,476.1605947,1,0,2282039.94,2282040.987,7,1,72,8,4
22,547,578.2168251,0,0,2282042.646,2282043.693,7,0,80,8,16
22,548,434.3546042,1,0,2282045.305,2282046.352,7,1,87,16,16
22,549,460.0646072,0,0,2282047.952,2282048.999,7,0,93,0,16
22,550,560.5151653,0,0,2282050.517,2282051.564,7,0,70,16,8
22,551,925.7946122,0,0,2282053.187,2282054.235,7,0,91,16,0
22,552,434.3719278,1,0,2282056.223,2282057.27,7,1,97,4,16
22,553,596.9848265,1,0,2282058.917,2282059.964,7,1,62,16,8
22,554,559.7206056,1,0,2282061.611,2282062.658,7,1,84,16,8
22,555,420.5160276,0,0,2282064.352,2282065.4,7,0,74,8,16
22,556,677.2826789,1,0,2282066.847,2282067.894,7,1,63,4,8
22,557,432.7570163,0,0,2282069.717,2282070.764,7,0,73,0,4
22,558,438.3424148,1,0,2282072.306,2282073.353,7,1,67,8,0
22,559,462.7631833,0,0,2282074.882,2282075.929,7,0,82,0,4
22,560,541.8179962,1,0,2282077.447,2282078.494,7,1,63,4,8
22,561,454.8868816,0,0,2282105.601,2282106.648,8,0,94,0,4
22,562,452.9312802,1,0,2282108.166,2282109.213,8,1,73,8,0
22,563,364.2689968,1,0,2282110.683,2282111.73,8,1,64,8,0
22,564,342.972571,1,0,2282113.272,2282114.319,8,1,77,0,0
22,565,358.8194894,1,0,2282115.766,2282116.813,8,1,75,8,8
22,566,485.3145811,1,0,2282118.201,2282119.248,8,1,97,0,0
22,567,396.3970686,0,1,2282120.813,2282121.86,8,1,93,8,16
22,568,425.2468129,1,0,2282123.307,2282124.354,8,1,78,4,4
22,569,553.5970316,1,0,2282125.884,2282126.931,8,1,77,16,0
22,570,390.7050355,0,0,2282128.59,2282129.637,8,0,86,0,0
22,571,392.2914597,1,0,2282131.131,2282132.178,8,1,68,0,4
22,572,522.3936359,0,0,2282133.59,2282134.637,8,0,81,0,4
22,573,435.5579917,1,0,2282136.343,2282137.39,8,1,62,0,16
22,574,430.3929708,1,0,2282138.943,2282139.99,8,1,87,16,4
22,575,555.3497588,0,0,2282141.449,2282142.496,8,0,94,8,8
22,576,449.9578415,1,0,2282144.131,2282145.178,8,1,63,4,8
22,577,888.8237318,0,0,2282146.837,2282147.884,8,0,68,0,8
22,578,509.3118926,0,0,2282149.814,2282150.861,8,0,73,4,0
22,579,483.2304027,0,0,2282152.414,2282153.461,8,0,93,0,4
22,580,417.1002689,1,0,2282155.014,2282156.061,8,1,74,8,0
22,581,474.7589515,0,0,2282157.544,2282158.591,8,0,67,4,0
22,582,418.2220451,0,0,2282160.073,2282161.12,8,0,67,4,4
22,583,452.0127634,1,0,2282162.626,2282163.673,8,1,83,16,0
22,584,603.1661453,1,0,2282165.238,2282166.285,8,1,81,16,16
22,585,465.2565755,1,0,2282167.991,2282169.038,8,1,88,0,8
22,586,509.596379,1,0,2282170.614,2282171.662,8,1,84,16,8
22,587,535.3822187,1,0,2282173.309,2282174.356,8,1,79,0,4
22,588,491.5089882,0,0,2282175.968,2282177.015,8,0,63,0,16
22,589,721.4958305,1,0,2282178.532,2282179.579,8,1,61,16,16
22,590,507.9741534,1,0,2282181.415,2282182.462,8,1,68,4,16
22,591,605.5409689,0,0,2282184.038,2282185.085,8,0,82,4,16
22,592,398.9085536,0,0,2282186.862,2282187.909,8,0,73,4,4
22,593,504.309325,1,0,2282189.497,2282190.544,8,1,69,0,8
22,594,496.6062563,0,0,2282192.215,2282193.262,8,0,63,4,16
22,595,566.5382645,0,0,2282194.909,2282195.956,8,0,86,4,16
22,596,664.5597187,0,0,2282197.627,2282198.674,8,0,100,16,8
22,597,437.882001,1,0,2282200.486,2282201.533,8,1,65,16,4
22,598,466.9869747,1,0,2282203.051,2282204.098,8,1,79,0,16
22,599,590.8412347,0,0,2282205.757,2282206.804,8,0,73,16,16
22,600,461.2676096,0,0,2282208.474,2282209.521,8,0,77,4,8
22,601,610.8857673,1,0,2282211.169,2282212.216,8,1,88,8,4
22,602,498.2311768,1,0,2282213.933,2282214.98,8,1,94,4,4
22,603,481.2655617,0,1,2282216.498,2282217.545,8,1,91,16,8
22,604,430.203185,1,0,2282219.239,2282220.287,8,1,88,0,0
22,605,391.1435059,0,0,2282221.898,2282222.945,8,0,87,4,16
22,606,523.7028887,0,0,2282224.381,2282225.428,8,0,64,0,0
22,607,691.1174059,0,0,2282226.957,2282228.004,8,0,100,16,0
22,608,524.6283342,1,0,2282229.887,2282230.934,8,1,79,8,4
22,609,500.6895373,0,0,2282232.499,2282233.546,8,0,97,8,8
22,610,598.4865595,1,0,2282235.087,2282236.134,8,1,79,16,0
22,611,604.2902311,0,0,2282237.781,2282238.828,8,0,62,4,4
22,612,571.0226744,0,0,2282240.522,2282241.569,8,0,91,16,0
22,613,538.901147,1,0,2282243.181,2282244.228,8,1,98,8,16
22,614,390.0452126,0,0,2282245.793,2282246.84,8,0,83,16,4
22,615,827.8027996,0,0,2282248.44,2282249.487,8,0,92,0,16
22,616,538.6128114,1,0,2282251.334,2282252.382,8,1,72,8,0
22,617,555.9052574,0,0,2282254.052,2282255.099,8,0,69,4,0
22,618,455.4924252,0,0,2282256.841,2282257.888,8,0,75,4,0
22,619,619.2348003,0,0,2282259.382,2282260.429,8,0,63,8,16
22,620,524.9493918,1,0,2282262.17,2282263.217,8,1,94,0,16
22,621,624.7382024,1,0,2282264.805,2282265.853,8,1,69,16,16
22,622,376.601221,1,0,2282267.57,2282268.617,8,1,77,4,8
22,623,537.939515,0,0,2282270.088,2282271.135,8,0,83,16,4
22,624,411.0613866,0,0,2282272.841,2282273.888,8,0,65,8,16
22,625,555.676206,1,0,2282275.335,2282276.382,8,1,74,8,0
22,626,882.2501381,0,0,2282277.971,2282279.018,8,0,74,8,16
22,627,646.2736884,0,0,2282281.065,2282282.112,8,0,61,16,4
22,628,439.6162503,0,0,2282283.841,2282284.888,8,0,76,0,8
22,629,583.6270666,1,0,2282286.347,2282287.394,8,1,88,8,8
22,630,513.1199262,0,0,2282289.03,2282290.077,8,0,71,8,4
22,631,498.5984294,1,0,2282291.759,2282292.806,8,1,89,16,16
22,632,594.5222313,0,0,2282294.406,2282295.453,8,0,89,4,8
22,633,652.8003169,1,0,2282297.089,2282298.136,8,1,71,16,8
22,634,577.2998482,0,0,2282299.818,2282300.865,8,0,97,8,4
22,635,628.5816524,1,0,2282302.524,2282303.571,8,1,72,4,8
22,636,560.4839833,0,1,2282305.289,2282306.336,8,1,100,4,0
22,637,524.3373038,0,0,2282307.936,2282308.983,8,0,64,16,8
22,638,759.8941461,0,0,2282310.56,2282311.607,8,0,93,8,4
22,639,413.3988693,0,0,2282313.548,2282314.595,8,0,85,8,8
22,640,366.777787,0,0,2282316.16,2282317.207,8,0,74,0,8
22,641,717.6312073,0,0,2282349.173,2282350.22,9,0,91,16,8
22,642,350.9274046,1,0,2282352.102,2282353.149,9,1,85,0,0
22,643,614.3484912,0,0,2282354.573,2282355.62,9,0,79,4,4
22,644,504.1988413,0,0,2282357.267,2282358.314,9,0,79,4,8
22,645,514.7679443,0,0,2282359.855,2282360.902,9,0,93,4,0
22,646,503.4966725,0,0,2282362.55,2282363.597,9,0,67,0,8
22,647,431.2164024,1,0,2282365.138,2282366.185,9,1,65,4,16
22,648,361.6093015,1,0,2282367.667,2282368.714,9,1,85,0,4
22,649,510.5576264,1,0,2282370.173,2282371.22,9,1,67,16,0
22,650,477.2523437,1,0,2282372.856,2282373.903,9,1,95,0,4
22,651,671.5559997,0,0,2282375.479,2282376.526,9,0,95,16,4
22,652,423.1014252,0,0,2282378.256,2282379.303,9,0,77,0,16
22,653,644.837399,1,0,2282380.844,2282381.891,9,1,99,8,0
22,654,713.1510316,1,0,2282383.727,2282384.774,9,1,92,8,16
22,655,668.9817654,0,0,2282386.574,2282387.621,9,0,80,8,0
22,656,588.3397581,0,0,2282389.492,2282390.539,9,0,100,0,4
22,657,603.8744734,0,0,2282392.327,2282393.374,9,0,94,0,0
22,658,421.27671,1,0,2282395.045,2282396.092,9,1,75,0,16
22,659,505.5900901,0,0,2282397.668,2282398.715,9,0,64,8,16
22,660,584.0077926,0,0,2282400.304,2282401.351,9,0,89,0,0
22,661,731.5348424,1,0,2282403.033,2282404.08,9,1,93,16,0
22,662,800.8790147,0,0,2282405.951,2282406.998,9,0,72,4,0
22,663,744.6115813,1,0,2282408.951,2282409.998,9,1,65,8,8
22,664,500.1679151,1,0,2282411.786,2282412.833,9,1,72,4,8
22,665,547.6312917,1,0,2282414.516,2282415.563,9,1,99,4,4
22,666,556.1027429,0,0,2282417.292,2282418.339,9,0,93,0,4
22,667,561.2015505,1,0,2282420.104,2282421.151,9,1,100,8,16
22,668,398.482787,1,0,2282422.763,2282423.81,9,1,85,8,0
22,669,410.8943134,1,0,2282425.398,2282426.446,9,1,97,4,4
22,670,511.5889371,0,0,2282427.987,2282429.034,9,0,72,8,16
22,671,526.4234073,0,0,2282430.634,2282431.681,9,0,94,0,8
22,672,981.2339949,0,0,2282433.281,2282434.328,9,0,98,8,8
22,673,464.6802889,1,0,2282436.505,2282437.552,9,1,73,4,16
22,674,615.4514039,1,0,2282439.152,2282440.199,9,1,90,16,8
22,675,553.7506309,1,0,2282441.823,2282442.87,9,1,94,4,0
22,676,636.3058942,1,0,2282444.446,2282445.493,9,1,90,8,4
22,677,412.8341316,0,0,2282447.187,2282448.234,9,0,65,8,0
22,678,466.4149228,1,0,2282449.717,2282450.764,9,1,71,0,16
22,679,598.8857639,0,0,2282452.341,2282453.388,9,0,96,16,16
22,680,424.3044285,1,0,2282455.023,2282456.07,9,1,86,4,16
22,681,699.2974412,0,0,2282457.623,2282458.67,9,0,100,16,4
22,682,467.8238798,0,0,2282460.505,2282461.552,9,0,97,4,4
22,683,443.8261837,1,0,2282463.211,2282464.258,9,1,86,8,4
22,684,462.6234425,1,0,2282465.706,2282466.753,9,1,88,4,0
22,685,508.2374667,0,0,2282468.353,2282469.4,9,0,94,16,16
22,686,520.4110872,0,0,2282470.965,2282472.012,9,0,68,0,4
22,687,623.6741701,0,0,2282473.682,2282474.729,9,0,92,0,0
22,688,490.5157886,0,0,2282476.482,2282477.529,9,0,86,4,8
22,689,702.6281231,0,0,2282479.129,2282480.177,9,0,91,16,0
22,690,522.2635195,1,0,2282481.93,2282482.977,9,1,87,16,8
22,691,543.447536,1,0,2282484.541,2282485.588,9,1,65,4,8
22,692,902.5241071,0,0,2282487.294,2282488.341,9,0,71,16,0
22,693,673.3595417,0,0,2282490.342,2282491.389,9,0,73,0,16
22,694,536.2145049,1,0,2282493.248,2282494.295,9,1,94,0,16
22,695,790.2348442,1,0,2282495.859,2282496.906,9,1,69,8,8
22,696,531.3763148,0,0,2282498.801,2282499.848,9,0,61,4,0
22,697,761.100614,0,0,2282501.401,2282502.448,9,0,66,4,8
22,698,520.7883487,0,0,2282504.401,2282505.448,9,0,65,8,4
22,699,553.9227086,1,0,2282507.166,2282508.213,9,1,68,16,4
22,700,571.6170543,1,0,2282509.801,2282510.848,9,1,77,16,4
22,701,394.6127743,1,0,2282512.507,2282513.554,9,1,73,0,8
22,702,382.1261805,1,0,2282515.131,2282516.178,9,1,75,4,4
22,703,429.7362273,0,0,2282517.719,2282518.766,9,0,73,4,16
22,704,378.6091772,1,0,2282520.319,2282521.366,9,1,66,16,0
22,705,541.6586222,0,0,2282522.872,2282523.919,9,0,61,8,0
22,706,521.6606706,1,0,2282525.637,2282526.684,9,1,85,16,4
22,707,649.807245,1,0,2282528.39,2282529.437,9,1,92,16,16
22,708,644.2792057,0,0,2282531.272,2282532.319,9,0,98,4,16
22,709,597.4275321,1,0,2282534.143,2282535.19,9,1,89,8,8
22,710,478.2859636,0,0,2282536.837,2282537.884,9,0,67,8,8
22,711,637.5150569,1,0,2282539.508,2282540.555,9,1,93,16,16
22,712,701.8204755,0,0,2282542.367,2282543.414,9,0,82,8,4
22,713,568.1466316,0,0,2282545.237,2282546.284,9,0,80,0,8
22,714,347.8111457,0,0,2282547.931,2282548.979,9,0,73,0,0
22,715,479.2537559,1,0,2282550.508,2282551.555,9,1,79,8,4
22,716,554.0528256,0,0,2282553.108,2282554.155,9,0,98,0,8
22,717,524.8412178,1,0,2282555.802,2282556.849,9,1,78,16,8
22,718,708.6138814,1,0,2282558.497,2282559.544,9,1,83,8,16
22,719,470.8469785,1,0,2282561.367,2282562.414,9,1,65,16,16
22,720,506.5690461,0,0,2282563.955,2282565.003,9,0,66,16,8
