sub_id,Trial,RT,Resp,Error,Fix_onset,Disp_onset,block,tid,tloc,fish_setsize,bird_setsize
8,1,630.089909071103,1,0,1196725.82040488,1196726.86748368,1,1,96,0,4
8,2,714.128811610863,1,0,1196728.57338698,1196729.62046232,1,1,94,8,16
8,3,496.681303018704,1,0,1196731.34989482,1196732.39696361,1,1,94,16,4
8,4,595.700191566721,1,0,1196733.91464255,1196734.96173791,1,1,71,4,8
8,5,671.736140502617,0,0,1196736.60878222,1196737.65585216,1,0,80,16,4
8,6,564.001735998318,0,0,1196739.33823204,1196740.3853016,1,0,85,16,16
8,7,560.125949094072,0,0,1196742.04414727,1196743.09121799,1,0,62,16,8
8,8,556.044592987746,1,0,1196744.844187,1196745.89125502,1,1,77,16,8
8,9,430.798314046115,0,0,1196747.52661268,1196748.57363644,1,0,67,4,4
8,10,568.82183207199,0,0,1196750.07961373,1196751.12661592,1,0,93,4,4
8,11,403.34674809128,1,0,1196752.80898501,1196753.85606343,1,1,74,0,8
8,12,706.8237925414,0,0,1196755.2914204,1196756.33844916,1,0,100,16,16
8,13,598.81260083057,0,0,1196758.24439049,1196759.29143195,1,0,73,8,16
8,14,627.724323887378,1,0,1196760.95036462,1196761.99735103,1,1,83,16,16
8,15,527.266066521406,1,0,1196763.7267793,1196764.77384385,1,1,75,8,4
8,16,694.635158637539,1,0,1196766.39739438,1196767.44446664,1,1,89,4,8
8,17,767.07133767195,0,0,1196769.26802748,1196770.31509319,1,0,92,8,4
8,18,569.398503750563,1,0,1196772.24453601,1196773.29160364,1,1,91,0,0
8,19,518.289546715096,1,0,1196774.89162458,1196775.93869222,1,1,75,0,0
8,20,429.498685756698,1,0,1196777.59754367,1196778.64461823,1,1,63,4,16
8,21,718.416506657377,0,0,1196780.1505193,1196781.19758809,1,0,93,16,0
8,22,648.736648028716,1,0,1196782.92702213,1196783.9741298,1,1,80,8,0
8,23,525.96104866825,0,0,1196785.78588004,1196786.83295153,1,0,74,8,0
8,24,634.462680434808,0,0,1196788.40950063,1196789.45652669,1,0,81,0,8
8,25,655.026525259018,0,0,1196791.23300681,1196792.2800833,1,0,80,0,8
8,26,600.504889385775,0,0,1196794.11540278,1196795.16245886,1,0,71,0,8
8,27,704.265726963058,1,0,1196796.96249705,1196798.00956507,1,1,99,4,16
8,28,619.097348768264,1,0,1196799.90379589,1196800.95077961,1,1,82,4,16
8,29,386.02773938328,1,0,1196802.76256296,1196803.80964484,1,1,85,0,16
8,30,566.127875354141,0,0,1196805.26848019,1196806.31555745,1,0,61,8,0
8,31,595.827613491565,0,0,1196808.00969404,1196809.05676552,1,0,68,16,0
8,32,400.553471408784,1,0,1196810.79796666,1196811.84503468,1,1,97,4,8
8,33,1011.89226540737,1,0,1196813.31564907,1196814.36271517,1,1,67,4,16
8,34,664.55777361989,0,0,1196816.50391924,1196817.55099342,1,0,82,8,4
8,35,517.670144559816,1,0,1196819.36277907,1196820.40986057,1,1,94,16,4
8,36,587.247603805736,1,0,1196822.08046295,1196823.12752712,1,1,61,4,0
8,37,672.205792972818,0,0,1196824.73932171,1196825.78638858,1,0,78,8,8
8,38,466.610462637618,1,0,1196827.62171113,1196828.66881649,1,1,93,8,8
8,39,631.633217446506,0,0,1196830.22174863,1196831.26881203,1,0,99,4,8
8,40,629.633345175534,0,0,1196832.91589291,1196833.96296593,1,0,74,0,4
8,41,484.275551047176,0,0,1196835.65710675,1196836.70417824,1,0,96,4,16
8,42,423.911362420768,0,0,1196838.38659892,1196839.43363114,1,0,96,0,0
8,43,593.52593193762,0,0,1196840.88070786,1196841.92778166,1,0,78,0,8
8,44,643.594339489937,1,0,1196843.52779836,1196844.57486523,1,1,81,4,0
8,45,659.636047668755,0,0,1196846.23371283,1196847.280782,1,0,68,4,4
8,46,448.821801459417,1,0,1196849.15139932,1196850.19846888,1,1,72,0,0
8,47,715.110462158918,0,0,1196851.77496062,1196852.82207215,1,0,78,0,16
8,48,555.39092910476,1,0,1196854.68088156,1196855.72794919,1,1,100,0,16
8,49,508.123112842441,0,0,1196857.42214275,1196858.46915842,1,0,80,0,4
8,50,430.964617291465,1,1,1196860.02212058,1196861.0691936,1,0,84,4,0
8,51,599.051276687533,0,0,1196862.68098203,1196863.72804505,1,0,93,16,16
8,52,512.653333134949,1,0,1196865.51631421,1196866.56343266,1,1,82,0,4
8,53,702.588066924363,0,0,1196868.15163761,1196869.19870409,1,0,94,16,0
8,54,635.91629313305,1,0,1196871.02227379,1196872.06934451,1,1,90,8,16
8,55,541.41453653574,1,0,1196873.75171091,1196874.79877431,1,1,95,4,4
8,56,394.735556328669,1,0,1196876.42234139,1196877.46940402,1,1,76,0,4
8,57,608.789633959532,0,0,1196878.98706796,1196880.03418063,1,0,72,16,8
8,58,502.430310007185,1,0,1196881.716512,1196882.76358657,1,1,90,0,16
8,59,588.216550415382,0,0,1196884.30478702,1196885.35185311,1,0,61,8,4
8,60,402.121802326292,1,0,1196886.99893861,1196888.04600163,1,1,64,16,8
8,61,595.217065420002,0,0,1196889.51661217,1196890.5636852,1,0,78,8,0
8,62,596.498985309154,0,0,1196892.32841515,1196893.37548895,1,0,71,8,0
8,63,480.708887800574,1,0,1196894.99904255,1196896.04614714,1,1,73,16,4
8,64,743.825085228309,1,0,1196897.55200933,1196898.59912432,1,1,78,4,8
8,65,574.420319404453,0,0,1196900.48146331,1196901.52853479,1,0,96,8,16
8,66,526.708642952144,0,0,1196903.21096317,1196904.25798462,1,0,84,4,4
8,67,493.901114910841,0,0,1196905.96392988,1196907.01095979,1,0,77,8,8
8,68,589.285971829668,1,0,1196908.54038928,1196909.58746,1,1,83,16,4
8,69,495.229230262339,1,0,1196911.34042516,1196912.38749203,1,1,73,16,0
8,70,467.828863998875,1,0,1196914.06987729,1196915.11694762,1,1,66,0,0
8,71,498.662697151303,1,0,1196916.62283945,1196917.66993096,1,1,90,4,0
8,72,396.955241216347,1,0,1196919.34052872,1196920.38759751,1,1,96,16,0
8,73,470.992858055979,0,0,1196921.9405589,1196922.98762923,1,0,74,8,16
8,74,580.568915931508,0,0,1196924.52882583,1196925.57590001,1,0,81,0,16
8,75,592.587397200987,1,0,1196927.17591671,1196928.22300514,1,1,81,16,8
8,76,720.429082633927,0,0,1196930.02300984,1196931.07009364,1,0,69,16,16
8,77,450.984512222931,1,0,1196932.84658492,1196933.89364717,1,1,88,8,8
8,78,576.424041297287,0,0,1196935.52897173,1196936.57605322,1,0,82,8,4
8,79,543.107209727168,0,0,1196938.25841115,1196939.30548649,1,0,94,4,0
8,80,440.270278602839,1,0,1196940.88197515,1196941.92904664,1,1,67,8,8
8,81,665.785029064864,0,0,1196958.4704311,1196959.51751875,2,0,69,0,0
8,82,631.405705586076,1,0,1196961.19987784,1196962.2469501,2,1,62,16,8
8,83,550.29327608645,1,0,1196963.90579384,1196964.95286687,2,1,79,4,4
8,84,485.123235033825,1,0,1196966.54112263,1196967.58819066,2,1,97,0,0
8,85,644.447412807494,1,0,1196969.2117535,1196970.25880997,2,1,71,8,8
8,86,474.247317994013,1,0,1196972.05883892,1196973.10591349,2,1,81,8,0
8,87,495.289669139311,1,0,1196974.65888104,1196975.70595021,2,1,72,16,16
8,88,673.70329122059,0,0,1196977.29420944,1196978.34132905,2,0,100,16,4
8,89,613.545826636255,1,0,1196980.03540943,1196981.08248053,2,1,79,4,16
8,90,617.145211668685,1,0,1196982.85897989,1196983.90605369,2,1,100,4,16
8,91,609.131864272058,0,0,1196985.57665376,1196986.62372833,2,0,63,4,16
8,92,694.705991307274,0,0,1196988.3061082,1196989.35319239,2,0,74,16,16
8,93,544.994673458859,0,0,1196991.11791657,1196992.16498344,2,0,63,0,4
8,94,525.35165543668,0,0,1196993.88264806,1196994.92971878,2,0,95,16,4
8,95,431.3122369349,1,0,1196996.58857446,1196997.63563863,2,1,85,16,0
8,96,554.969396907836,0,1,1196999.08271728,1197000.1297853,2,1,71,4,0
8,97,582.768967840821,0,0,1197001.71809342,1197002.7651087,2,0,79,4,0
8,98,421.113081509247,0,0,1197004.54160999,1197005.58870612,2,0,80,0,8
8,99,384.753518505022,0,0,1197007.17693917,1197008.22400065,2,0,75,0,0
8,100,610.003415960819,1,0,1197009.74171001,1197010.78873876,2,1,73,16,8
8,101,641.330769052729,1,0,1197012.56523774,1197013.61230499,2,1,74,8,16
8,102,556.688632583246,1,0,1197015.28296473,1197016.32998964,2,1,68,4,16
8,103,539.503975305706,1,0,1197018.08296443,1197019.13002552,2,1,64,8,4
8,104,677.57214885205,0,0,1197020.82416633,1197021.87123012,2,0,73,16,0
8,105,586.983905406669,1,0,1197023.61243973,1197024.6595116,2,1,89,8,0
8,106,632.962487637997,1,0,1197026.35364434,1197027.40071736,2,1,100,4,0
8,107,583.904987433925,0,0,1197029.10668533,1197030.1537164,2,0,61,8,8
8,108,578.14366184175,0,0,1197031.77724383,1197032.82431339,2,0,64,8,8
8,109,556.192418094724,0,0,1197034.42435704,1197035.47141121,2,0,83,0,4
8,110,535.774473566562,0,0,1197037.10675155,1197038.15379994,2,0,91,16,0
8,111,485.734168207273,0,0,1197039.71858425,1197040.76559452,2,0,88,4,4
8,112,630.441763438284,1,0,1197042.400911,1197043.44798402,2,1,61,16,4
8,113,502.088849432766,0,0,1197045.1421695,1197046.18920788,2,0,64,8,4
8,114,627.164975740016,1,0,1197047.83627605,1197048.88333984,2,1,92,8,4
8,115,389.076630119234,0,0,1197050.54219167,1197051.58926354,2,0,94,8,16
8,116,432.552581420168,1,0,1197053.07163887,1197054.1187042,2,1,88,16,0
8,117,524.826953653246,0,0,1197055.68343577,1197056.73055191,2,0,96,0,16
8,118,548.707622103393,0,0,1197058.38941953,1197059.43643442,2,0,62,4,8
8,119,355.959208449349,1,0,1197061.09526046,1197062.14238315,2,1,75,4,0
8,120,543.104515178129,0,0,1197063.66000474,1197064.70707276,2,0,70,4,8
8,121,405.846299603581,1,0,1197066.35416981,1197067.40122936,2,1,76,4,4
8,122,366.807023528963,0,0,1197068.94243597,1197069.98949436,2,0,95,0,0
8,123,419.119368540123,1,0,1197071.41304381,1197072.46011299,2,1,85,4,8
8,124,513.898681849241,1,0,1197074.00144432,1197075.04837761,2,1,70,0,4
8,125,563.232583925128,0,0,1197076.57781095,1197077.62488205,2,0,77,16,16
8,126,623.26917075552,0,0,1197079.38961586,1197080.43668234,2,0,92,8,8
8,127,530.483185080811,1,0,1197082.15435929,1197083.20142808,2,1,61,4,4
8,128,597.158423624933,0,0,1197084.7779202,1197085.82498669,2,0,82,0,8
8,129,439.741342328489,0,0,1197087.47212416,1197088.51914059,2,0,73,4,4
8,130,578.60676990822,1,0,1197090.01327918,1197091.06034797,2,1,83,4,8
8,131,439.95884526521,1,0,1197092.68389541,1197093.73096575,2,1,66,16,8
8,132,579.136861022562,0,0,1197095.20159938,1197096.24864238,2,0,84,4,8
8,133,370.573481544852,1,0,1197097.87220253,1197098.9192694,2,1,86,0,4
8,134,615.551088238135,1,0,1197100.36635305,1197101.41341761,2,1,90,0,16
8,135,448.342140065506,0,0,1197103.16638008,1197104.21345657,2,0,87,4,0
8,136,604.814911959693,0,0,1197105.68406557,1197106.73113782,2,0,80,0,8
8,137,514.4822828006,0,0,1197108.42527941,1197109.47234551,2,0,96,8,0
8,138,467.858505900949,1,0,1197111.09590412,1197112.14297945,2,1,77,8,0
8,139,470.585954142734,0,0,1197113.69593468,1197114.74300656,2,0,78,0,8
8,140,592.889206716791,0,0,1197116.401853,1197117.44896336,2,0,80,8,4
8,141,477.054838323966,0,0,1197119.11952494,1197120.1665995,2,0,79,8,0
8,142,478.314430452883,1,0,1197121.68426767,1197122.73133415,2,1,68,8,4
8,143,399.641498923302,1,0,1197124.35489469,1197125.40195809,2,1,76,0,16
8,144,548.416976351291,1,0,1197127.00198404,1197128.04904859,2,1,72,0,0
8,145,553.789491765201,1,0,1197129.76672054,1197130.81382359,2,1,98,16,16
8,146,441.258473321795,0,0,1197132.39027684,1197133.43734986,2,0,88,0,8
8,147,679.129315773025,0,0,1197134.93149037,1197135.97855685,2,0,61,8,8
8,148,471.690022386611,1,0,1197137.82564343,1197138.87271492,2,1,87,0,16
8,149,393.793171737343,0,0,1197140.37862561,1197141.42571981,2,0,87,8,16
8,150,607.311768922955,0,0,1197142.89629763,1197143.94336873,2,0,73,16,8
8,151,641.751916380599,1,0,1197145.59044614,1197146.63753072,2,1,81,8,16
8,152,493.013779865578,1,0,1197148.34341477,1197149.39052052,2,1,79,4,16
8,153,595.552366459742,0,0,1197151.02581505,1197152.07288384,2,0,96,16,4
8,154,512.497039046139,1,0,1197153.87291125,1197154.91998581,2,1,85,0,4
8,155,585.354750743136,0,0,1197156.53176462,1197157.5788388,2,0,99,8,16
8,156,548.861991381273,1,0,1197159.24945388,1197160.29653076,2,1,62,0,16
8,157,579.886764986441,0,0,1197162.01418076,1197163.06125263,2,0,73,16,0
8,158,597.22579177469,0,0,1197164.77892996,1197165.82599451,2,0,69,16,8
8,159,604.208598379046,1,0,1197167.43778102,1197168.48485097,2,1,97,16,16
8,160,575.499749975279,1,0,1197170.29668628,1197171.34371388,2,1,81,16,4
8,161,483.011724194512,0,0,1197186.29684835,1197187.34392061,3,0,67,16,16
8,162,499.156217090786,1,0,1197188.95570018,1197190.00277667,3,1,93,0,16
8,163,471.316225128248,0,0,1197191.61456626,1197192.66162927,3,0,97,0,4
8,164,459.38089559786,0,0,1197194.16753727,1197195.21460837,3,0,79,4,4
8,165,356.732210377231,1,0,1197196.84992292,1197197.89704599,3,1,79,8,16
8,166,572.85237358883,0,0,1197199.29702197,1197200.34408691,3,0,72,16,16
8,167,528.140312759206,0,0,1197202.07351363,1197203.12058704,3,0,99,0,16
8,168,571.523488266394,0,0,1197204.74413834,1197205.79120983,3,0,62,16,8
8,169,587.419681018218,1,0,1197207.54417422,1197208.59124686,3,1,76,16,8
8,170,793.846142478287,1,0,1197210.21479431,1197211.26190583,3,1,94,16,4
8,171,484.772535739467,1,0,1197213.15601577,1197214.20308379,3,1,94,8,0
8,172,585.944510763511,0,0,1197215.77957246,1197216.82664356,3,0,83,0,0
8,173,452.794983517379,0,0,1197218.4619608,1197219.50903152,3,0,95,4,0
8,174,522.603034274653,0,0,1197221.10904746,1197222.15611779,3,0,72,8,16
8,175,446.086653741077,0,1,1197223.74437856,1197224.79145235,3,1,95,8,8
8,176,553.252470912412,1,0,1197226.356182,1197227.40324271,3,1,91,0,4
8,177,626.477050362155,1,0,1197229.06209531,1197230.10916179,3,1,64,8,4
8,178,412.789455614984,1,0,1197231.77981883,1197232.82684297,3,1,75,4,4
8,179,670.970453182235,0,0,1197234.39156915,1197235.43866604,3,0,66,16,16
8,180,507.926397724077,0,0,1197237.14454355,1197238.1916466,3,0,75,8,8
8,181,649.419568711892,1,0,1197239.7210557,1197240.76812218,3,1,100,16,16
8,182,517.695551970974,0,0,1197242.54461269,1197243.59168418,3,0,87,8,8
8,183,382.905706064776,1,0,1197245.15641228,1197246.20354228,3,1,77,4,8
8,184,619.78488904424,0,0,1197247.6976697,1197248.74469576,3,0,63,8,16
8,185,465.841310331598,1,0,1197250.50942033,1197251.55649951,3,1,94,8,16
8,186,420.034420676529,0,0,1197253.21533556,1197254.26247557,3,0,95,0,8
8,187,474.086789414287,1,0,1197255.72125087,1197256.76831543,3,1,99,0,16
8,188,561.926026362926,0,0,1197258.32128452,1197259.36836062,3,0,82,4,0
8,189,407.684103120118,1,0,1197261.01544266,1197262.06251068,3,1,75,4,8
8,190,600.501039531082,0,0,1197263.5095874,1197264.55665542,3,0,90,0,16
8,191,491.359217558056,1,0,1197266.34493305,1197267.39198491,3,1,76,16,0
8,192,555.749712977558,0,0,1197268.92142942,1197269.96848435,3,0,72,0,8
8,193,494.520517066121,1,0,1197271.72145375,1197272.76852793,3,1,72,4,4
8,194,398.013113765046,0,0,1197274.29795473,1197275.34502929,3,0,73,8,8
8,195,445.923045277596,1,1,1197276.89798452,1197277.94505409,3,0,71,16,4
8,196,609.727783827111,1,0,1197279.59214189,1197280.63923032,3,1,70,4,8
8,197,404.547441285104,0,0,1197282.32158402,1197283.36865897,3,0,73,0,0
8,198,578.921283129603,0,0,1197284.95691743,1197286.00398391,3,0,74,16,4
8,199,488.272985676304,0,0,1197287.61576849,1197288.6628419,3,0,75,0,16
8,200,590.499753830954,0,0,1197290.33345429,1197291.38051615,3,0,79,4,4
8,201,601.474605966359,1,0,1197292.9923015,1197294.03938145,3,1,74,8,4
8,202,601.340639404953,1,0,1197295.82763676,1197296.87470324,3,1,68,16,8
8,203,537.969905883074,0,0,1197298.67472949,1197299.72180522,3,0,97,16,0
8,204,539.469713810831,0,0,1197301.39241606,1197302.43947793,3,0,75,8,0
8,205,729.218896478415,1,0,1197304.13362452,1197305.18069292,3,1,71,16,4
8,206,651.257757330313,0,0,1197307.03954429,1197308.08661116,3,0,79,8,16
8,207,538.14852796495,1,0,1197309.83957786,1197310.88664126,3,1,86,4,4
8,208,587.506297277287,1,0,1197312.61610379,1197313.66314987,3,1,64,4,16
8,209,598.536198958755,1,0,1197315.41612157,1197316.46318613,3,1,94,16,16
8,210,635.113649535924,0,0,1197318.2043815,1197319.25146107,3,0,80,8,4
8,211,784.689076244831,0,0,1197321.0750119,1197322.12207838,3,0,82,16,8
8,212,580.785263795406,0,0,1197323.93387751,1197324.98094438,3,0,89,16,0
8,213,535.727508366108,1,0,1197326.63978582,1197327.6868573,3,1,84,4,16
8,214,531.788972672075,1,0,1197329.25158734,1197330.29866113,3,1,92,4,8
8,215,544.680545339361,1,0,1197331.83985349,1197332.88692075,3,1,81,0,4
8,216,591.691592941061,1,0,1197334.59281789,1197335.6399194,3,1,63,8,0
8,217,460.795627208427,0,0,1197337.35757171,1197338.40464088,3,0,72,0,8
8,218,506.375390104949,1,0,1197339.99289742,1197341.03998661,3,1,76,0,4
8,219,814.915825845674,1,0,1197342.72234686,1197343.76941411,3,1,62,8,0
8,220,582.489871187136,0,0,1197345.69884922,1197346.74591917,3,0,62,8,8
8,221,695.107120554894,1,0,1197348.38123641,1197349.42830944,3,1,93,8,4
8,222,571.148921037093,1,0,1197351.19303516,1197352.24010626,3,1,98,4,8
8,223,545.214101439342,1,0,1197353.94601225,1197354.99307989,3,1,89,4,0
8,224,480.659612687305,1,0,1197356.56960936,1197357.61664235,3,1,79,4,0
8,225,517.040733480826,0,0,1197359.28725974,1197360.33432391,3,0,90,0,8
8,226,635.828522033989,0,0,1197362.04022875,1197363.08731564,3,0,94,16,8
8,227,525.059470208362,0,0,1197364.74614591,1197365.7932147,3,0,66,0,8
8,228,633.268146775663,1,0,1197367.46385134,1197368.51089511,3,1,89,4,16
8,229,765.654296381399,0,0,1197370.28745492,1197371.33445942,3,0,95,0,0
8,230,663.251601159573,1,0,1197373.31096294,1197374.35802866,3,1,83,4,16
8,231,665.790033526719,1,0,1197376.04040622,1197377.08747848,3,1,93,16,4
8,232,454.404120333493,1,0,1197378.87573686,1197379.92281104,3,1,84,4,16
8,233,442.43375910446,1,0,1197381.58164978,1197382.62872127,3,1,86,0,0
8,234,750.924150226638,0,0,1197384.15815423,1197385.20522995,3,0,62,16,0
8,235,710.980216041207,0,0,1197387.06407285,1197388.11115281,3,0,98,16,0
8,236,472.913428442553,1,0,1197389.86414068,1197390.91123757,3,1,95,8,0
8,237,514.45764512755,0,0,1197392.40532188,1197393.45238374,3,0,76,8,4
8,238,614.632571581751,1,0,1197395.15829359,1197396.20536469,3,1,91,0,0
8,239,569.667976349592,1,1,1197397.97009541,1197399.0171746,3,0,90,4,0
8,240,611.41314310953,0,0,1197400.69953946,1197401.74661171,3,0,67,0,4
8,241,577.640517847613,1,0,1197423.04099637,1197424.08806554,4,1,69,4,16
8,242,561.798604438081,1,0,1197425.7586787,1197426.80582525,4,1,94,8,0
8,243,464.221394853666,1,0,1197428.47635603,1197429.52342405,4,1,73,4,0
8,244,624.340516980737,1,0,1197431.08815293,1197432.1352248,4,1,99,4,0
8,245,865.250241244212,1,0,1197433.8881942,1197434.93525875,4,1,100,4,4
8,246,576.554543105885,1,0,1197436.95881913,1197438.00588523,4,1,97,16,0
8,247,581.535552861169,0,0,1197439.75885578,1197440.80592303,4,0,89,8,16
8,248,454.160824883729,1,0,1197442.54711879,1197443.5941922,4,1,75,8,8
8,249,461.223703809083,1,0,1197445.14718207,1197446.19422007,4,1,64,0,16
8,250,714.676610892639,0,0,1197447.82957504,1197448.87667347,4,0,81,4,4
8,251,455.398859456182,0,0,1197450.75899321,1197451.80605392,4,0,84,8,8
8,252,842.065582517534,1,0,1197453.394317,1197454.44138849,4,1,69,16,16
8,253,408.02132897079,0,0,1197456.30023293,1197457.34731481,4,0,97,4,0
8,254,416.197514859959,0,0,1197458.9591348,1197460.00616587,4,0,85,4,16
8,255,490.593915339559,0,0,1197461.42970877,1197462.47677949,4,0,92,0,0
8,256,473.112453240901,1,0,1197464.15915474,1197465.20622238,4,1,85,16,4
8,257,791.003590682521,1,0,1197466.81802005,1197467.86509461,4,1,71,0,16
8,258,438.8370688539,0,0,1197469.71224933,1197470.7592392,4,0,83,0,4
8,259,572.478191461414,0,0,1197472.38278858,1197473.42986776,4,0,83,4,8
8,260,971.524104243144,1,0,1197475.05340635,1197476.10047707,4,1,88,0,8
8,261,515.421972377226,1,0,1197478.10051018,1197479.14757512,4,1,84,16,4
8,262,513.859415892512,0,0,1197480.77112526,1197481.81823332,4,0,66,4,4
8,263,633.473330875859,0,0,1197483.35939796,1197484.40646791,4,0,95,8,8
8,264,428.919319761917,0,0,1197486.07707452,1197487.12418066,4,0,75,16,0
8,265,598.362196469679,0,0,1197488.75946941,1197489.80653435,4,0,94,0,4
8,266,562.204353278503,0,0,1197491.45361177,1197492.5006871,4,0,98,4,16
8,267,541.831834241748,0,0,1197494.07718039,1197495.12424263,4,0,61,8,16
8,268,488.180210115388,1,0,1197496.74780894,1197497.79486619,4,1,61,16,4
8,269,450.403605820611,1,0,1197499.37135716,1197500.41843019,4,1,74,0,4
8,270,424.975009635091,0,0,1197501.94786045,1197502.99492616,4,0,83,4,0
8,271,695.547130890191,1,0,1197504.63024649,1197505.6773172,4,1,78,4,8
8,272,671.44318530336,0,0,1197507.47734538,1197508.52440878,4,0,88,8,4
8,273,511.037651915103,1,0,1197510.2538486,1197511.3009274,4,1,88,16,8
8,274,536.358074517921,1,0,1197512.87740567,1197513.92447715,4,1,70,0,0
8,275,473.139015492052,1,0,1197515.47744316,1197516.52450926,4,1,80,16,8
8,276,618.117623031139,0,0,1197518.17159245,1197519.21866085,4,0,87,8,8
8,277,474.779719021171,0,0,1197520.86574212,1197521.91283324,4,0,100,0,16
8,278,522.914852714166,1,0,1197523.47754287,1197524.52461281,4,1,69,0,0
8,279,413.772260537371,0,0,1197526.11287705,1197527.15994006,4,0,73,8,4
8,280,708.607316482812,0,0,1197528.66589156,1197529.71290723,4,0,97,8,0
8,281,839.139879215509,1,0,1197531.58352762,1197532.63059334,4,1,91,4,16
8,282,556.190493050963,1,0,1197534.48944701,1197535.53651119,4,1,71,0,8
8,283,621.171903330833,0,0,1197537.1365379,1197538.18360746,4,0,99,0,16
8,284,709.388787159696,1,0,1197539.86597848,1197540.91304959,4,1,99,4,8
8,285,624.606140190735,0,0,1197542.67777608,1197543.72484525,4,0,84,16,4
8,286,421.988097485155,1,0,1197545.54839724,1197546.5954745,4,1,76,0,16
8,287,500.883536878973,0,0,1197548.19555704,1197549.24256616,4,0,100,0,4
8,288,575.604074401781,0,0,1197550.84259211,1197551.88965358,4,0,77,8,4
8,289,501.442885259166,0,0,1197553.53673562,1197554.58380749,4,0,66,16,16
8,290,721.562407677993,1,0,1197556.24265355,1197557.28972118,4,1,91,8,8
8,291,483.860178152099,0,0,1197559.1603385,1197560.20741153,4,0,76,16,8
8,292,458.662943448871,0,0,1197561.85449895,1197562.90156312,4,0,80,4,8
8,293,483.283891575411,1,0,1197564.43098569,1197565.47806487,4,1,68,8,0
8,294,489.385522902012,1,0,1197567.14867572,1197568.1957422,4,1,89,4,4
8,295,512.609447818249,0,0,1197569.85458441,1197570.90165667,4,0,96,8,16
8,296,458.814617944881,1,0,1197572.52520835,1197573.57228099,4,1,87,16,8
8,297,519.590714713559,0,0,1197575.06643882,1197576.11348721,4,0,73,4,0
8,298,584.740737918764,0,0,1197577.83115376,1197578.87827914,4,0,81,16,0
8,299,681.529932422563,1,0,1197580.66649133,1197581.71355781,4,1,77,8,0
8,300,551.918581360951,0,0,1197583.53710942,1197584.5842167,4,0,92,0,8
8,301,531.320475041866,1,0,1197586.20773066,1197587.25480176,4,1,95,16,16
8,302,510.032518999651,1,0,1197588.94894566,1197589.99601753,4,1,67,8,16
8,303,522.867117309943,0,0,1197591.69014872,1197592.73722444,4,0,86,16,4
8,304,456.487528979778,0,0,1197594.32548213,1197595.37254746,4,0,86,8,4
8,305,453.282729024068,1,0,1197596.92551616,1197597.97258611,4,1,76,16,16
8,306,631.907309638336,0,0,1197599.54907323,1197600.59618475,4,0,99,8,16
8,307,611.126732081175,0,0,1197602.31381858,1197603.36088699,4,0,93,16,8
8,308,447.149530984461,1,1,1197605.0667926,1197606.11385947,4,0,100,16,0
8,309,450.443256879225,0,0,1197607.58446346,1197608.63153803,4,0,95,0,8
8,310,573.051783256233,1,0,1197610.17273193,1197611.21980996,4,1,89,8,0
8,311,643.91616708599,1,0,1197612.87864755,1197613.92572366,4,1,79,0,0
8,312,755.118299741298,1,0,1197615.73751201,1197616.78458542,4,1,86,4,8
8,313,556.586618069559,1,0,1197618.71402169,1197619.76109664,4,1,83,16,0
8,314,616.397232515737,0,0,1197621.36111142,1197622.4081806,4,0,68,16,16
8,315,626.753837335855,1,0,1197624.18466842,1197625.23180573,4,1,64,0,8
8,316,842.240739846602,1,0,1197626.94941569,1197627.99648526,4,1,89,4,4
8,317,589.498470304534,0,0,1197629.91416482,1197630.96122938,4,0,92,0,4
8,318,520.330994622782,1,0,1197632.60830949,1197633.65537828,4,1,65,4,16
8,319,520.154682453722,1,0,1197635.20834159,1197636.25541462,4,1,67,8,4
8,320,476.107064401731,0,0,1197637.85543209,1197638.90250974,4,0,75,0,0
8,321,711.95339714177,1,0,1197660.27924447,1197661.32630903,5,1,99,0,0
8,322,559.335239231586,0,0,1197663.10280454,1197664.14987988,5,0,68,16,0
8,323,473.492794437334,1,0,1197665.90284466,1197666.94990575,5,1,63,16,0
8,324,682.863822206855,1,0,1197668.53816844,1197669.58524339,5,1,99,8,0
8,325,630.130329867825,1,0,1197671.34999375,1197672.3970356,5,1,81,4,4
8,326,678.665437968448,0,0,1197674.23235623,1197675.27944657,5,0,73,16,4
8,327,449.099743040279,1,0,1197676.99709734,1197678.0441696,5,1,62,8,4
8,328,654.337445041165,0,0,1197679.56187357,1197680.60892735,5,0,83,0,8
8,329,454.267844092101,1,0,1197682.37363574,1197683.420703,5,1,84,0,0
8,330,600.200769957155,1,0,1197685.06780967,1197686.11484843,5,1,76,4,16
8,331,490.389886079356,1,0,1197687.77370565,1197688.82077175,5,1,93,4,8
8,332,538.019950734451,0,0,1197690.31490764,1197691.36197489,5,0,96,16,16
8,333,661.751023260877,0,0,1197692.95027146,1197693.99730484,5,0,77,8,8
8,334,752.580252243206,0,0,1197695.79732339,1197696.84439796,5,0,94,8,16
8,335,514.443401480094,0,0,1197698.75030888,1197699.79737844,5,0,95,16,0
8,336,481.008387403563,1,0,1197701.4680505,1197702.51505577,5,1,89,8,8
8,337,525.84864012897,0,0,1197704.02096069,1197705.06803102,5,0,68,8,16
8,338,416.545519605279,0,0,1197706.70334942,1197707.75041551,5,0,66,4,0
8,339,559.012641897425,1,0,1197709.23278507,1197710.27986541,5,1,87,16,4
8,340,603.62884728238,1,0,1197711.96223605,1197713.00930523,5,1,79,0,16
8,341,639.466788154095,0,0,1197714.65638726,1197715.70345528,5,0,72,4,4
8,342,451.339446008205,1,0,1197717.40936359,1197718.45643122,5,1,87,0,4
8,343,469.418367603794,1,0,1197720.00939069,1197721.05646333,5,1,83,4,4
8,344,423.711952753365,1,0,1197722.53884097,1197723.5858986,5,1,66,16,16
8,345,464.087813394144,1,0,1197725.16239612,1197726.20946606,5,1,78,4,0
8,346,443.057781085372,1,0,1197727.85655195,1197728.90361419,5,1,87,8,0
8,347,462.566832546145,1,0,1197730.4330433,1197731.48011056,5,1,79,16,0
8,348,464.917788980529,1,0,1197732.96249282,1197734.00956161,5,1,80,4,4
8,349,400.586962932721,1,0,1197735.53899534,1197736.58606375,5,1,76,0,0
8,350,614.708793815225,0,0,1197738.05669738,1197739.10374808,5,0,76,4,0
8,351,872.294642031193,0,0,1197740.72727859,1197741.77435277,5,0,62,16,0
8,352,497.363453730941,1,0,1197743.79792278,1197744.84498926,5,1,85,16,8
8,353,763.97894625552,0,0,1197746.48030535,1197747.52736721,5,0,85,8,8
8,354,631.394926691428,0,0,1197749.39799607,1197750.44506332,5,0,79,0,0
8,355,448.197779711336,0,0,1197752.2450838,1197753.29215144,5,0,76,16,4
8,356,484.965016134083,0,0,1197754.83334919,1197755.88042684,5,0,84,16,4
8,357,409.056873759255,1,0,1197757.53925326,1197758.5863336,5,1,67,4,16
8,358,536.319963168353,1,0,1197760.16282573,1197761.20990838,5,1,85,0,4
8,359,567.807075101882,0,0,1197762.78639512,1197763.83346353,5,0,77,4,16
8,360,381.300418637693,0,0,1197765.50407823,1197766.55114432,5,0,87,4,8
8,361,543.961823219433,1,0,1197768.10409147,1197769.15116719,5,1,62,0,4
8,362,663.162675220519,1,0,1197770.76296678,1197771.81002595,5,1,100,4,16
8,363,431.512801675126,1,0,1197773.52769366,1197774.57477284,5,1,78,0,4
8,364,520.053822780028,1,1,1197776.0100686,1197777.05715164,5,0,78,8,4
8,365,484.671675832942,0,0,1197778.6454178,1197779.69247889,5,0,79,16,8
8,366,471.071390202269,0,0,1197781.2689714,1197782.31604212,5,0,78,8,8
8,367,622.607422759756,1,0,1197783.95135051,1197784.99842661,5,1,83,8,4
8,368,583.936169510707,1,0,1197786.71609316,1197787.76321701,5,1,70,0,8
8,369,504.016349092126,1,0,1197789.48083967,1197790.52790461,5,1,69,8,8
8,370,468.538731802255,0,0,1197792.04556585,1197793.09263156,5,0,97,0,8
8,371,516.842093318701,0,0,1197794.71620134,1197795.76326513,5,0,78,8,16
8,372,588.069495279342,0,0,1197797.33975879,1197798.38682451,5,0,80,16,8
8,373,393.337378045544,0,0,1197800.04566787,1197801.09273165,5,0,79,0,8
8,374,495.908301323652,0,0,1197802.53981762,1197803.58688795,5,0,73,16,4
8,375,802.362248999998,1,0,1197805.1516226,1197806.19869062,5,1,81,16,16
8,376,534.640763420612,1,0,1197808.17518067,1197809.22225639,5,1,86,0,0
8,377,564.192291582003,0,0,1197810.7634553,1197811.810516,5,0,62,4,0
8,378,537.879055133089,0,0,1197813.55172484,1197814.59879286,5,0,87,4,0
8,379,496.866084169596,0,0,1197816.1517581,1197817.19882651,5,0,67,8,4
8,380,660.557644208893,0,0,1197818.88120292,1197819.92827441,5,0,70,4,8
8,381,779.006282333285,0,0,1197821.7165301,1197822.7635935,5,0,61,8,0
8,382,759.875647490844,0,0,1197824.75185835,1197825.79892791,5,0,83,16,8
8,383,550.178557867184,1,0,1197827.62248644,1197828.66955754,5,1,71,0,8
8,384,731.545600341633,0,0,1197830.29310999,1197831.34017609,5,0,99,16,16
8,385,719.619509764016,1,0,1197833.19902669,1197834.24609548,5,1,73,16,16
8,386,436.849130550399,1,0,1197836.11673705,1197837.16383702,5,1,67,4,16
8,387,574.953875504434,0,0,1197838.62261348,1197839.66969998,5,0,83,0,16
8,388,356.25062417239,1,0,1197841.38736499,1197842.43442454,5,1,77,8,16
8,389,537.129151169211,1,0,1197843.99914918,1197845.04624069,5,1,98,0,16
8,390,403.420660411939,1,0,1197846.75213552,1197847.79919738,5,1,75,16,8
8,391,529.846844496205,1,0,1197849.38747932,1197850.4345204,5,1,67,4,4
8,392,609.606906305999,0,0,1197852.0816109,1197853.128677,5,0,62,8,16
8,393,431.542058708146,0,0,1197854.92870595,1197855.97577436,5,0,86,0,4
8,394,462.50523859635,0,0,1197857.46991178,1197858.51698289,5,0,97,8,0
8,395,492.138378787786,1,0,1197860.10523095,1197861.15230398,5,1,69,8,4
8,396,426.433241926134,1,0,1197862.66996907,1197863.71704325,5,1,96,4,8
8,397,688.911558827385,0,0,1197865.25823446,1197866.30530825,5,0,72,4,8
8,398,583.34448444657,1,0,1197868.08180338,1197869.12887679,5,1,71,8,0
8,399,633.862141519785,0,0,1197870.76418441,1197871.81126167,5,0,100,0,16
8,400,453.497152309865,0,0,1197873.59951852,1197874.64659231,5,0,76,0,16
8,401,552.861735690385,0,0,1197883.02316844,1197884.07026148,6,0,86,4,16
8,402,612.213091924787,1,0,1197885.78790301,1197886.83497296,6,1,81,4,0
8,403,529.061909299344,0,0,1197888.6350354,1197889.68206954,6,0,67,4,0
8,404,661.574325989932,1,0,1197891.3173864,1197892.36445096,6,1,81,8,4
8,405,444.479441968724,0,0,1197894.07036504,1197895.11743652,6,0,64,16,0
8,406,516.160712577403,1,0,1197896.65862042,1197897.70570076,6,1,99,16,4
8,407,415.219328831881,1,0,1197899.30571554,1197900.35279011,6,1,74,0,4
8,408,522.151090204716,0,0,1197901.90574611,1197902.95282144,6,0,84,16,16
8,409,546.41440953128,1,0,1197904.57636812,1197905.62344115,6,1,91,16,8
8,410,673.404946457595,0,0,1197907.28228643,1197908.32934983,6,0,77,8,4
8,411,619.764486094937,1,0,1197910.1529076,1197911.19998101,6,1,94,8,0
8,412,480.827840743586,0,0,1197912.90587122,1197913.95296965,6,0,77,16,4
8,413,397.611984750256,1,0,1197915.49414585,1197916.54121926,6,1,84,0,0
8,414,572.410438442603,1,0,1197918.1412402,1197919.18830745,6,1,61,16,8
8,415,392.756087007001,0,0,1197920.91775111,1197921.96487265,6,0,67,0,4
8,416,576.402868377045,0,1,1197923.44719139,1197924.49425595,6,1,61,16,8
8,417,598.75601157546,1,0,1197926.25898667,1197927.30606894,6,1,61,4,8
8,418,508.394510019571,0,0,1197929.10608634,1197930.15315397,6,0,75,4,0
8,419,463.840283220634,0,0,1197931.77676609,1197932.82377906,6,0,84,0,0
8,420,582.738940836862,1,0,1197934.31791149,1197935.36498067,6,1,93,4,4
8,421,541.188179515302,1,0,1197937.09442856,1197938.14147849,6,1,92,8,16
8,422,619.985453551635,0,0,1197939.69444642,1197940.7415183,6,0,76,8,8
8,423,503.654870670289,0,0,1197942.3768313,1197943.42390048,6,0,80,4,8
8,424,549.970293883234,1,0,1197945.00041417,1197946.04747564,6,1,73,8,4
8,425,475.038027623668,0,0,1197947.65925021,1197948.70631631,6,0,79,8,8
8,426,519.607653142884,0,0,1197950.34164202,1197951.38871235,6,0,73,0,8
8,427,475.698235677555,0,0,1197953.03579054,1197954.08285394,6,0,96,16,0
8,428,497.107454575598,0,0,1197955.61229383,1197956.65936686,6,0,90,16,4
8,429,629.930919967592,1,0,1197958.21232132,1197959.25939319,6,1,93,16,8
8,430,416.966281831265,1,0,1197960.96529918,1197962.01236066,6,1,84,16,0
8,431,468.451730674133,1,0,1197963.44767682,1197964.4947487,6,1,91,4,16
8,432,548.545553348958,0,0,1197966.15359668,1197967.20066739,6,0,94,8,4
8,433,573.400942841545,0,0,1197968.80068911,1197969.84775713,6,0,62,8,4
8,434,667.829556856304,0,0,1197971.47130457,1197972.51838029,6,0,79,8,0
8,435,504.716978175566,1,0,1197974.3654865,1197975.41252642,6,1,84,8,8
8,436,494.835800258443,0,0,1197977.02433757,1197978.07144639,6,0,69,4,16
8,437,482.296466827393,1,0,1197979.70670243,1197980.75376775,6,1,75,4,0
8,438,593.300344888121,0,0,1197982.41262266,1197983.45968992,6,0,93,16,0
8,439,773.057480808347,0,0,1197985.11853251,1197986.16593468,6,0,81,4,4
8,440,603.363994276151,1,0,1197988.11857524,1197989.16564018,6,1,82,4,4
8,441,671.431636670604,0,0,1197990.7774263,1197991.8244974,6,0,80,8,16
8,442,644.202577881515,0,0,1197993.65981803,1197994.70688182,6,0,91,0,0
8,443,566.840053303167,0,0,1197996.5422652,1197997.58927163,6,0,88,0,16
8,444,666.124949697405,1,0,1197999.21281946,1198000.25989595,6,1,89,0,0
8,445,378.72849451378,0,0,1198002.04820707,1198003.09522351,6,0,96,4,16
8,446,484.712096629664,1,0,1198004.50700701,1198005.5540808,6,1,72,8,16
8,447,482.612904626876,1,0,1198007.14238661,1198008.18940536,6,1,81,0,8
8,448,449.928564252332,1,1,1198009.87177561,1198010.91884633,6,0,91,16,4
8,449,535.599316237494,1,0,1198012.44827775,1198013.49534577,6,1,69,8,16
8,450,488.129010191187,1,0,1198015.1306634,1198016.17773565,6,1,80,0,16
8,451,407.602106453851,0,0,1198017.70716746,1198018.75423741,6,0,68,16,16
8,452,584.191783564165,0,0,1198020.18955511,1198021.23662467,6,0,61,4,0
8,453,599.928602576256,0,0,1198022.9307651,1198023.97787817,6,0,77,16,16
8,454,497.378467349336,0,0,1198025.66020184,1198026.70727679,6,0,94,0,8
8,455,528.189202770591,1,0,1198028.30729812,1198029.35437114,6,1,67,0,16
8,456,474.403997184709,1,0,1198030.91909501,1198031.9661665,6,1,63,0,4
8,457,754.237509332597,1,0,1198033.50736348,1198034.55443073,6,1,98,0,4
8,458,489.362810039893,1,0,1198036.47210568,1198037.51917447,6,1,96,8,8
8,459,550.788335967809,0,0,1198039.18978955,1198040.23685334,6,0,71,0,16
8,460,409.305173903704,1,0,1198041.96628969,1198043.01335463,6,1,66,0,8
8,461,494.537455495447,1,0,1198044.57808889,1198045.62515923,6,1,68,4,4
8,462,737.981377635151,0,0,1198047.30753371,1198048.35463869,6,0,83,16,4
8,463,406.142334453762,1,1,1198050.11932784,1198051.16640317,6,0,70,4,8
8,464,622.894218889996,0,0,1198052.70759823,1198053.75466317,6,0,75,0,8
8,465,654.874465661123,1,0,1198055.47233781,1198056.51940968,6,1,93,16,16
8,466,505.173926940188,1,0,1198058.28413193,1198059.33120034,6,1,73,4,8
8,467,516.08372037299,1,0,1198060.97828777,1198062.02535617,6,1,87,8,8
8,468,501.365507952869,1,0,1198063.64890708,1198064.69597895,6,1,79,4,16
8,469,505.669756559655,0,0,1198066.21364327,1198067.26071745,6,0,89,0,4
8,470,570.801301626489,1,0,1198068.82544672,1198069.87254707,6,1,67,16,0
8,471,489.718128927052,0,0,1198071.51958984,1198072.56665748,6,0,96,8,16
8,472,852.896459167823,1,0,1198074.14315615,1198075.19022148,6,1,62,4,4
8,473,409.897243836895,1,0,1198077.08437454,1198078.13143063,6,1,86,8,0
8,474,399.060207651928,1,0,1198079.60204809,1198080.64911419,6,1,67,0,16
8,475,440.546680707484,1,0,1198082.13156729,1198083.17855793,6,1,89,8,0
8,476,495.333169819787,0,0,1198084.81387594,1198085.86094589,6,0,69,0,0
8,477,642.164979595691,0,0,1198087.46096606,1198088.50803216,6,0,90,16,8
8,478,613.076174166054,0,0,1198090.21399089,1198091.26100618,6,0,69,4,8
8,479,784.251760458574,1,0,1198093.0727953,1198094.11987025,6,1,75,16,16
8,480,505.807187408209,0,0,1198096.01401253,1198097.06108401,6,0,100,8,0
8,481,683.947487268597,1,0,1198111.48478783,1198112.53185662,7,1,98,16,8
8,482,442.060732049868,1,0,1198114.29658966,1198115.34364998,7,1,68,16,4
8,483,632.775011705235,1,0,1198116.93196233,1198117.97898339,7,1,93,0,4
8,484,545.78307364136,0,0,1198119.62606696,1198120.67313075,7,0,79,4,0
8,485,495.293518528342,0,0,1198122.36727619,1198123.41434498,7,0,97,4,0
8,486,453.079854603857,0,0,1198125.00260036,1198126.04966838,7,0,98,8,8
8,487,562.158542918041,0,0,1198127.66145758,1198128.70852522,7,0,72,4,16
8,488,480.589549755678,1,0,1198130.33207459,1198131.37914607,7,1,82,8,16
8,489,383.27334378846,0,0,1198133.0144664,1198134.06153596,7,0,66,0,4
8,490,786.754391621798,1,0,1198135.60277144,1198136.64979981,7,1,62,16,4
8,491,585.069494321942,0,0,1198138.52040981,1198139.56748438,7,0,100,16,0
8,492,545.605991501361,1,0,1198141.34397874,1198142.39104214,7,1,81,0,0
8,493,624.003291130066,0,0,1198144.07341816,1198145.12049311,7,0,88,4,16
8,494,551.394264446571,1,0,1198146.94403894,1198147.9911266,7,1,81,16,0
8,495,531.735078198835,1,0,1198149.61466981,1198150.66173244,7,1,85,8,16
8,496,591.424430022016,0,0,1198152.20293404,1198153.25000284,7,0,81,0,0
8,497,663.240052061155,0,0,1198155.0500237,1198156.09709057,7,0,68,16,8
8,498,545.604836428538,0,0,1198157.87358916,1198158.92067104,7,0,81,8,8
8,499,703.242500778288,1,0,1198160.60303129,1198161.6501047,7,1,79,16,16
8,500,513.718905160204,0,0,1198163.42662023,1198164.47366785,7,0,62,4,4
8,501,625.707513419911,0,0,1198166.02662693,1198167.0737038,7,0,61,0,0
8,502,407.444657525048,0,0,1198168.72081625,1198169.76784501,7,0,63,0,4
8,503,346.230090130121,0,0,1198171.26199091,1198172.309057,7,0,64,4,4
8,504,385.923799825832,0,1,1198173.80319674,1198174.85027054,7,1,63,4,16
8,505,546.703130239621,0,0,1198176.28557708,1198177.33264818,7,0,64,8,4
8,506,584.757291013375,1,0,1198178.89737898,1198179.94445509,7,1,70,4,0
8,507,603.837881237268,0,0,1198181.60331731,1198182.65041844,7,0,82,4,16
8,508,565.345634706318,1,0,1198184.37979858,1198185.42686314,7,1,61,8,4
8,509,641.423159744591,1,0,1198187.03864733,1198188.08571651,7,1,70,8,4
8,510,477.188804652542,1,0,1198189.8386886,1198190.88575162,7,1,77,4,0
8,511,539.269149070606,0,0,1198192.54459883,1198193.5916657,7,0,87,8,0
8,512,370.339810149744,0,0,1198195.14463017,1198196.19170358,7,0,76,0,4
8,513,460.325589869171,1,0,1198197.59172036,1198198.63878915,7,1,78,8,8
8,514,555.913706077263,1,0,1198200.28587003,1198201.33294037,7,1,100,4,8
8,515,402.825895696878,1,0,1198202.98002586,1198204.0270935,7,1,90,16,4
8,516,401.098191039637,0,0,1198205.54475513,1198206.59182969,7,0,97,0,8
8,517,628.595490474254,1,0,1198208.02714278,1198209.07422312,7,1,61,4,4
8,518,585.376308299601,1,0,1198210.81541386,1198211.86248111,7,1,92,8,4
8,519,613.520034356043,0,0,1198213.52132833,1198214.56839211,7,0,81,16,16
8,520,682.909247465432,0,0,1198216.29783308,1198217.34490457,7,0,100,16,16
8,521,438.912521349266,1,0,1198219.09792516,1198220.14494275,7,1,86,16,4
8,522,491.468161577359,0,0,1198221.73319159,1198222.78025692,7,0,65,8,16
8,523,426.385121652856,0,0,1198224.38028017,1198225.42735551,7,0,66,16,4
8,524,764.328875811771,1,0,1198226.98031305,1198228.02738415,7,1,68,8,16
8,525,579.192680306733,0,0,1198229.92155645,1198230.9686291,7,0,97,4,8
8,526,488.629844272509,1,0,1198232.74509035,1198233.79215414,7,1,74,4,0
8,527,373.612748226151,0,0,1198235.46278346,1198236.50989537,7,0,67,0,16
8,528,427.809092216194,1,0,1198238.06280402,1198239.1098732,7,1,66,8,0
8,529,462.074082577601,0,1,1198240.62754021,1198241.674609,7,1,80,8,8
8,530,568.251319928095,0,0,1198243.2511019,1198244.29816877,7,0,93,4,8
8,531,452.411947306246,1,0,1198245.90996258,1198246.95702252,7,1,69,0,0
8,532,759.126128396019,1,0,1198248.59234785,1198249.63941703,7,1,72,16,0
8,533,396.207262063399,0,0,1198251.4041439,1198252.4512073,7,0,98,4,8
8,534,539.703770074993,1,0,1198253.87478832,1198254.92182708,7,1,72,4,8
8,535,610.385297331959,1,0,1198256.56891066,1198257.61597714,7,1,85,4,16
8,536,451.377172255889,0,0,1198259.32188698,1198260.36895269,7,0,85,0,16
8,537,554.815412731841,0,0,1198261.88662086,1198262.93369504,7,0,98,8,4
8,538,449.569010641426,0,0,1198264.53371521,1198265.58078247,7,0,67,0,16
8,539,682.431511115283,1,0,1198267.08668353,1198268.13376541,7,1,73,16,8
8,540,493.843370815739,0,0,1198269.85144351,1198270.89855311,7,0,61,8,0
8,541,574.382978258654,1,0,1198272.42795758,1198273.47499327,7,1,70,0,0
8,542,512.332275742665,1,0,1198275.23974709,1198276.28679086,7,1,83,8,8
8,543,462.797424057499,1,0,1198277.81622959,1198278.86334843,7,1,92,8,0
8,544,429.997210390866,1,0,1198280.47508489,1198281.5221533,7,1,83,0,16
8,545,486.036747461185,0,0,1198283.02805898,1198284.07512508,7,0,73,16,8
8,546,942.327509867027,0,0,1198285.65161336,1198286.698691,7,0,86,4,4
8,547,565.006099175662,1,0,1198288.67518529,1198289.72225216,7,1,76,16,0
8,548,633.895248174667,0,0,1198291.3340375,1198292.38110938,7,0,67,8,16
8,549,517.798721557483,1,0,1198294.0752552,1198295.12231629,7,1,80,16,16
8,550,639.370547840372,0,0,1198296.81645749,1198297.86352975,7,0,61,0,8
8,551,1098.65361195989,0,0,1198299.53414791,1198300.58121786,7,0,94,0,4
8,552,483.250784920529,0,0,1198302.81653063,1198303.86359442,7,0,85,16,8
8,553,435.083314776421,0,0,1198305.40479718,1198306.45185866,7,0,68,0,16
8,554,449.72568959929,0,1,1198307.93423707,1198308.98131317,7,1,99,4,4
8,555,515.251434640959,1,0,1198310.5225013,1198311.56957818,7,1,98,8,0
8,556,506.539383204654,0,0,1198313.22841653,1198314.27549072,7,0,86,0,8
8,557,701.637983322144,1,0,1198315.99315919,1198317.04023376,7,1,85,16,0
8,558,593.040496110916,1,0,1198318.86378844,1198319.91085762,7,1,68,0,8
8,559,554.313038475811,1,0,1198321.68734774,1198322.73443771,7,1,74,0,8
8,560,645.328973652795,0,0,1198324.39326221,1198325.44033254,7,0,91,16,16
8,561,582.900239387527,1,0,1198347.34648945,1198348.39355978,8,1,81,4,8
8,562,481.09769821167,1,1,1198350.05239737,1198351.09946539,8,0,86,8,4
8,563,619.256337638944,0,0,1198352.71125536,1198353.75832762,8,0,71,8,16
8,564,548.365776659921,1,0,1198355.47603805,1198356.52306719,8,1,94,16,0
8,565,496.786782052368,1,0,1198358.20544399,1198359.25251201,8,1,77,16,4
8,566,594.024456338957,0,0,1198360.86429621,1198361.91136692,8,0,75,4,0
8,567,455.390005139634,1,0,1198363.68786128,1198364.73492853,8,1,86,8,4
8,568,555.275440914556,1,0,1198366.2761259,1198367.32319161,8,1,92,4,4
8,569,605.777314398438,0,0,1198369.06439853,1198370.11146847,8,0,83,4,0
8,570,492.021350422874,0,0,1198371.78207085,1198372.82914273,8,0,91,8,4
8,571,529.215893708169,0,0,1198374.38210681,1198375.42917791,8,0,91,8,8
8,572,834.564233198762,1,0,1198377.05272882,1198378.09979222,8,1,80,4,16
8,573,417.385889450088,1,0,1198380.05276347,1198381.09983457,8,1,86,8,16
8,574,428.796902066097,1,0,1198382.72339202,1198383.77045235,8,1,74,16,16
8,575,495.724675012752,1,0,1198385.38224694,1198386.42931573,8,1,100,16,8
8,576,440.508184488863,1,0,1198388.12345077,1198389.17051956,8,1,100,16,4
8,577,527.89316768758,0,0,1198390.64113549,1198391.68825009,8,0,86,4,16
8,578,706.060029799119,0,0,1198393.35881398,1198394.40588315,8,0,92,16,0
8,579,545.522455126047,0,0,1198396.32355694,1198397.37061996,8,0,66,4,4
8,580,487.749053863809,0,1,1198398.93534806,1198399.98241532,8,1,81,16,4
8,581,453.344707842916,0,0,1198401.57067955,1198402.61775835,8,0,76,4,0
8,582,587.992503074929,0,0,1198404.15894148,1198405.20601643,8,0,92,0,0
8,583,411.49098216556,1,0,1198406.84132905,1198407.88839245,8,1,100,4,8
8,584,537.23501553759,1,0,1198409.47665669,1198410.52372625,8,1,93,0,4
8,585,576.360522769392,1,0,1198412.08844858,1198413.13551776,8,1,82,8,8
8,586,646.275207633153,0,0,1198414.78260287,1198415.82968321,8,0,83,0,4
8,587,653.732671402395,1,0,1198417.51211467,1198418.55911378,8,1,99,16,16
8,588,604.560068110004,0,0,1198420.25325345,1198421.30032339,8,0,61,8,4
8,589,757.426910568029,0,0,1198423.0532874,1198424.1003585,8,0,99,16,0
8,590,411.774313310161,1,0,1198425.87685286,1198426.92392935,8,1,96,16,8
8,591,479.286456946284,0,0,1198428.35923281,1198429.40630661,8,0,95,4,16
8,592,472.435691626742,1,0,1198431.06518654,1198432.11222492,8,1,73,8,0
8,593,551.689914427698,0,0,1198433.78283924,1198434.82989879,8,0,61,4,4
8,594,564.021753845736,0,0,1198436.45350744,1198437.50052119,8,0,91,0,8
8,595,648.305491777137,1,0,1198439.11230461,1198440.15937533,8,1,70,0,0
8,596,459.397833794355,0,0,1198442.01822631,1198443.06530203,8,0,80,0,8
8,597,534.59302848205,1,0,1198444.58296712,1198445.63003052,8,1,67,8,0
8,598,508.883410366252,1,0,1198447.35946649,1198448.40653412,8,1,71,4,0
8,599,700.055023655295,0,0,1198450.06538557,1198451.11245436,8,0,71,16,0
8,600,598.441498354077,0,0,1198452.83012322,1198453.8771847,8,0,77,0,0
8,601,488.990167854354,1,0,1198455.66544886,1198456.71252419,8,1,64,4,16
8,602,583.578155608848,1,0,1198458.39493794,1198459.44198017,8,1,89,16,8
8,603,557.096306234598,0,0,1198461.17139804,1198462.21847376,8,0,70,0,8
8,604,753.8833450526,0,0,1198463.86553809,1198464.91263075,8,0,62,16,8
8,605,485.557086067274,1,0,1198466.75970077,1198467.80676764,8,1,68,0,16
8,606,543.342421064153,1,0,1198469.50090846,1198470.5479861,8,1,77,16,0
8,607,502.013397170231,1,0,1198472.23035635,1198473.2774263,8,1,100,4,4
8,608,546.065249945968,1,0,1198474.78331466,1198475.8303977,8,1,71,0,8
8,609,760.749508626759,1,0,1198477.52453967,1198478.57160962,8,1,100,8,0
8,610,687.621554592624,0,0,1198480.37163356,1198481.41870312,8,0,96,4,16
8,611,644.850467098877,0,0,1198483.18342769,1198484.23049648,8,0,81,0,8
8,612,547.765622381121,0,0,1198485.98346511,1198487.03054006,8,0,84,8,16
8,613,471.287353197113,0,0,1198488.71291416,1198489.75998102,8,0,72,8,16
8,614,808.688697172329,1,0,1198491.34825488,1198492.39536294,8,1,80,16,4
8,615,474.862485658377,0,0,1198494.25415772,1198495.30122844,8,0,76,4,8
8,616,500.804234994575,0,0,1198496.94832587,1198497.99537734,8,0,72,8,4
8,617,390.157985500991,0,0,1198499.6306865,1198500.67775721,8,0,75,8,8
8,618,580.643598455936,0,0,1198502.14839508,1198503.19544001,8,0,75,0,4
8,619,435.691552935168,1,0,1198504.85427644,1198505.90135024,8,1,74,0,4
8,620,601.073091616854,0,0,1198507.3837198,1198508.43079552,8,0,80,0,4
8,621,490.609698696062,1,0,1198510.06611699,1198511.11318502,8,1,84,8,0
8,622,701.954421121627,0,0,1198512.78378624,1198513.83085734,8,0,71,8,16
8,623,538.458806462586,1,0,1198515.56028753,1198516.60736518,8,1,82,4,4
8,624,677.598326001316,0,0,1198518.31327309,1198519.3603415,8,0,61,4,0
8,625,832.046973519027,0,0,1198521.08977284,1198522.13684356,8,0,89,16,16
8,626,518.015454523265,0,0,1198523.99570147,1198525.04275795,8,0,73,0,16
8,627,647.04512944445,1,0,1198526.59572242,1198527.64279275,8,1,65,0,16
8,628,493.764838669449,1,0,1198529.43106383,1198530.47812108,8,1,79,8,0
8,629,584.559036418796,0,0,1198532.13696598,1198533.18403208,8,0,82,0,16
8,630,541.82567470707,1,0,1198534.90181104,1198535.94882593,8,1,97,0,0
8,631,559.764085803181,0,0,1198537.65468496,1198538.70178571,8,0,100,8,8
8,632,444.25808917731,1,0,1198540.43119395,1198541.47824426,8,1,99,0,16
8,633,428.280284628272,1,0,1198543.03122067,1198544.07828561,8,1,100,4,8
8,634,764.370451681316,1,0,1198545.53712404,1198546.58419245,8,1,81,16,8
8,635,530.147114302963,1,0,1198548.52540352,1198549.57247154,8,1,77,16,16
8,636,430.648179259151,1,0,1198551.16073231,1198552.20779764,8,1,69,16,16
8,637,700.197459431365,1,0,1198553.84310526,1198554.89018098,8,1,73,16,4
8,638,1081.60022646189,0,0,1198556.60784715,1198557.65491748,8,0,70,0,0
8,639,542.825803393498,1,1,1198559.92557545,1198560.97261306,8,0,72,8,8
8,640,493.647425435483,0,0,1198562.57263708,1198563.61969817,8,0,89,4,8
8,641,489.02173480019,0,0,1198589.91413864,1198590.96126056,9,0,77,0,0
8,642,434.214842738584,1,0,1198592.58475757,1198593.63182367,9,1,78,4,0
8,643,459.04559455812,0,0,1198595.1730245,1198596.22009637,9,0,69,0,16
8,644,489.482147851959,0,0,1198597.85541015,1198598.90247432,9,0,67,8,4
8,645,519.219612469897,0,0,1198600.49073625,1198601.53780388,9,0,62,8,4
8,646,439.700921298936,1,0,1198603.22017606,1198604.26724832,9,1,78,0,8
8,647,684.049886884168,0,0,1198605.84376932,1198606.89081655,9,0,68,4,4
8,648,689.676861278713,0,0,1198608.77322176,1198609.82025398,9,0,83,16,8
8,649,477.734294487163,0,0,1198611.62027446,1198612.66735056,9,0,91,8,16
8,650,462.6203419175,1,0,1198614.23207828,1198615.27914554,9,1,85,0,0
8,651,648.291248129681,0,0,1198616.91446162,1198617.96153234,9,0,86,8,8
8,652,647.851622896269,0,0,1198619.74978918,1198620.79685836,9,0,69,4,16
8,653,681.759754195809,1,0,1198622.59694736,1198623.64395572,9,1,72,0,8
8,654,694.444217951968,1,0,1198625.43222526,1198626.4792852,9,1,70,8,8
8,655,568.00148030743,0,0,1198628.25577263,1198629.30284797,9,0,81,16,0
8,656,366.673442069441,1,0,1198630.95000584,1198631.99699571,9,1,84,4,4
8,657,610.329477814958,1,0,1198633.53819693,1198634.58526803,9,1,70,16,4
8,658,410.483924206346,0,0,1198636.24411101,1198637.29117441,9,0,78,16,4
8,659,399.070601677522,1,0,1198638.83237216,1198639.87946328,9,1,88,8,16
8,660,398.692955030128,0,0,1198641.40887353,1198642.45594194,9,0,87,16,8
8,661,441.924455808476,1,0,1198644.02067736,1198645.06774268,9,1,65,16,8
8,662,455.338035477325,1,0,1198646.59717795,1198647.64424983,9,1,91,0,8
8,663,591.560321161523,0,0,1198649.2678169,1198650.31486452,9,0,90,0,0
8,664,433.857213938609,1,0,1198652.03253762,1198653.07960757,9,1,66,16,16
8,665,443.921633297578,1,0,1198654.69138676,1198655.73846556,9,1,72,4,8
8,666,589.860333828256,1,0,1198657.2326076,1198658.27972375,9,1,66,0,16
8,667,330.21648414433,1,0,1198659.90321537,1198660.95029032,9,1,97,0,16
8,668,491.755342343822,1,0,1198662.38560572,1198663.43268106,9,1,63,4,0
8,669,555.036765057594,1,0,1198664.95034191,1198665.99740031,9,1,96,16,16
8,670,547.876876313239,1,0,1198667.703314,1198668.75048134,9,1,71,4,4
8,671,674.138297094032,0,0,1198670.40921922,1198671.45629764,9,0,91,16,4
8,672,449.386539170519,0,0,1198673.18573206,1198674.23280624,9,0,63,8,8
8,673,529.174702707678,0,0,1198675.77400053,1198676.82106239,9,0,94,4,4
8,674,503.084743628278,1,0,1198678.52696877,1198679.57404142,9,1,66,16,0
8,675,432.197647169232,1,0,1198681.22112037,1198682.26819186,9,1,93,0,8
8,676,463.60237733461,0,0,1198683.90350871,1198684.95058059,9,0,96,4,8
8,677,499.618170084432,0,0,1198686.55059883,1198687.59766531,9,0,98,8,0
8,678,378.313506720588,0,0,1198689.24474042,1198690.29184078,9,0,72,4,8
8,679,575.977486325428,0,0,1198691.77425076,1198692.82127258,9,0,95,4,8
8,680,774.740915047005,1,0,1198694.5154007,1198695.56246833,9,1,73,16,16
8,681,910.092803882435,1,0,1198697.38602225,1198698.43309027,9,1,73,16,4
8,682,565.678625833243,0,0,1198700.42135512,1198701.46842276,9,0,69,8,0
8,683,681.268543936312,1,0,1198703.1625578,1198704.20963429,9,1,70,16,4
8,684,464.894691482186,1,0,1198705.93912569,1198706.98614636,9,1,64,8,16
8,685,485.304166562855,1,0,1198708.60969072,1198709.65675798,9,1,88,4,16
8,686,615.626540733501,1,0,1198711.32736883,1198712.37443954,9,1,67,4,16
8,687,415.91533832252,0,0,1198714.05680594,1198715.10388128,9,0,74,0,8
8,688,435.809350805357,1,0,1198716.70389799,1198717.75097409,9,1,70,4,4
8,689,399.662671610713,0,0,1198719.38628826,1198720.43335859,9,0,76,0,4
8,690,359.62711670436,1,1,1198721.89221049,1198722.9392712,9,0,70,4,16
8,691,565.123127307743,0,1,1198724.4687007,1198725.51577218,9,1,83,16,0
8,692,550.602784613147,1,0,1198727.25697525,1198728.30404327,9,1,86,4,0
8,693,598.59432792291,1,0,1198730.00995157,1198731.05701344,9,1,95,0,4
8,694,647.075541550294,0,0,1198732.77469346,1198733.82175571,9,0,98,8,0
8,695,618.329351767898,0,0,1198735.55119206,1198736.59826046,9,0,64,0,0
8,696,511.104635428637,0,0,1198738.28068268,1198739.32771375,9,0,79,8,16
8,697,680.520179914311,1,0,1198740.96301867,1198742.01009132,9,1,79,8,16
8,698,577.538118232042,1,0,1198743.76310652,1198744.81012219,9,1,73,0,16
8,699,721.992023987696,0,0,1198746.49249513,1198747.53957124,9,0,71,16,8
8,700,744.662760291249,1,0,1198749.26902222,1198750.31606868,9,1,98,16,0
8,701,528.075254522264,0,0,1198752.1043286,1198753.15139701,9,0,81,8,4
8,702,649.702130118385,0,0,1198754.78677315,1198755.83379382,9,0,72,8,8
8,703,448.9499933552,1,0,1198757.55145268,1198758.59852301,9,1,62,8,0
8,704,603.752034949139,1,0,1198760.13972268,1198761.1867884,9,1,98,4,0
8,705,470.469695981592,1,0,1198762.8809296,1198763.92799801,9,1,96,16,16
8,706,448.706698138267,1,0,1198765.55155546,1198766.59866198,9,1,93,8,4
8,707,687.456791521981,0,0,1198768.18687963,1198769.23394727,9,0,100,0,4
8,708,389.610571088269,0,0,1198771.04573832,1198772.09280557,9,0,89,16,0
8,709,543.211534386501,1,0,1198773.68105748,1198774.72812974,9,1,77,16,8
8,710,772.786853136495,0,0,1198776.45756493,1198777.50463218,9,0,91,0,4
8,711,439.774833852425,0,0,1198779.37524796,1198780.42237873,9,0,71,8,4
8,712,497.816552873701,0,1,1198781.97528238,1198783.02236349,9,1,61,16,16
8,713,560.617929091677,0,0,1198784.6576611,1198785.70473297,9,0,81,8,0
8,714,507.892135996372,0,0,1198787.32833816,1198788.37536383,9,0,84,0,0
8,715,564.799375133589,0,0,1198789.97542289,1198791.02244548,9,0,61,4,8
8,716,592.344871722162,1,0,1198792.70481958,1198793.7518876,9,1,81,8,8
8,717,457.178148906678,0,0,1198795.45779899,1198796.50486778,9,0,86,4,0
8,718,531.576089328155,0,0,1198798.08135529,1198799.12842331,9,0,92,0,16
8,719,687.707400880754,1,0,1198800.74021905,1198801.78731017,9,1,88,4,16
8,720,658.621290698648,0,0,1198803.54025724,1198804.58731602,9,0,61,0,4
