sub_id,Trial,RT,Resp,Error,Fix_onset,Disp_onset,block,tid,tloc,fish_setsize,bird_setsize
17,1,546.523840166628,0,0,1632991.37856314,1632992.42564541,1,0,87,0,16
17,2,738.956200657412,0,0,1632994.00213138,1632995.04920979,1,0,82,0,0
17,3,532.600187230855,1,0,1632996.88452426,1632997.93159575,1,1,93,0,4
17,4,560.14221906662,1,0,1632999.56691145,1633000.61397447,1,1,74,16,8
17,5,440.48595847562,1,0,1633002.28459109,1633003.33166104,1,1,75,8,16
17,6,537.218948826194,0,0,1633004.82579885,1633005.87286918,1,0,65,16,4
17,7,602.200359106064,0,0,1633007.53169946,1633008.57879058,1,0,94,4,4
17,8,640.892015304416,0,0,1633010.31997478,1633011.36705281,1,0,97,0,8
17,9,675.090792123228,0,0,1633013.13177429,1633014.17885579,1,0,93,8,4
17,10,791.297417832538,0,0,1633015.94357689,1633016.99065145,1,0,79,16,0
17,11,645.342163974419,0,0,1633018.80243403,1633019.84951591,1,0,70,0,4
17,12,622.725707711652,1,0,1633021.66130311,1633022.70839615,1,1,65,8,8
17,13,587.802434107289,0,0,1633024.42608734,1633025.47311225,1,0,77,16,0
17,14,710.989556740969,0,0,1633027.19076032,1633028.23784528,1,0,93,4,8
17,15,609.068832360208,0,0,1633030.1084599,1633031.155531,1,0,88,4,4
17,16,807.825331808999,0,0,1633032.93202998,1633033.97911841,1,0,72,8,16
17,17,616.482025710866,1,0,1633035.82621846,1633036.87326146,1,1,77,0,0
17,18,591.436465736479,1,0,1633038.56739111,1633039.61446067,1,1,97,16,0
17,19,689.740481553599,1,0,1633041.34390087,1633042.39096581,1,1,94,4,0
17,20,665.538370842114,1,0,1633044.17922805,1633045.22629106,1,1,80,4,4
17,21,582.105011912063,1,0,1633046.96749605,1633048.01456138,1,1,63,0,16
17,22,898.950210539624,0,0,1633049.66164264,1633050.70871721,1,0,98,16,4
17,23,650.199216324836,0,0,1633052.7205128,1633053.76757928,1,0,95,8,0
17,24,559.969371650368,1,0,1633055.56759745,1633056.61465816,1,1,95,16,8
17,25,784.708425868303,1,0,1633058.21477496,1633059.26176021,1,1,87,4,16
17,26,733.191795181483,0,0,1633061.23825488,1633062.28533599,1,0,80,16,4
17,27,750.92348200269,1,0,1633064.13247415,1633065.17947481,1,1,70,8,0
17,28,659.236559877172,1,0,1633067.05008519,1633068.0971509,1,1,75,8,16
17,29,486.377154709771,0,0,1633069.95600689,1633071.00308415,1,0,76,0,4
17,30,723.603572463617,0,0,1633072.52075579,1633073.56781919,1,0,80,16,4
17,31,788.298186846077,1,0,1633075.48555265,1633076.53257062,1,1,95,4,8
17,32,609.048429643735,1,0,1633078.54435774,1633079.59142692,1,1,61,0,16
17,33,823.679563822225,0,0,1633081.22674108,1633082.27380987,1,0,93,4,0
17,34,696.692876517773,1,0,1633084.23859942,1633085.2856174,1,1,62,8,8
17,35,761.671146843582,0,0,1633087.07386038,1633088.12074984,1,0,97,0,16
17,36,685.643221484497,0,0,1633089.92097044,1633090.96783147,1,0,83,4,16
17,37,731.999956071377,0,0,1633092.75632264,1633093.80338681,1,0,89,8,4
17,38,715.806573163718,1,0,1633095.60339536,1633096.65049033,1,1,68,0,16
17,39,759.768730029464,0,0,1633098.55636429,1633099.60346195,1,0,70,0,0
17,40,755.856371717528,0,0,1633101.41521566,1633102.46228907,1,0,97,8,0
17,41,502.953188493848,1,0,1633104.27408281,1633105.3211516,1,1,88,4,16
17,42,734.163051703945,1,0,1633106.98000459,1633108.027078,1,1,83,16,4
17,43,796.62720230408,0,0,1633109.86238824,1633110.90946242,1,0,99,16,16
17,44,471.180820837617,1,0,1633112.89772842,1633113.94479029,1,1,94,0,0
17,45,595.87006107904,0,0,1633115.47423018,1633116.52130397,1,0,99,16,16
17,46,603.188168723136,0,0,1633118.15660813,1633119.20367846,1,0,82,8,4
17,47,688.736888580024,1,0,1633120.88613032,1633121.93312751,1,1,89,8,16
17,48,654.213589383289,1,0,1633123.80374444,1633124.85080938,1,1,64,16,0
17,49,596.792042488232,0,0,1633126.53319888,1633127.58026228,1,0,82,16,8
17,50,407.370461849496,1,0,1633129.21556836,1633130.26263638,1,1,99,4,8
17,51,525.481489021331,0,0,1633131.82737604,1633132.87445022,1,0,77,16,16
17,52,775.144070619717,0,0,1633134.46270175,1633135.50977016,1,0,71,0,4
17,53,445.81381813623,0,0,1633137.30983183,1633138.35687098,1,0,81,0,8
17,54,812.268166104332,0,0,1633139.93334848,1633140.98042458,1,0,70,8,8
17,55,633.807193953544,0,0,1633142.90986239,1633143.95693465,1,0,61,0,8
17,56,670.584824169055,1,0,1633145.7569636,1633146.80402123,1,1,100,8,0
17,57,578.299287939444,1,0,1633148.48640649,1633149.5334749,1,1,96,8,4
17,58,429.17811521329,0,0,1633151.18055424,1633152.22764844,1,0,85,16,16
17,59,612.950008828193,1,0,1633153.8276432,1633154.8747809,1,1,74,8,8
17,60,544.79921516031,1,0,1633156.66297038,1633157.71004379,1,1,85,0,4
17,61,659.256962826476,1,0,1633159.34535872,1633160.39243329,1,1,81,4,8
17,62,418.575905263424,1,0,1633162.16892457,1633163.21599451,1,1,93,4,4
17,63,473.313119495288,1,0,1633164.66307277,1633165.71013387,1,1,91,0,0
17,64,483.486867742613,0,0,1633167.21603493,1633168.31016674,1,0,91,8,8
17,65,419.647636590526,1,0,1633169.93378002,1633170.98079684,1,1,82,4,0
17,66,540.615074336529,0,0,1633172.58082971,1633173.62787887,1,0,84,16,8
17,67,415.815350366756,1,0,1633175.19261237,1633176.23968809,1,1,93,4,0
17,68,420.842797728255,0,0,1633177.85127311,1633178.91010506,1,0,64,0,8
17,69,652.934749145061,1,0,1633180.35738143,1633181.40445254,1,1,71,8,16
17,70,855.634788284078,1,0,1633183.14565945,1633184.19272555,1,1,100,4,16
17,71,580.424133688211,1,0,1633186.16921406,1633187.21609936,1,1,66,4,8
17,72,648.491144645959,1,0,1633188.94573998,1633189.99280031,1,1,87,16,8
17,73,548.456344287843,1,0,1633191.79281463,1633192.83987957,1,1,67,16,0
17,74,586.530138039961,0,0,1633194.54578325,1633195.59285975,1,0,95,16,16
17,75,341.455521062016,1,0,1633197.20464971,1633198.25174468,1,1,89,8,4
17,76,416.369694052264,0,1,1633199.75762958,1633200.80478037,1,1,93,0,8
17,77,654.568908503279,1,0,1633202.39294528,1633203.46354481,1,1,88,4,16
17,78,950.113262515515,0,0,1633205.22808851,1633206.27515434,1,0,83,4,0
17,79,717.005726648495,0,0,1633208.29899133,1633209.34597081,1,0,61,4,4
17,80,691.611391725019,0,0,1633211.1224617,1633212.16953627,1,0,68,8,0
17,81,427.138976985589,0,0,1633221.61673656,1633222.6637811,2,0,63,4,0
17,82,730.000083800405,0,0,1633224.26380974,1633225.31087315,2,0,98,16,4
17,83,641.17457671091,1,0,1633227.21681063,1633228.26385709,2,1,67,4,4
17,84,649.885858176276,0,0,1633230.00506593,1633231.0521405,2,0,100,0,4
17,85,508.003106573597,0,0,1633232.8639993,1633233.91098879,2,0,98,8,8
17,86,649.07590043731,0,0,1633235.56982715,1633236.61690749,2,0,92,16,16
17,87,660.961185116321,1,0,1633238.36999045,1633239.41694567,2,1,68,16,8
17,88,674.513941863552,0,0,1633241.24049343,1633242.28736376,2,0,77,8,0
17,89,718.68531126529,0,0,1633244.11111074,1633245.15819147,2,0,99,4,8
17,90,614.870579214767,1,0,1633246.92272649,1633247.96998983,2,1,70,0,16
17,91,363.719353219494,0,0,1633249.78176394,1633250.82886661,2,0,85,8,8
17,92,512.394741177559,1,0,1633252.41690848,1633253.46416922,2,1,77,0,8
17,93,641.183045692742,1,0,1633255.00538969,1633256.05244423,2,1,94,4,16
17,94,518.071760656312,0,0,1633257.75834484,1633258.80541786,2,0,79,8,0
17,95,436.667915666476,0,0,1633260.33484851,1633261.38191769,2,0,95,0,16
17,96,322.381860343739,1,0,1633262.97018116,1633264.01724648,2,1,69,4,8
17,97,413.622997701168,1,0,1633265.48788436,1633266.53492543,2,1,68,8,4
17,98,429.324400378391,0,0,1633267.98200677,1633269.02907441,2,0,79,0,8
17,99,617.178805172443,0,0,1633270.57027447,1633271.61733672,2,0,69,16,16
17,100,555.877236649394,1,0,1633273.25265588,1633274.29972545,2,1,98,4,4
17,101,673.887404147536,1,0,1633275.91157316,1633276.95858421,2,1,82,8,16
17,102,555.369088193402,0,0,1633278.74684567,1633279.7939187,2,0,68,4,8
17,103,422.326965024695,0,0,1633281.53511175,1633282.58217554,2,0,86,8,4
17,104,450.553457485512,1,0,1633284.11161196,1633285.15867806,2,1,94,16,8
17,105,563.345864182338,1,0,1633286.65282242,1633287.69988852,2,1,78,8,4
17,106,557.502926792949,1,0,1633289.46463733,1633290.51170381,2,1,72,8,0
17,107,358.407662017271,1,0,1633292.11171244,1633293.15878123,2,1,64,8,16
17,108,545.417847344652,1,0,1633294.61762236,1633295.66469769,2,1,94,8,8
17,109,346.523532411084,1,1,1633297.32354221,1633298.37061023,2,0,96,16,4
17,110,625.827722949907,0,0,1633299.82945059,1633300.87652362,2,0,90,0,8
17,111,562.527437228709,1,0,1633302.62949109,1633303.67654525,2,1,93,16,0
17,112,680.455608293414,1,0,1633305.42952273,1633306.47658845,2,1,97,16,8
17,113,483.557700412348,1,0,1633308.33543982,1633309.38251515,2,1,63,0,8
17,114,554.792416747659,1,1,1633311.05312677,1633312.10024253,2,0,70,4,0
17,115,624.673609854653,0,0,1633313.84137899,1633314.88846203,2,0,96,0,4
17,116,688.155982177705,1,0,1633316.72379767,1633317.7708784,2,1,88,8,0
17,117,469.478523358703,0,0,1633319.53557909,1633320.58265405,2,0,89,4,8
17,118,509.024023078382,1,0,1633322.17093252,1633323.21797321,2,1,65,4,16
17,119,939.396903850138,1,0,1633324.88859291,1633325.93566171,2,1,91,8,8
17,120,779.653118690476,0,0,1633328.00627009,1633329.05334889,2,0,80,4,0
17,121,1086.08011878096,0,0,1633330.88868261,1633331.93574986,2,0,92,16,4
17,122,485.59414409101,0,0,1633334.11226986,1633335.15930208,2,0,77,0,16
17,123,509.123343043029,0,0,1633336.74755246,1633337.79462702,2,0,98,0,0
17,124,501.601590774953,1,0,1633339.47700805,1633340.52407146,2,1,87,4,8
17,125,690.154314506799,1,0,1633342.05350557,1633343.10057975,2,1,61,0,4
17,126,591.645114589483,1,0,1633344.93590346,1633345.98297033,2,1,73,8,4
17,127,439.890038920566,1,0,1633347.70063688,1633348.74771222,2,1,64,0,0
17,128,529.445047024637,1,0,1633350.37125504,1633351.41832576,2,1,84,4,0
17,129,765.938884345815,0,0,1633353.05363761,1633354.10071372,2,0,100,4,4
17,130,733.447024365887,0,0,1633355.98313124,1633357.03016192,2,0,98,16,16
17,131,913.463238859549,0,0,1633358.83018048,1633359.87725235,2,0,62,4,16
17,132,830.538413254544,1,0,1633361.93610634,1633362.9831732,2,1,87,4,16
17,133,663.217056309804,1,0,1633364.87731856,1633365.92439274,2,1,79,4,16
17,134,556.932414649054,1,0,1633367.72441399,1633368.77148125,2,1,86,16,0
17,135,671.497566625476,0,0,1633370.50091451,1633371.54799062,2,0,100,0,4
17,136,853.865122655407,0,0,1633373.26565563,1633374.31274213,2,0,74,16,0
17,137,577.423501526937,1,0,1633376.30099004,1633377.34805268,2,1,85,16,4
17,138,700.817733071744,1,0,1633379.03043409,1633380.07749595,2,1,93,0,16
17,139,683.626916492358,0,0,1633381.81870864,1633382.86577127,2,0,97,8,0
17,140,856.353510404006,1,0,1633384.65402619,1633385.70110769,2,1,99,16,0
17,141,668.320098891854,0,0,1633387.65406854,1633388.70114618,2,0,82,0,8
17,142,1095.78729444183,0,0,1633390.43056482,1633391.47764362,2,0,75,8,8
17,143,674.288918497041,0,0,1633393.76002981,1633394.80709552,2,0,81,0,0
17,144,476.376253878698,1,0,1633396.66594574,1633397.71301645,2,1,77,16,4
17,145,417.234701337293,1,0,1633399.21892368,1633400.26598708,2,1,66,8,16
17,146,561.98579701595,0,0,1633401.86601572,1633402.91308567,2,0,88,8,16
17,147,477.785981027409,0,0,1633404.60722341,1633405.65431183,2,0,72,0,0
17,148,589.291078038514,0,0,1633407.3366613,1633408.38373317,2,0,69,0,4
17,149,570.802173111588,0,0,1633410.00729101,1633411.05435787,2,0,68,8,16
17,150,576.931136660278,0,0,1633412.72500876,1633413.77205291,2,0,75,16,0
17,151,745.295352768153,1,0,1633415.4426526,1633416.48972062,2,1,92,16,8
17,152,569.685401162133,1,0,1633418.41918576,1633419.46629036,2,1,71,8,4
17,153,454.994367202744,0,0,1633421.0780118,1633422.12514296,2,0,82,4,4
17,154,601.294545922428,0,0,1633423.74863381,1633424.79569452,2,0,92,16,16
17,155,499.855792615563,1,0,1633426.47810943,1633427.52515936,2,1,81,0,0
17,156,463.721817126498,1,0,1633429.07821121,1633430.12519223,2,1,83,4,4
17,157,678.888047114015,1,0,1633431.67817826,1633432.72521279,2,1,96,16,8
17,158,589.382313890383,1,0,1633434.5605596,1633435.60760798,2,1,81,4,0
17,159,402.188117383048,1,0,1633437.26644326,1633438.31352014,2,1,91,0,16
17,160,479.132574284449,0,0,1633439.85471712,1633440.90178437,2,0,81,16,16
17,161,1017.6406041719,1,0,1633445.98420259,1633447.03127677,3,1,81,16,8
17,162,796.247245743871,1,0,1633449.07836096,1633450.12543668,3,1,79,16,4
17,163,631.947447312996,1,0,1633452.01962554,1633453.06665391,3,1,79,4,0
17,164,459.029528079554,1,0,1633454.86667439,1633455.91380016,3,1,73,16,0
17,165,647.352430270985,0,0,1633457.39618127,1633458.44317884,3,0,90,0,16
17,166,556.776890531182,0,0,1633460.1608912,1633461.20792419,3,0,78,8,16
17,167,657.628963002935,0,0,1633462.80794205,1633463.85501469,3,0,71,8,4
17,168,455.550250830129,1,0,1633465.65503479,1633466.70211167,3,1,83,0,4
17,169,663.796807639301,1,0,1633468.21978522,1633469.26684439,3,1,79,8,8
17,170,686.715458286926,1,0,1633471.06687334,1633472.11393944,3,1,82,8,0
17,171,465.289763174951,0,0,1633473.94924736,1633474.99632001,3,0,75,8,0
17,172,594.125802861527,1,0,1633476.50223532,1633477.54930372,3,1,69,8,8
17,173,448.160155210644,0,0,1633479.16109138,1633480.20815748,3,0,75,0,0
17,174,567.570810904726,1,0,1633481.67876109,1633482.72583604,3,1,93,4,16
17,175,659.198063891381,1,0,1633484.36115059,1633485.40821899,3,1,67,16,16
17,176,441.588871646672,0,0,1633487.13766227,1633488.1847353,3,0,64,16,8
17,177,452.758513856679,1,0,1633489.70239769,1633490.74947341,3,1,95,0,16
17,178,439.175551524386,0,0,1633492.31425079,1633493.36126646,3,0,65,4,4
17,179,636.979272123426,0,0,1633495.00840624,1633496.05541729,3,0,70,4,4
17,180,645.81181644462,0,0,1633497.80842133,1633498.85554286,3,0,96,0,4
17,181,739.207965089008,1,0,1633500.53782496,1633501.5848949,3,1,90,4,0
17,182,619.179832283407,0,0,1633503.49079697,1633504.53787308,3,0,100,16,0
17,183,718.997514573857,0,0,1633506.17318878,1633507.2202568,3,0,91,8,8
17,184,511.269500479102,1,0,1633508.99675155,1633510.0438238,3,1,98,16,4
17,185,351.573835127056,0,0,1633511.7615046,1633512.80856492,3,0,85,8,8
17,186,668.309319997206,0,0,1633514.2085817,1633515.2556682,3,0,95,4,0
17,187,569.972582161427,1,0,1633517.09096689,1633518.13804839,3,1,83,16,4
17,188,427.078538341448,1,0,1633519.74982604,1633520.79688867,3,1,85,0,4
17,189,768.980075838044,0,0,1633522.24396963,1633523.29104612,3,0,99,0,4
17,190,584.098339779302,1,0,1633525.19695203,1633526.24402699,3,1,88,8,8
17,191,674.488328397274,0,0,1633527.92639916,1633528.9734745,3,0,82,16,0
17,192,504.426819272339,0,0,1633530.82055838,1633531.86762371,3,0,62,16,8
17,193,530.478667235002,0,0,1633533.57352662,1633534.62059849,3,0,69,0,16
17,194,638.355892384425,1,0,1633536.23238654,1633537.27946264,3,1,87,4,0
17,195,549.906107131392,1,0,1633539.05599742,1633540.10302387,3,1,87,4,4
17,196,615.943080279976,0,0,1633541.71480614,1633542.76188532,3,0,79,8,4
17,197,499.907377408817,1,0,1633544.57366444,1633545.62073669,3,1,70,16,4
17,198,475.474290316924,0,0,1633547.30311156,1633548.35018189,3,0,78,0,0
17,199,753.495791228488,1,0,1633549.90314521,1633550.95021054,3,1,82,4,4
17,200,433.398827211931,1,0,1633552.90317909,1633553.95025134,3,1,77,4,0
17,201,646.206401288509,0,0,1633555.55026651,1633556.597343,3,0,69,0,4
17,202,719.15034414269,0,0,1633558.35030778,1633559.39737618,3,0,71,0,8
17,203,508.288747631013,0,0,1633561.30328249,1633562.35035474,3,0,66,16,16
17,204,702.577774645761,1,0,1633563.92684533,1633564.97391412,3,1,73,4,16
17,205,435.783275170252,0,0,1633566.69158491,1633567.7386587,3,0,64,0,8
17,206,539.403602248058,1,0,1633569.3151543,1633570.36222078,3,1,86,8,16
17,207,449.281931389123,1,0,1633571.91518063,1633572.96224634,3,1,65,4,16
17,208,444.50918561779,1,0,1633574.52697753,1633575.57405209,3,1,87,0,0
17,209,351.898742141202,0,0,1633577.10348813,1633578.1505985,3,0,67,16,16
17,210,435.366747668013,0,0,1633579.62118671,1633580.66825011,3,0,84,8,16
17,211,481.053529540077,1,0,1633582.3153156,1633583.36237938,3,1,75,16,8
17,212,390.160012058914,0,1,1633585.02128742,1633586.068295,3,1,62,4,4
17,213,715.265703154728,0,0,1633587.53890631,1633588.58597318,3,0,81,16,4
17,214,813.496576622128,0,0,1633590.39776807,1633591.4448361,3,0,97,16,0
17,215,505.927012069151,1,0,1633593.37427622,1633594.42133923,3,1,68,4,8
17,216,382.385340286419,1,0,1633596.09195085,1633597.13900964,3,1,67,0,0
17,217,567.738268757239,1,0,1633598.57439471,1633599.62140691,3,1,63,16,16
17,218,502.845399547368,1,0,1633601.37436938,1633602.42148744,3,1,84,8,16
17,219,435.898378724232,0,0,1633603.98616435,1633605.03324161,3,0,75,16,0
17,220,373.394577298313,0,0,1633606.56267303,1633607.60973836,3,0,84,8,0
17,221,582.098082639277,1,0,1633609.10392429,1633610.15096036,3,1,61,8,4
17,222,898.485177662224,1,0,1633611.92743971,1633612.97451659,3,1,100,16,16
17,223,570.304418681189,0,0,1633615.06866148,1633616.11572874,3,0,74,4,8
17,224,521.193793741986,1,0,1633617.86868466,1633618.91575884,3,1,63,0,8
17,225,584.129521623254,1,0,1633620.60990428,1633621.65697615,3,1,96,0,16
17,226,872.524950420484,0,0,1633623.43347282,1633624.48054238,3,0,90,8,16
17,227,618.508075131103,0,0,1633626.49235029,1633627.53940176,3,0,82,8,0
17,228,823.550986824557,0,0,1633629.19824743,1633630.24531391,3,0,90,4,8
17,229,677.113377023488,0,0,1633632.17475672,1633633.22182629,3,0,81,4,8
17,230,487.858099630103,1,0,1633635.06890632,1633636.11597742,3,1,67,0,8
17,231,680.118767311797,0,0,1633637.63364443,1633638.68071438,3,0,76,8,4
17,232,573.11001396738,0,0,1633640.53957114,1633641.58663108,3,0,66,0,0
17,233,632.646536454558,0,0,1633643.26900402,1633644.31608359,3,0,90,8,4
17,234,525.306716794148,0,0,1633646.05727395,1633647.10435314,3,0,70,4,16
17,235,619.715697830543,0,0,1633648.72790097,1633649.77498555,3,0,82,0,8
17,236,710.118005052209,1,0,1633651.4926417,1633652.5397078,3,1,83,4,16
17,237,458.394727436826,1,0,1633654.26914299,1633655.31622218,3,1,73,8,0
17,238,682.137502590194,1,0,1633656.9044687,1633657.95154366,3,1,70,0,16
17,239,844.004732556641,0,0,1633659.64568755,1633660.69279022,3,0,89,16,8
17,240,501.295546768233,1,0,1633662.7163148,1633663.76338244,3,1,78,4,8
17,241,434.656494762748,0,0,1633670.44581351,1633671.49288923,4,0,86,8,0
17,242,445.572832599282,0,0,1633672.99879607,1633674.04585794,4,0,64,0,0
17,243,364.513527834788,1,0,1633675.64592007,1633676.69295537,4,1,77,8,16
17,244,673.355388222262,1,0,1633678.23414388,1633679.28121652,4,1,94,4,8
17,245,449.763517593965,0,0,1633681.01070792,1633682.05772436,4,0,74,16,16
17,246,359.995625913143,0,0,1633683.63421841,1633684.68128489,4,0,73,4,16
17,247,443.60298733227,1,0,1633686.15189235,1633687.19896345,4,1,64,4,8
17,248,371.779666049406,0,1,1633688.71664125,1633689.76371889,4,1,72,8,8
17,249,386.166041949764,0,0,1633691.24607498,1633692.29314415,4,0,63,4,4
17,250,411.62158572115,1,1,1633693.77553412,1633694.82258597,4,0,87,4,4
17,251,624.078845372424,1,0,1633696.29318919,1633697.34026954,4,1,80,8,8
17,252,733.7076428812,0,0,1633699.12852445,1633700.17559748,4,0,79,0,4
17,253,553.954356582835,1,0,1633701.95209069,1633702.99915794,4,1,74,4,8
17,254,497.40898096934,1,0,1633704.62270654,1633705.66977956,4,1,61,0,8
17,255,526.675253175199,0,0,1633707.34042891,1633708.3874542,4,0,94,0,16
17,256,880.072880070657,0,0,1633710.10513115,1633711.1521984,4,0,91,8,0
17,257,616.132866125554,1,1,1633713.16399784,1633714.21106817,4,0,80,4,4
17,258,715.523626888171,0,0,1633715.84637425,1633716.89345151,4,0,94,16,8
17,259,596.722364425659,1,0,1633718.64641667,1633719.69348893,4,1,80,4,0
17,260,669.472672045231,1,0,1633721.44645909,1633722.49353404,4,1,88,0,4
17,261,689.034078037366,0,0,1633724.28177818,1633725.32884813,4,0,68,16,4
17,262,443.030165275559,1,0,1633727.08181791,1633728.1288867,4,1,74,4,0
17,263,670.531314564869,1,0,1633729.61125857,1633730.65832736,4,1,81,8,4
17,264,464.84936773777,0,0,1633732.47012226,1633733.51717642,4,0,62,4,0
17,265,676.466257544234,1,0,1633735.05837687,1633736.10544989,4,1,86,16,16
17,266,483.300546649843,1,0,1633737.90547499,1633738.95253493,4,1,87,16,0
17,267,488.28271147795,0,0,1633740.59962659,1633741.64670154,4,0,67,0,0
17,268,600.108481012285,0,0,1633743.19969065,1633744.24673172,4,0,68,8,4
17,269,667.907805647701,0,0,1633746.0349928,1633747.0820562,4,0,64,0,0
17,270,719.427515985444,0,0,1633748.92914162,1633749.97621234,4,0,94,8,16
17,271,467.318892246112,1,0,1633751.82329353,1633752.87038349,4,1,74,0,8
17,272,660.890352213755,1,0,1633754.3527338,1633755.39986342,4,1,79,16,0
17,273,579.297491582111,0,0,1633757.17630196,1633758.22337498,4,0,98,8,16
17,274,486.474934732541,0,0,1633759.92928213,1633760.97633861,4,0,88,0,8
17,275,785.782082006335,0,0,1633762.55284729,1633763.59990877,4,0,61,4,16
17,276,641.66155224666,1,0,1633765.45876437,1633766.5058705,4,1,82,16,0
17,277,718.883951194584,1,0,1633768.1646823,1633769.21174493,4,1,69,0,4
17,278,478.222141740844,0,0,1633770.98823775,1633772.03531463,4,0,94,8,8
17,279,705.522726057097,1,0,1633773.65885938,1633774.70593009,4,1,99,16,4
17,280,429.350192658603,0,0,1633776.54124264,1633777.58832029,4,0,63,16,16
17,281,423.063395312056,1,0,1633779.08245771,1633780.12952959,4,1,65,8,8
17,282,626.25002511777,0,0,1633781.69425192,1633782.74132456,4,0,63,16,4
17,283,645.580839598551,1,0,1633784.37665027,1633785.42371367,4,1,81,8,16
17,284,437.208015704528,1,0,1633787.24726066,1633788.29433561,4,1,74,0,16
17,285,513.895319076255,1,0,1633789.78852077,1633790.8355376,4,1,69,8,8
17,286,552.510753041133,0,0,1633792.47085715,1633793.51793364,4,0,96,0,0
17,287,568.312630522996,1,0,1633795.27089033,1633796.31796836,4,1,83,8,4
17,288,468.92648935318,1,0,1633797.90621797,1633798.95328791,4,1,93,4,8
17,289,490.412700455636,0,0,1633800.52986011,1633801.57684922,4,0,83,0,4
17,290,608.043296495453,0,0,1633803.11804928,1633804.16512,4,0,96,4,4
17,291,595.93126969412,1,0,1633805.91808939,1633806.96515049,4,1,73,4,16
17,292,656.960285967216,1,0,1633808.67105764,1633809.71812681,4,1,71,16,16
17,293,605.053689796478,1,0,1633811.42407669,1633812.47110583,4,1,77,8,16
17,294,566.732365870848,1,0,1633814.10642269,1633815.1534961,4,1,88,0,16
17,295,757.518248166889,0,0,1633816.80056736,1633817.84763846,4,0,70,8,0
17,296,540.464939549565,0,0,1633819.64766548,1633820.69473389,4,0,78,4,16
17,297,909.465804230422,1,0,1633822.35360997,1633823.40068069,4,1,92,16,16
17,298,631.454697344452,1,0,1633825.44773832,1633826.49480788,4,1,66,16,8
17,299,561.454165959731,0,0,1633828.31836179,1633829.3654302,4,0,71,8,4
17,300,665.345120476559,0,0,1633831.10669062,1633832.1537213,4,0,97,16,0
17,301,417.508023558185,1,0,1633834.02431398,1633835.07138624,4,1,74,4,16
17,302,583.430047612637,1,0,1633836.51846219,1633837.56553368,4,1,93,4,0
17,303,582.426454406232,0,0,1633839.16555693,1633840.21262341,4,0,85,16,8
17,304,489.858741639182,0,0,1633841.84794258,1633842.89500906,4,0,96,16,0
17,305,796.092106495053,0,0,1633844.50679325,1633845.55387167,4,0,80,0,0
17,306,457.972810138017,1,0,1633847.45977412,1633848.50684792,4,1,77,0,8
17,307,461.179920006543,0,0,1633850.13039883,1633851.17746723,4,0,63,8,0
17,308,471.687044482678,1,0,1633852.69513117,1633853.74220342,4,1,64,0,16
17,309,468.561931280419,1,0,1633855.34222629,1633856.38929893,4,1,82,0,16
17,310,632.228468777612,1,0,1633857.97755277,1633859.02462618,4,1,69,4,0
17,311,708.534660516307,0,0,1633860.65993611,1633861.70700375,4,0,80,4,4
17,312,521.90212206915,0,0,1633863.62468408,1633864.67177443,4,0,95,0,4
17,313,489.904936868697,1,0,1633866.22474314,1633867.27178729,4,1,86,16,4
17,314,500.697702402249,1,0,1633868.81302161,1633869.86005229,4,1,95,16,4
17,315,544.381532585248,1,0,1633871.55419504,1633872.60126306,4,1,65,8,4
17,316,502.621352439746,0,0,1633874.31896195,1633875.36601765,4,0,82,0,8
17,317,521.632264368236,1,0,1633877.02484792,1633878.07191902,4,1,83,4,8
17,318,664.441232103854,0,0,1633879.76605484,1633880.81312478,4,0,86,16,8
17,319,460.394599474967,0,0,1633882.57785666,1633883.62492853,4,0,74,8,0
17,320,607.682973146439,0,0,1633885.28377728,1633886.33084223,4,0,96,16,8
17,321,489.108067704365,1,0,1633899.22512117,1633900.27219188,5,1,85,0,16
17,322,653.959130169824,0,0,1633901.77808756,1633902.82516213,5,0,96,16,16
17,323,537.941135466099,0,0,1633904.57813152,1633905.62520224,5,0,67,4,4
17,324,744.546988746151,1,0,1633907.35463551,1633908.40170122,5,1,81,4,0
17,325,390.173485735431,1,0,1633910.18996345,1633911.23703186,5,1,84,8,16
17,326,529.29452736862,0,0,1633912.75449098,1633913.80177305,5,0,64,8,8
17,327,450.445668539032,0,0,1633915.46062065,1633916.50769368,5,0,73,4,8
17,328,444.979222957045,1,0,1633918.08418349,1633919.13125537,5,1,75,16,4
17,329,430.607090238482,1,0,1633920.57832631,1633921.62539395,5,1,77,4,16
17,330,526.098196627572,1,0,1633923.15483038,1633924.20191457,5,1,74,0,16
17,331,683.688895311207,1,1,1633925.88429521,1633926.93134129,5,0,70,4,8
17,332,588.156213285401,1,0,1633928.66078418,1633929.70785451,5,1,79,4,0
17,333,647.277747746557,1,0,1633931.41375358,1633932.4608266,5,1,91,8,16
17,334,463.921996764839,1,0,1633934.20208164,1633935.24909384,5,1,85,0,0
17,335,484.604024561122,0,0,1633936.79029121,1633937.83735962,5,0,96,16,8
17,336,766.62180502899,0,0,1633939.39032331,1633940.43739326,5,0,63,8,4
17,337,385.023477952927,1,0,1633942.22565203,1633943.27271851,5,1,68,0,4
17,338,605.78203597106,1,0,1633944.70805777,1633945.75511656,5,1,85,4,8
17,339,544.797290349379,0,0,1633947.46107452,1633948.50808172,5,0,78,16,0
17,340,769.172171363607,1,0,1633950.08457115,1633951.13164071,5,1,90,4,16
17,341,554.746606387198,1,0,1633952.91990294,1633953.96701832,5,1,73,0,0
17,342,827.95725017786,0,0,1633955.57875709,1633956.6258663,5,0,63,16,0
17,343,549.506902694702,1,0,1633958.56703964,1633959.61409573,5,1,63,0,4
17,344,533.168774563819,0,0,1633961.24941413,1633962.29648908,5,0,72,4,16
17,345,583.269133931026,0,0,1633964.01416256,1633965.06125714,5,0,85,8,8
17,346,711.240551201627,1,0,1633966.75537178,1633967.80243942,5,1,89,16,4
17,347,468.794447835535,1,0,1633969.63775851,1633970.68485079,5,1,85,0,0
17,348,645.862631266937,0,0,1633972.23783258,1633973.28485825,5,0,93,16,8
17,349,617.952191503719,1,0,1633975.09668356,1633976.14372618,5,1,81,16,16
17,350,702.734068734571,0,0,1633977.83788817,1633978.88492578,5,0,97,16,4
17,351,474.66086782515,1,0,1633980.74377869,1633981.79084055,5,1,67,0,0
17,352,775.258019333705,1,0,1633983.47322158,1633984.52028921,5,1,79,8,0
17,353,708.370667183772,1,0,1633986.33207949,1633987.37915175,5,1,69,0,8
17,354,583.914328599349,0,0,1633989.12034904,1633990.16742668,5,0,76,8,4
17,355,704.041781369597,0,0,1633991.82626658,1633992.87333306,5,0,89,0,4
17,356,942.563207820058,0,0,1633994.64982819,1633995.69689968,5,0,93,4,16
17,357,582.751361420378,0,0,1633997.81457532,1633998.86164988,5,0,81,0,8
17,358,763.362725730985,1,0,1634000.50874693,1634001.55579686,5,1,80,4,8
17,359,759.001887636259,1,0,1634003.4852312,1634004.53230385,5,1,88,4,4
17,360,552.650493802503,1,0,1634006.36765489,1634007.41469404,5,1,95,8,4
17,361,497.48481833376,0,0,1634009.01471844,1634010.06178377,5,0,84,8,16
17,362,517.605187837034,0,0,1634011.57945271,1634012.62652304,5,0,86,16,16
17,363,473.805869463831,1,0,1634014.34419652,1634015.39128533,5,1,85,4,0
17,364,723.904612008482,0,0,1634017.00305028,1634018.05011599,5,0,88,0,0
17,365,455.592981306836,0,0,1634019.93249386,1634020.97956535,5,0,77,16,16
17,366,583.556699566543,0,0,1634022.59134839,1634023.63841872,5,0,62,4,4
17,367,914.760557468981,1,0,1634025.29730943,1634026.34433742,5,1,98,8,0
17,368,571.086274227127,0,0,1634028.41495889,1634029.46203153,5,0,86,16,4
17,369,656.773194903508,1,0,1634031.06204247,1634032.10911626,5,1,61,4,16
17,370,774.965449003503,0,0,1634033.92090615,1634034.96797995,5,0,81,16,16
17,371,503.828589804471,0,0,1634036.90918486,1634037.95624364,5,0,75,4,0
17,372,647.288526641205,1,0,1634039.59155858,1634040.63863083,5,1,79,4,0
17,373,478.761856909841,1,0,1634042.47399419,1634043.5210318,5,1,72,0,4
17,374,651.063838740811,0,0,1634045.17986208,1634046.22693549,5,0,76,16,0
17,375,711.257874500006,1,0,1634047.94465478,1634048.99168469,5,1,100,4,8
17,376,447.741702664644,1,0,1634050.87406141,1634051.92112982,5,1,88,16,8
17,377,454.513935837895,0,0,1634053.4152634,1634054.46232449,5,0,94,0,8
17,378,554.236533120275,1,0,1634056.00352878,1634057.05060181,5,1,61,16,4
17,379,535.013507353142,1,0,1634058.6976823,1634059.74474609,5,1,69,0,4
17,380,382.127031451091,1,0,1634061.41536002,1634062.46243035,5,1,76,0,16
17,381,429.979989072308,0,0,1634064.0506865,1634065.09779918,5,0,85,4,4
17,382,547.009660862386,1,0,1634066.66247955,1634067.70955412,5,1,80,16,8
17,383,593.301986344159,1,0,1634069.38015996,1634070.42722875,5,1,63,8,16
17,384,472.487763268873,1,0,1634072.08607904,1634073.13315515,5,1,72,8,8
17,385,456.180047011003,1,0,1634074.67434713,1634075.72142092,5,1,84,0,16
17,386,651.858013123274,0,0,1634077.30968169,1634078.35675549,5,0,79,8,8
17,387,789.643240626901,0,0,1634080.15676172,1634081.20382821,5,0,81,16,0
17,388,621.092318324372,1,0,1634083.13327333,1634084.18034828,5,1,96,8,0
17,389,473.787776194513,0,0,1634085.81565821,1634086.86273162,5,0,67,0,16
17,390,529.222154757008,0,0,1634088.39216381,1634089.43924069,5,0,87,8,4
17,391,603.962325491011,0,0,1634091.13337881,1634092.18050535,5,0,70,4,4
17,392,605.744309490547,0,0,1634093.98051659,1634095.02754573,5,0,75,8,0
17,393,437.070969957858,1,0,1634096.65109202,1634097.69816312,5,1,78,0,8
17,394,593.332398217171,0,0,1634099.20406688,1634100.25113221,5,0,72,8,0
17,395,515.242682304233,0,0,1634102.01586524,1634103.06293711,5,0,88,8,16
17,396,407.940589124337,0,0,1634104.59241011,1634105.63946004,5,0,78,0,8
17,397,429.660086520016,0,0,1634107.19240141,1634108.23949137,5,0,94,16,8
17,398,481.785725336522,0,0,1634109.69836369,1634110.74538436,5,0,87,16,0
17,399,668.556464836001,1,0,1634112.38069429,1634113.42776539,5,1,100,8,8
17,400,523.935485864058,0,0,1634115.21602646,1634116.2630941,5,0,94,8,4
17,401,657.359875272959,0,0,1634121.1925681,1634122.23963958,6,0,73,4,16
17,402,474.268592661247,0,0,1634123.98083572,1634125.02790798,6,0,95,8,4
17,403,557.764315512031,1,0,1634126.51031257,1634127.55735441,6,1,71,0,16
17,404,398.835107218474,1,0,1634129.12214373,1634130.16915593,6,1,64,4,0
17,405,646.455086069182,1,0,1634131.71034329,1634132.75742748,6,1,99,0,8
17,406,520.740694832057,0,0,1634134.41625351,1634135.46332962,6,0,67,16,0
17,407,575.163780711591,1,0,1634137.19276173,1634138.23983515,6,1,95,0,16
17,408,652.208712650463,1,0,1634139.95750016,1634141.0045728,6,1,64,8,16
17,409,522.81755907461,0,0,1634142.78107563,1634143.82813711,6,0,89,0,8
17,410,465.804840903729,1,0,1634145.48699587,1634146.53412394,6,1,67,16,16
17,411,447.399857454002,1,0,1634148.01643191,1634149.063498,6,1,64,4,0
17,412,612.78524575755,0,0,1634150.68707548,1634151.73411501,6,0,91,16,4
17,413,462.876443052664,0,1,1634153.54591491,1634154.59299025,6,1,93,0,0
17,414,572.058300720528,1,0,1634156.21652961,1634157.26360071,6,1,79,4,0
17,415,502.474297303706,0,0,1634158.99302859,1634160.04010893,6,0,83,4,16
17,416,656.171885784715,0,0,1634161.56953996,1634162.61660645,6,0,68,16,4
17,417,702.261721715331,0,0,1634164.42839826,1634165.47546282,6,0,82,8,8
17,418,570.465332362801,1,0,1634167.34608014,1634168.39314854,6,1,70,16,0
17,419,796.117513906211,0,0,1634170.12258297,1634171.1696583,6,0,74,16,16
17,420,889.082121429965,0,0,1634173.08732786,1634174.13439819,6,0,70,16,8
17,421,872.832534136251,0,0,1634176.21683257,1634177.26384439,6,0,94,8,4
17,422,720.367590663955,1,0,1634179.20505007,1634180.25211771,6,1,80,8,0
17,423,860.767857637256,0,0,1634182.02868598,1634183.07576825,6,0,79,16,16
17,424,474.432970862836,1,0,1634185.06393801,1634186.1110172,6,1,97,0,4
17,425,608.51987823844,1,0,1634187.72280409,1634188.76986864,6,1,74,8,8
17,426,535.082030575722,1,0,1634190.45224659,1634191.49931346,6,1,72,8,0
17,427,489.758266834542,1,0,1634193.13462955,1634194.18169719,6,1,94,0,4
17,428,596.387833356857,1,0,1634195.67584193,1634196.72290302,6,1,84,4,4
17,429,528.132330160588,0,0,1634198.46410647,1634199.51118142,6,0,81,16,8
17,430,500.695392722264,0,0,1634201.1935509,1634202.24061469,6,0,64,8,16
17,431,607.630618382245,0,0,1634203.94654763,1634204.99359525,6,0,72,4,4
17,432,625.707230297849,0,0,1634206.74656157,1634207.79363613,6,0,83,0,4
17,433,834.254441550002,0,0,1634209.48777079,1634210.53483804,6,0,78,8,8
17,434,679.408514173701,1,0,1634212.44075397,1634213.48782045,6,1,68,8,4
17,435,538.435040507466,0,0,1634215.34667837,1634216.39373522,6,0,84,4,0
17,436,570.468797115609,1,0,1634217.99375501,1634219.04083497,6,1,88,0,8
17,437,586.811929475516,1,0,1634220.67614759,1634221.72324525,6,1,64,4,4
17,438,450.252418173477,1,0,1634223.3467696,1634224.39382954,6,1,66,4,8
17,439,561.125794425607,0,0,1634225.88797621,1634226.93505039,6,0,83,16,16
17,440,472.179409582168,1,0,1634228.60565623,1634229.65272772,6,1,66,4,8
17,441,668.822472915053,0,0,1634231.24098194,1634232.28805651,6,0,69,16,4
17,442,491.885176161304,0,0,1634234.04101898,1634235.08811279,6,0,85,4,16
17,443,431.75427406095,1,0,1634236.74693229,1634237.79407383,6,1,87,0,4
17,444,540.275538805872,1,0,1634239.37048936,1634240.41756623,6,1,65,4,8
17,445,549.082675715908,1,0,1634242.06464673,1634243.11171552,6,1,82,4,16
17,446,631.687983637676,1,0,1634244.74702814,1634245.79409924,6,1,76,8,8
17,447,627.274406375363,0,0,1634247.52352751,1634248.57060053,6,0,74,8,16
17,448,430.149756604806,1,0,1634250.323563,1634251.37063141,6,1,75,8,16
17,449,755.523380590603,1,0,1634252.88830535,1634253.93537915,6,1,61,16,16
17,450,672.898439690471,0,0,1634255.8177574,1634256.86483081,6,0,79,8,4
17,451,536.099867196754,1,0,1634258.67661878,1634259.72369104,6,1,89,0,8
17,452,512.461724458262,1,0,1634261.40605744,1634262.45312392,6,1,63,4,0
17,453,582.279014168307,0,0,1634264.13550418,1634265.18256643,6,0,80,16,0
17,454,630.810272647068,1,0,1634266.82965539,1634267.87676807,6,1,80,16,0
17,455,486.013751477003,0,0,1634269.53556908,1634270.58262479,6,0,67,8,0
17,456,495.687435381114,0,1,1634272.21795704,1634273.26502122,6,1,82,4,4
17,457,842.360179405659,1,0,1634274.86505101,1634275.91211634,6,1,71,8,0
17,458,715.196410194039,0,0,1634277.95920707,1634279.00626932,6,0,87,16,4
17,459,415.644042892382,1,0,1634280.82983132,1634281.87689472,6,1,88,0,0
17,460,415.611705975607,0,0,1634283.32397837,1634284.37105024,6,0,64,0,8
17,461,448.024649173021,1,0,1634285.91224607,1634286.95931332,6,1,79,8,16
17,462,404.038624605164,0,0,1634288.46521785,1634289.51228665,6,0,96,0,0
17,463,501.458385260776,0,0,1634290.98289488,1634292.02996444,6,0,84,8,8
17,464,375.705497805029,0,0,1634293.59469139,1634294.64176326,6,0,75,4,8
17,465,391.528548207134,1,0,1634296.08883498,1634297.13590954,6,1,65,0,16
17,466,517.446583835408,1,0,1634298.59475606,1634299.64181831,6,1,87,8,4
17,467,458.236508304253,1,0,1634301.28890535,1634302.33599454,6,1,73,16,8
17,468,647.675797343254,0,0,1634304.00658114,1634305.05365224,6,0,90,0,4
17,469,621.011861367151,0,0,1634306.72426232,1634307.77138847,6,0,90,4,16
17,470,418.262932216749,0,0,1634309.54782355,1634310.59489465,6,0,90,0,16
17,471,831.515059340745,0,0,1634312.20668154,1634313.2537561,6,0,91,16,4
17,472,583.461229456589,1,0,1634315.26554746,1634316.31261086,6,1,82,8,0
17,473,546.552712330595,0,0,1634317.97146231,1634319.0185311,6,0,93,0,16
17,474,487.893900834024,1,0,1634320.58326074,1634321.63037881,6,1,71,0,0
17,475,514.374210499227,0,0,1634323.21858145,1634324.26565178,6,0,61,16,8
17,476,477.532291552052,0,0,1634325.97155585,1634327.01862541,6,0,65,0,0
17,477,570.607382804155,1,0,1634328.58339202,1634329.63042809,6,1,70,16,0
17,478,680.191524792463,0,0,1634331.35986058,1634332.40692899,6,0,91,16,8
17,479,605.943334521726,0,0,1634334.1598903,1634335.20698643,6,0,70,4,4
17,480,782.618473051116,0,0,1634336.8422825,1634337.88934744,6,0,61,4,8
17,481,592.342278687283,0,0,1634343.28940195,1634344.33651309,7,0,67,8,16
17,482,423.598491121084,0,0,1634346.00713856,1634347.05416501,7,0,63,8,4
17,483,514.126295689493,1,0,1634348.63066022,1634349.67773093,7,1,85,16,0
17,484,642.690937966108,0,0,1634351.20715696,1634352.25424038,7,0,67,8,0
17,485,643.342676805332,1,0,1634353.99550235,1634355.04249992,7,1,100,16,16
17,486,494.027868844569,1,0,1634356.78370414,1634357.83076138,7,1,66,0,4
17,487,509.888645261526,1,1,1634359.43079541,1634360.47786575,7,0,80,0,8
17,488,660.771014401689,0,0,1634362.03086679,1634363.07790055,7,0,61,0,16
17,489,506.600308930501,0,0,1634364.87791564,1634365.9249852,7,0,74,4,16
17,490,626.034831861034,0,0,1634367.48970984,1634368.53678633,7,0,87,16,0
17,491,471.566551597789,1,0,1634370.27797669,1634371.32505357,7,1,77,4,16
17,492,538.035450968891,1,0,1634372.85448075,1634373.90156186,7,1,87,16,4
17,493,617.802826920524,1,0,1634375.59572616,1634376.64277455,7,1,95,16,8
17,494,754.30998345837,0,0,1634378.27809411,1634379.32516174,7,0,79,8,16
17,495,750.171653227881,0,0,1634381.26635318,1634382.31341966,7,0,100,8,0
17,496,724.126734305173,0,0,1634384.11344438,1634385.16052626,7,0,63,8,0
17,497,622.580962255597,1,0,1634386.9958311,1634388.04290298,7,1,98,16,16
17,498,616.441989783198,0,0,1634389.73706612,1634390.78412067,7,0,99,16,16
17,499,603.995817014948,0,0,1634392.52531988,1634393.57239022,7,0,98,0,0
17,500,758.751663146541,0,0,1634395.31364256,1634396.3606563,7,0,71,8,16
17,501,1081.32315613329,0,0,1634398.19597847,1634399.24304302,7,0,79,8,0
17,502,583.911248715594,0,0,1634401.3842494,1634402.43131819,7,0,82,4,8
17,503,597.433387534693,1,0,1634404.16075531,1634405.20782449,7,1,99,4,0
17,504,674.285838846117,1,0,1634406.80785082,1634407.85491691,7,1,75,4,4
17,505,640.777297085151,1,0,1634409.63140396,1634410.67847314,7,1,82,4,0
17,506,660.576609196141,1,0,1634412.47850517,1634413.52557357,7,1,80,16,4
17,507,391.824583290145,0,0,1634415.33750321,1634416.38442494,7,0,75,8,0
17,508,429.73630852066,0,0,1634417.84331419,1634418.89035142,7,0,76,0,0
17,509,593.957574805245,0,0,1634420.40800265,1634421.45508299,7,0,69,16,4
17,510,552.219722419977,1,0,1634423.12569307,1634424.17282576,7,1,73,0,0
17,511,578.909450909123,1,0,1634425.8080764,1634426.85515367,7,1,78,16,0
17,512,472.977048717439,1,1,1634428.61987669,1634429.66695164,7,0,70,8,8
17,513,777.357981307432,0,0,1634431.27872544,1634432.32580193,7,0,94,8,16
17,514,444.07533435151,1,0,1634434.12581856,1634435.17289428,7,1,95,0,16
17,515,499.14476973936,0,0,1634436.78468579,1634437.83174842,7,0,75,0,0
17,516,622.818868141621,0,0,1634439.37293424,1634440.42007695,7,0,90,0,8
17,517,806.877557653934,1,0,1634442.07886218,1634443.12592982,7,1,70,0,8
17,518,488.812802592292,1,0,1634445.06716206,1634446.11420506,7,1,78,8,4
17,519,925.057878019288,1,0,1634447.73775212,1634448.78482784,7,1,66,16,8
17,520,429.152322700247,0,0,1634450.89073676,1634451.93780517,7,0,63,4,16
17,521,372.310527134687,0,1,1634453.51429306,1634454.56136917,7,1,84,8,8
17,522,457.742603495717,1,0,1634455.93785868,1634456.98492324,7,1,87,8,8
17,523,423.948420444503,1,0,1634458.49088859,1634459.53790541,7,1,82,4,0
17,524,481.932780472562,0,0,1634460.99673923,1634462.04381302,7,0,93,16,8
17,525,391.868083737791,1,0,1634463.54972025,1634464.59678712,7,1,65,8,16
17,526,338.077103951946,1,0,1634466.1026955,1634467.14976429,7,1,76,4,0
17,527,400.613242061809,0,0,1634468.58506929,1634469.63213962,7,0,94,4,8
17,528,506.332376040518,1,0,1634471.17333814,1634472.22040617,7,1,62,16,16
17,529,593.611110001802,1,0,1634473.73807241,1634474.78514813,7,1,80,16,0
17,530,607.902400894091,1,0,1634476.45575975,1634477.50282007,7,1,100,0,4
17,531,518.581448821351,0,0,1634479.25578908,1634480.30285325,7,0,67,4,16
17,532,456.516502890736,1,0,1634481.94994645,1634482.99700986,7,1,63,0,8
17,533,661.285322159529,1,0,1634484.63232248,1634485.67939627,7,1,88,16,16
17,534,599.753932096064,1,0,1634487.46777438,1634488.51475425,7,1,87,8,4
17,535,577.567861881107,1,0,1634490.26771248,1634491.31475509,7,1,63,8,8
17,536,705.99353313446,0,0,1634493.09125176,1634494.13832787,7,0,69,0,16
17,537,518.010166706517,0,0,1634495.89128995,1634496.93835143,7,0,77,16,8
17,538,456.581946229562,1,0,1634498.57366906,1634499.62075286,7,1,69,4,8
17,539,483.520744368434,1,0,1634501.12664854,1634502.17371887,7,1,90,8,4
17,540,608.375517884269,1,0,1634503.76197079,1634504.80904073,7,1,68,16,8
17,541,454.227139940485,0,0,1634506.45613778,1634507.50318694,7,0,94,0,0
17,542,510.385245084763,0,0,1634509.12674555,1634510.17381203,7,0,83,4,4
17,543,413.457079324871,0,0,1634511.72677457,1634512.77384221,7,0,75,0,4
17,544,907.427820842713,0,0,1634514.32681938,1634515.37388163,7,0,88,0,16
17,545,736.688395729288,0,0,1634517.35038477,1634518.39744548,7,0,63,4,8
17,546,469.522794010118,1,0,1634520.24452512,1634521.291597,7,1,94,0,8
17,547,558.061890071258,0,0,1634522.82102264,1634523.86809759,7,0,75,16,4
17,548,478.664076887071,1,0,1634525.55047362,1634526.59754626,7,1,66,0,4
17,549,541.024672798812,1,0,1634528.2799219,1634529.32699069,7,1,70,4,4
17,550,432.222771458328,1,0,1634531.03289361,1634532.07996471,7,1,78,16,0
17,551,455.044412054121,1,0,1634533.58586731,1634534.63293418,7,1,90,4,16
17,552,952.127562835813,0,0,1634536.24472723,1634537.29179448,7,0,61,4,8
17,553,978.468131739646,0,0,1634539.40946049,1634540.45652544,7,0,86,4,4
17,554,480.000661220402,0,0,1634542.49185677,1634543.53892748,7,0,73,4,0
17,555,658.117478480563,0,0,1634545.04485896,1634546.09189503,7,0,91,4,4
17,556,609.494214178994,1,0,1634547.77427298,1634548.8213487,7,1,81,8,4
17,557,452.425522729754,1,0,1634550.5743104,1634551.62137611,7,1,82,8,8
17,558,787.703807000071,1,0,1634553.24497861,1634554.29200775,7,1,88,0,16
17,559,802.688412368298,0,0,1634556.24497168,1634557.29205087,7,0,90,0,4
17,560,601.257974514738,0,0,1634559.28029531,1634560.32736872,7,0,75,16,4
17,561,716.370926005766,1,0,1634565.92743702,1634566.97450388,8,1,83,4,16
17,562,744.523891014978,1,0,1634568.70396872,1634569.75101711,8,1,88,16,0
17,563,568.440437782556,0,0,1634571.55103797,1634572.59810522,8,0,80,4,0
17,564,424.702559132129,1,0,1634574.26878267,1634575.3157891,8,1,66,4,4
17,565,703.495521564037,0,0,1634576.85698531,1634577.9040387,8,0,68,0,8
17,566,555.746349738911,1,0,1634579.77470799,1634580.82174252,8,1,66,4,0
17,567,586.569019127637,0,0,1634582.40999058,1634583.457069,8,0,86,8,4
17,568,451.36264548637,1,0,1634585.15119904,1634586.19827553,8,1,89,4,0
17,569,622.671427903697,1,0,1634587.72771157,1634588.77477844,8,1,75,8,4
17,570,591.973871225491,1,0,1634590.59832812,1634591.64540307,8,1,78,16,8
17,571,562.592880567536,0,0,1634593.37482979,1634594.42190205,8,0,72,8,0
17,572,469.336087582633,0,0,1634596.06904183,1634597.11607212,8,0,65,0,4
17,573,694.424686720595,1,0,1634598.68078252,1634599.72785285,8,1,100,8,16
17,574,476.467104628682,1,0,1634601.52786063,1634602.57493943,8,1,69,8,0
17,575,425.802392419428,0,0,1634604.09260875,1634605.1396837,8,0,73,16,4
17,576,458.428988931701,0,0,1634606.68087144,1634607.72793985,8,0,63,16,8
17,577,569.439026527107,1,1,1634609.28091009,1634610.32797889,8,0,70,4,16
17,578,801.976234884933,1,0,1634612.02211354,1634613.06919158,8,1,98,8,0
17,579,1088.56196212582,1,0,1634615.05744372,1634616.10451713,8,1,63,4,0
17,580,446.817411342636,0,0,1634618.2692581,1634619.31632958,8,0,81,4,0
17,581,461.276545189321,0,0,1634620.93987741,1634621.98694505,8,0,79,0,8
17,582,466.191726503894,0,0,1634623.58704799,1634624.63403709,8,0,77,8,16
17,583,542.964106192812,0,0,1634626.13994047,1634627.18701273,8,0,71,8,8
17,584,433.582068653777,0,0,1634628.81056171,1634629.85762781,8,0,90,4,4
17,585,541.835400741547,1,0,1634631.43414612,1634632.48119643,8,1,70,0,16
17,586,729.149705264717,0,0,1634634.10474118,1634635.15180843,8,0,89,0,8
17,587,595.303783426061,0,0,1634636.96364683,1634638.0106625,8,0,92,0,16
17,588,734.722400084138,1,0,1634639.74010577,1634640.78717995,8,1,61,4,8
17,589,645.663221366704,0,0,1634642.69308587,1634643.74018007,8,0,63,4,8
17,590,619.951678905636,0,0,1634645.55194032,1634646.59904876,8,0,92,16,8
17,591,454.095483291894,1,0,1634648.26960495,1634649.31669106,8,1,94,8,8
17,592,444.837557151914,0,0,1634650.79906793,1634651.84613904,8,0,65,4,4
17,593,385.532781248912,0,0,1634653.44615112,1634654.49322646,8,0,91,0,0
17,594,571.51589076966,1,0,1634655.99912753,1634657.04619555,8,1,77,0,4
17,595,782.712403219193,1,0,1634658.79916032,1634659.84623181,8,1,90,16,4
17,596,430.906204972416,0,0,1634661.82271647,1634662.86979951,8,0,72,0,16
17,597,377.286147559062,0,0,1634664.43452607,1634665.48159448,8,0,73,0,16
17,598,369.826374109834,1,0,1634666.91691257,1634667.96397058,8,1,87,16,16
17,599,498.787526041269,1,0,1634669.36399776,1634670.41106617,8,1,94,8,16
17,600,643.696455750614,0,0,1634672.11697216,1634673.1640371,8,0,79,16,8
17,601,468.395243166015,0,0,1634674.95229587,1634675.99936582,8,0,80,0,0
17,602,458.254601573572,1,0,1634677.50526804,1634678.55233991,8,1,65,8,4
17,603,562.150560552254,0,0,1634680.19942387,1634681.24649228,8,0,94,16,16
17,604,391.171689610928,1,0,1634682.9053314,1634683.95240173,8,1,74,0,4
17,605,733.400444034487,1,0,1634685.36419024,1634686.41125711,8,1,97,16,16
17,606,529.925478389487,1,0,1634688.35245932,1634689.39952658,8,1,78,16,0
17,607,590.556829702109,1,0,1634690.98777195,1634692.03485729,8,1,82,0,0
17,608,504.679353674874,1,0,1634693.69369642,1634694.74076983,8,1,65,16,4
17,609,460.918916389346,1,0,1634696.36440697,1634697.41139492,8,1,66,4,16
17,610,475.021576276049,1,0,1634698.91729291,1634699.96436594,8,1,96,16,4
17,611,554.896741174161,1,0,1634701.50556754,1634702.55262824,8,1,79,4,4
17,612,910.425127018243,1,0,1634704.18794202,1634705.23501274,8,1,74,0,8
17,613,500.633413903415,1,0,1634707.16445478,1634708.21156323,8,1,64,8,4
17,614,565.728772431612,1,0,1634709.85860638,1634710.90567402,8,1,94,8,8
17,615,612.494215136394,0,0,1634712.6115777,1634713.65865458,8,0,62,8,0
17,616,467.551793670282,1,0,1634715.41161127,1634716.45868083,8,1,67,16,0
17,617,546.411046525463,1,0,1634717.96458883,1634719.01165916,8,1,93,16,8
17,618,473.832046845928,0,0,1634720.58815167,1634721.63521584,8,0,96,8,4
17,619,444.930717581883,0,0,1634723.14112346,1634724.18819071,8,0,67,0,8
17,620,412.485053064302,1,0,1634725.76469015,1634726.81175124,8,1,87,4,8
17,621,503.209572518244,0,0,1634728.41177103,1634729.45884059,8,0,76,16,0
17,622,520.594409666955,0,0,1634731.12945221,1634732.17652601,8,0,94,0,4
17,623,465.801761252806,0,0,1634733.80007114,1634734.84718228,8,0,97,0,0
17,624,554.616874549538,0,0,1634736.38833307,1634737.4354111,8,0,85,16,16
17,625,633.166233776137,1,0,1634739.16484436,1634740.21191123,8,1,98,0,4
17,626,487.030048621818,1,0,1634742.01193556,1634743.05901013,8,1,77,4,8
17,627,532.006192486733,0,0,1634744.62373515,1634745.67080048,8,0,88,8,8
17,628,714.407625142485,1,0,1634747.23553205,1634748.28260354,8,1,84,8,0
17,629,925.63262488693,0,0,1634750.01203565,1634751.0591387,8,0,79,8,16
17,630,1073.28247674741,0,0,1634753.09442115,1634754.14149533,8,0,97,16,16
17,631,655.642564641312,0,0,1634756.25916365,1634757.30624592,8,0,62,16,0
17,632,802.859720308334,1,0,1634759.08273489,1634760.12979829,8,1,98,0,0
17,633,659.193059429526,1,0,1634762.09453086,1634763.14160158,8,1,63,4,8
17,634,469.486222602427,0,0,1634764.96515703,1634766.01222736,8,0,65,8,8
17,635,495.576566783711,1,0,1634767.57695046,1634768.62402695,8,1,85,4,16
17,636,422.863985411823,0,0,1634770.14169474,1634771.18875429,8,0,84,4,16
17,637,834.278309019282,0,0,1634772.70642746,1634773.75349818,8,0,100,16,4
17,638,516.790995374322,0,0,1634775.63587836,1634776.68294985,8,0,70,4,4
17,639,450.576940085739,0,0,1634778.37708143,1634779.42416061,8,0,69,8,16
17,640,573.042645817623,1,0,1634780.96535682,1634782.01241907,8,1,84,0,16
17,641,943.281159969047,0,0,1634788.83603881,1634789.88311454,9,0,71,4,0
17,642,354.031811002642,0,0,1634791.96548617,1634793.01260193,9,0,81,8,4
17,643,513.788299867883,1,0,1634794.45964554,1634795.5067024,9,1,82,4,8
17,644,670.167526463047,0,0,1634797.03613729,1634798.0832311,9,0,97,4,16
17,645,905.358270741999,1,0,1634799.84793411,1634800.89500829,9,1,80,8,4
17,646,497.382803587243,0,0,1634802.84797722,1634803.89504602,9,0,78,4,16
17,647,460.012718103826,1,0,1634805.58918568,1634806.63625177,9,1,89,0,8
17,648,473.622243152931,0,0,1634808.22456605,1634809.27157556,9,0,85,0,16
17,649,436.018101638183,0,0,1634810.94218756,1634811.98926136,9,0,87,16,0
17,650,518.95678578876,1,0,1634813.44810172,1634814.49516859,9,1,72,0,4
17,651,407.992558786646,0,0,1634816.14235957,1634817.1893683,9,0,74,8,4
17,652,781.750000780448,0,0,1634818.69522279,1634819.74234548,9,0,91,16,16
17,653,728.868298698217,1,0,1634821.542334,1634822.5894282,9,1,83,4,0
17,654,538.512802449986,1,0,1634824.43647551,1634825.48354123,9,1,76,4,16
17,655,435.499174287543,0,0,1634827.08356294,1634828.13063404,9,0,76,16,8
17,656,554.201116785407,0,0,1634829.7188925,1634830.76596206,9,0,86,16,0
17,657,540.821028640494,1,0,1634832.50719939,1634833.55422468,9,1,89,8,0
17,658,742.321144556627,1,0,1634835.13077417,1634836.17778752,9,1,93,16,4
17,659,525.218175724149,0,0,1634838.02487487,1634839.07194212,9,0,89,0,0
17,660,703.804645454511,0,0,1634840.7661249,1634841.81316597,9,0,91,0,8
17,661,449.57026722841,1,0,1634843.660236,1634844.70730325,9,1,68,4,4
17,662,483.729778090492,1,1,1634846.16615824,1634847.21321202,9,0,79,4,8
17,663,708.992379251868,0,0,1634848.78971454,1634849.83678448,9,0,99,16,0
17,664,596.450582146645,0,0,1634851.61327461,1634852.66034456,9,0,84,0,16
17,665,617.208831943572,0,0,1634854.30747933,1634855.35453195,9,0,81,4,4
17,666,654.449570225552,0,0,1634857.06039098,1634858.10746863,9,0,68,16,16
17,667,520.899298833683,0,0,1634859.94278425,1634860.98986113,9,0,84,4,16
17,668,1.25512597151101,1,1,1634862.64869718,1634863.69576789,9,0,72,8,8
17,669,528.121166396886,0,0,1634864.90755378,1634865.95462334,9,0,86,16,8
17,670,530.603779712692,1,0,1634867.68405584,1634868.73112463,9,1,66,8,4
17,671,453.680880367756,0,0,1634870.43702524,1634871.48409788,9,0,92,16,16
17,672,503.718106076121,0,0,1634873.0959325,1634874.14295856,9,0,74,8,8
17,673,680.297389160842,1,0,1634875.67238998,1634876.71946147,9,1,100,16,16
17,674,494.680377654731,1,0,1634878.60198832,1634879.64890506,9,1,76,8,16
17,675,625.050101662055,1,0,1634881.27245558,1634882.31952784,9,1,100,0,4
17,676,419.132173992693,1,0,1634884.02542536,1634885.07249762,9,1,78,16,4
17,677,505.114359548315,0,0,1634886.5783983,1634887.62549558,9,0,79,16,0
17,678,498.847195180133,1,0,1634889.31964756,1634890.36674523,9,1,90,0,8
17,679,506.59568910487,0,0,1634892.01376374,1634893.06083908,9,0,78,8,0
17,680,568.784207804129,0,0,1634894.73144454,1634895.77852103,9,0,79,16,4
17,681,502.507788827643,1,0,1634897.51971524,1634898.56678788,9,1,66,8,0
17,682,449.310033814982,0,1,1634900.15504249,1634901.20210974,9,1,93,4,16
17,683,565.023909090087,1,0,1634902.83742506,1634903.88450732,9,1,95,0,8
17,684,628.430444048718,0,0,1634905.62573734,1634906.6727684,9,0,88,16,8
17,685,717.743311775848,1,0,1634908.48457947,1634909.53162439,9,1,71,4,4
17,686,467.10215928033,0,0,1634911.41398763,1634912.46110147,9,0,99,16,8
17,687,549.976170063019,0,0,1634914.00227073,1634915.04938726,9,0,93,8,16
17,688,484.356879489496,0,1,1634916.77877164,1634917.8258385,9,1,72,8,8
17,689,637.181376572698,0,0,1634919.41417203,1634920.46117345,9,0,71,16,4
17,690,577.555543277413,0,0,1634922.24945032,1634923.29649177,9,0,61,0,4
17,691,524.052129127085,1,0,1634924.92009081,1634925.96711918,9,1,74,0,16
17,692,673.041260102764,1,0,1634927.57890722,1634928.62597794,9,1,93,8,16
17,693,875.447574071586,0,0,1634930.39070558,1634931.43777399,9,0,100,8,16
17,694,525.719010038301,1,0,1634933.52015332,1634934.56722596,9,1,74,4,0
17,695,506.211883155629,0,0,1634936.19077072,1634937.23783989,9,0,73,0,16
17,696,530.792410485446,0,0,1634938.92027636,1634939.9672874,9,0,87,0,4
17,697,461.520610377193,1,0,1634941.56730835,1634942.61437598,9,1,95,0,16
17,698,462.29053218849,0,0,1634944.09680713,1634945.14382165,9,0,85,8,4
17,699,432.143084472045,1,0,1634946.64971347,1634947.6967942,9,1,78,8,8
17,700,544.148246059194,1,0,1634949.15563494,1634950.20270836,9,1,90,16,16
17,701,409.717183792964,1,0,1634951.77919509,1634952.8262712,9,1,79,8,16
17,702,596.156856743619,1,0,1634954.41459664,1634955.46159768,9,1,72,4,8
17,703,401.370460167527,1,0,1634957.16749944,1634958.21456477,9,1,74,4,0
17,704,423.733227420598,0,0,1634959.6969451,1634960.74401698,9,0,74,4,4
17,705,316.592432558537,1,0,1634962.33226235,1634963.37934307,9,1,88,0,0
17,706,472.282964037731,0,1,1634964.77935447,1634965.82642595,9,1,64,0,0
17,707,464.467101497576,1,0,1634967.34408719,1634968.39116407,9,1,85,16,8
17,708,480.334037449211,0,0,1634969.88530111,1634970.93236952,9,0,81,16,4
17,709,449.163363547996,1,0,1634972.47356843,1634973.52063876,9,1,62,4,8
17,710,496.450043050572,0,0,1634975.03830423,1634976.08537302,9,0,67,0,8
17,711,569.483681814745,1,0,1634977.70895589,1634978.75601659,9,1,91,8,0
17,712,408.63428870216,1,0,1634980.35601752,1634981.40309208,9,1,61,4,0
17,713,641.728535527363,1,0,1634982.96784791,1634984.01487897,9,1,86,4,4
17,714,537.919962545857,1,0,1634985.68549329,1634986.73256362,9,1,91,0,4
17,715,605.043680639938,0,0,1634988.3443532,1634989.39142392,9,0,90,0,0
17,716,555.106929736212,1,0,1634991.20320572,1634992.25028106,9,1,95,4,8
17,717,499.354573665187,1,0,1634993.95618398,1634995.00325623,9,1,90,0,0
17,718,438.541135750711,0,0,1634996.67386092,1634997.72093626,9,0,84,8,8
17,719,451.122044818476,0,0,1634999.3091874,1635000.3562585,9,0,61,16,0
17,720,570.3675521072,1,0,1635001.92098584,1635002.9680658,9,1,61,8,0
