sub_id,Trial,RT,Resp,Error,Fix_onset,Disp_onset,block,tid,tloc,fish_setsize,bird_setsize
38,1,972.897961968556,1,0,1811192.4081876,1811193.45525677,1,1,75,16,0
38,2,994.837272213772,1,0,1811195.51413078,1811196.5612373,1,1,81,16,8
38,3,814.65937406756,1,0,1811198.65532137,1811199.70238747,1,1,69,8,4
38,4,719.428886426613,1,0,1811201.54946635,1811202.59654284,1,1,72,8,8
38,5,961.68366423808,0,0,1811204.36126702,1811205.40833196,1,0,79,4,4
38,6,811.926536029205,0,0,1811207.52600721,1811208.57312335,1,0,93,8,8
38,7,886.670941254124,1,0,1811210.57309756,1811211.62016789,1,1,65,4,8
38,8,839.515533065423,1,0,1811213.6201933,1811214.66725593,1,1,71,8,0
38,9,1226.80935775861,0,0,1811216.690814,1811217.7379159,1,0,97,16,16
38,10,846.709683770314,0,0,1811219.98497691,1811221.0320357,1,0,81,4,8
38,11,919.975838623941,1,0,1811223.00853345,1811224.055593,1,1,75,0,0
38,12,869.401977397501,1,0,1811226.03209036,1811227.07916724,1,1,69,0,4
38,13,831.53259800747,0,0,1811229.0321227,1811230.07920227,1,0,94,4,0
38,14,911.467046709731,1,0,1811232.07921921,1811233.1262853,1,1,71,16,4
38,15,957.819425966591,0,0,1811235.20866926,1811236.25573228,1,0,69,0,8
38,16,882.656183559448,1,0,1811238.30283418,1811239.34988333,1,1,82,4,0
38,17,752.134014619514,0,0,1811241.32637877,1811242.37345103,1,0,69,4,4
38,18,762.666161637753,1,0,1811244.2087732,1811245.25582736,1,1,71,0,4
38,19,947.994067566469,1,0,1811247.17349692,1811248.22061036,1,1,95,16,0
38,20,785.37385375239,0,0,1811250.19706384,1811251.24413417,1,0,87,0,0
38,21,620.847313432023,0,0,1811253.22073317,1811254.2677165,1,0,68,0,8
38,22,1000.92619960196,1,0,1811256.07948753,1811257.12655709,1,1,89,16,0
38,23,811.281341360882,0,0,1811259.25599405,1811260.30305707,1,0,78,4,8
38,24,1478.52070187218,0,0,1811262.17366899,1811263.2207374,1,0,62,8,4
38,25,901.593567803502,0,0,1811265.82077066,1811266.86783676,1,0,98,0,0
38,26,746.248346520588,0,0,1811268.80903975,1811269.85611085,1,0,88,16,4
38,27,626.666768221185,0,0,1811271.73850758,1811272.78555212,1,0,76,0,16
38,28,646.452205488458,0,0,1811274.5149877,1811275.56184709,1,0,69,0,16
38,29,734.558622119948,0,0,1811277.38559,1811278.43268921,1,0,73,4,0
38,30,539.659431669861,0,0,1811280.35040303,1811281.39741408,1,0,76,0,16
38,31,783.00595888868,1,0,1811283.02095922,1811284.06803032,1,1,86,0,4
38,32,974.89167470485,1,0,1811285.91511266,1811286.96218068,1,1,88,4,16
38,33,911.765391472727,1,0,1811289.11514453,1811290.16222372,1,1,79,0,8
38,34,1245.45032251626,0,0,1811292.24459112,1811293.29166415,1,0,65,4,4
38,35,932.818906381726,0,0,1811295.72698493,1811296.77406027,1,0,91,8,0
38,36,760.602385737002,0,0,1811298.8093712,1811299.8564423,1,0,77,8,0
38,37,860.811188584194,1,0,1811301.62116994,1811302.66822372,1,1,97,4,4
38,38,958.775669103488,0,0,1811304.63296245,1811305.68003856,1,0,79,0,8
38,39,1002.6465903502,1,0,1811307.72714816,1811308.77419193,1,1,61,8,4
38,40,1057.61054647155,1,0,1811310.82126264,1811311.86833875,1,1,98,4,16
38,41,1087.83537126146,0,0,1811314.09195025,1811315.138969,1,0,81,0,4
38,42,934.496181318536,1,0,1811317.37428409,1811318.42135172,1,1,71,0,16
38,43,637.474162271246,1,0,1811320.37431219,1811321.42138637,1,1,87,16,4
38,44,1080.35211521201,0,0,1811323.12730237,1811324.17435346,1,0,64,8,16
38,45,1038.23584620841,1,0,1811326.32732347,1811327.37438995,1,1,93,8,16
38,46,762.86595617421,1,0,1811329.60971312,1811330.65679269,1,1,86,16,0
38,47,845.352311385795,1,0,1811332.49209946,1811333.53917018,1,1,80,8,16
38,48,731.009281938896,1,0,1811335.52743272,1811336.57448842,1,1,96,16,16
38,49,1070.41742745787,0,0,1811338.49217107,1811339.539231,1,0,90,16,16
38,50,849.581492366269,1,0,1811341.65690317,1811342.70397851,1,1,66,8,4
38,51,718.886091373861,1,0,1811344.66871378,1811345.71577795,1,1,96,0,8
38,52,870.314334984869,0,0,1811347.55109819,1811348.59815967,1,0,69,4,4
38,53,1394.58265900612,0,0,1811350.56290341,1811351.6099645,1,0,91,4,16
38,54,1377.53042811528,0,0,1811354.17470108,1811355.22176871,1,0,88,16,16
38,55,2165.3033751063,0,0,1811357.65708719,1811358.70415713,1,0,81,16,8
38,56,715.7498144079,0,0,1811362.03361019,1811363.08068591,1,0,89,8,8
38,57,753.773948177695,1,0,1811364.93960696,1811365.9865926,1,1,67,4,16
38,58,971.108278492466,1,0,1811367.8101442,1811368.85720991,1,1,83,4,8
38,59,743.794990470633,0,0,1811370.84547938,1811371.89254009,1,0,75,16,8
38,60,838.864179328084,1,0,1811373.70437695,1811374.75140262,1,1,70,4,0
38,61,891.605755779892,0,0,1811376.69259406,1811377.73966324,1,0,75,16,4
38,62,684.67923020944,0,0,1811379.64557031,1811380.6926391,1,0,87,8,16
38,63,624.419751111418,0,0,1811382.58681449,1811383.63384594,1,0,77,16,16
38,64,928.447674727067,1,0,1811385.30445063,1811386.35152635,1,1,93,8,4
38,65,755.893543362617,0,0,1811388.42213165,1811389.46921045,1,0,76,0,0
38,66,891.389407683164,1,0,1811391.30452492,1811392.35158871,1,1,78,16,8
38,67,812.05857754685,0,0,1811394.43397036,1811395.48104146,1,0,71,0,4
38,68,906.780531862751,0,0,1811397.43400539,1811398.48111691,1,0,80,8,0
38,69,919.541602721438,1,0,1811400.42227255,1811401.4693398,1,1,98,16,8
38,70,1037.6526301261,0,0,1811403.57524988,1811404.62231944,1,0,62,8,8
38,71,857.545564882457,0,0,1811406.68116842,1811407.72823837,1,0,96,8,16
38,72,809.219490503892,0,0,1811409.65767271,1811410.70474381,1,0,81,0,16
38,73,765.869036782533,1,0,1811412.70476114,1811413.75183801,1,1,73,4,16
38,74,796.43878666684,1,0,1811415.57538885,1811416.62245533,1,1,89,4,0
38,75,1178.34585253149,0,0,1811418.57542388,1811419.62248651,1,0,68,16,4
38,76,882.250434486195,1,0,1811421.97545375,1811423.02252716,1,1,86,16,0
38,77,575.040423544124,1,0,1811424.96372515,1811426.01084552,1,1,97,8,8
38,78,622.907239478081,1,0,1811427.62257659,1811428.66964962,1,1,78,4,8
38,79,637.743635103107,1,0,1811430.36381738,1811431.41089965,1,1,89,0,0
38,80,633.044416550547,1,0,1811433.1285227,1811434.17558764,1,1,73,8,0
38,81,1421.38864542358,0,0,1811454.77583186,1811455.82290027,2,0,75,4,4
38,82,686.614813981578,0,0,1811458.38765532,1811459.4346987,2,0,66,16,0
38,83,656.406927388161,0,0,1811461.32883675,1811462.37591093,2,0,95,0,16
38,84,594.443995971233,1,0,1811464.18769774,1811465.23476114,2,1,69,16,0
38,85,502.165773883462,1,0,1811467.01125743,1811468.05833007,2,1,87,0,8
38,86,665.206749923527,0,0,1811469.68188021,1811470.72894477,2,0,74,16,4
38,87,833.198708714917,0,0,1811472.43485577,1811473.4819184,2,0,96,8,0
38,88,642.304652370512,1,0,1811475.38782393,1811476.43489349,2,1,98,8,16
38,89,679.093446582556,0,0,1811478.17608963,1811479.2231565,2,0,61,8,4
38,90,1262.12182664312,1,0,1811480.98788529,1811482.03495524,2,1,87,16,8
38,91,1551.62632814609,1,0,1811484.31734297,1811485.36440522,2,1,82,16,8
38,92,964.266367256641,1,0,1811487.9997367,1811489.0467951,2,1,77,8,16
38,93,683.191356016323,1,0,1811491.19976511,1811492.24683391,2,1,82,16,16
38,94,747.106809634715,1,0,1811494.09391971,1811495.14098889,2,1,80,16,16
38,95,789.921397576109,0,0,1811497.03513656,1811498.08219765,2,0,77,4,16
38,96,835.357954958454,1,0,1811500.01163546,1811501.05869501,2,1,84,4,8
38,97,833.791548851877,1,0,1811502.94108983,1811503.98814938,2,1,96,16,8
38,98,1097.5259935949,0,0,1811505.98816593,1811507.03524165,2,0,73,16,0
38,99,904.563541756943,1,0,1811509.34114588,1811510.38821813,2,1,64,8,0
38,100,713.562081102282,1,0,1811512.34117629,1811513.38824854,2,1,61,8,8
38,101,798.328174976632,1,0,1811515.17650654,1811516.22357187,2,1,77,4,8
38,102,1385.45369450003,0,0,1811518.1412522,1811519.18832099,2,0,90,16,4
38,103,624.740038532764,0,0,1811521.7648162,1811522.81189539,2,0,78,0,4
38,104,929.923614952713,1,0,1811524.5766161,1811525.62368374,2,1,62,16,16
38,105,862.063851673156,0,0,1811527.57664651,1811528.62371877,2,0,99,0,16
38,106,675.993741024286,0,0,1811530.6237461,1811531.67081528,2,0,66,4,4
38,107,925.755642587319,0,0,1811533.37672089,1811534.42378275,2,0,79,8,4
38,108,1727.10654768161,0,0,1811536.54151998,1811537.58851948,2,0,92,4,16
38,109,946.50503853336,1,0,1811540.4709089,1811541.51797692,2,1,71,0,8
38,110,633.437461685389,1,0,1811543.67094771,1811544.71801534,2,1,86,8,4
38,111,1169.62456214242,0,0,1811546.43568305,1811547.48277532,2,0,82,16,4
38,112,1016.5321319364,1,0,1811549.82397662,1811550.87104156,2,1,99,4,0
38,113,1179.65240986086,1,0,1811552.98869795,1811554.03576866,2,1,69,8,8
38,114,1064.6233803127,0,0,1811556.34168251,1811557.38874745,2,0,79,4,16
38,115,1387.65028188936,0,0,1811559.49465791,1811560.54172555,2,0,100,4,8
38,116,846.830946626142,0,0,1811563.00062404,1811564.04764663,2,0,83,0,0
38,117,1077.56615267135,1,0,1811565.94178699,1811566.98886079,2,1,71,4,8
38,118,1113.85064781643,1,0,1811569.27123966,1811570.31830768,2,1,69,0,8
38,119,995.636065956205,0,0,1811572.55362007,1811573.60069772,2,0,74,0,0
38,120,803.276848280802,0,0,1811575.69484454,1811576.7419141,2,0,92,4,0
38,121,1031.68419538997,1,0,1811578.61252372,1811579.6595929,2,1,71,8,8
38,122,829.361032927409,0,0,1811581.7537301,1811582.80080043,2,0,62,4,16
38,123,577.319007599726,0,0,1811584.70670442,1811585.75378976,2,0,76,0,0
38,124,589.156942209229,0,0,1811587.44791172,1811588.4949809,2,0,64,16,0
38,125,948.252376168966,1,0,1811590.21265476,1811591.25972278,2,1,84,16,8
38,126,1561.59835704602,1,0,1811593.28332204,1811594.33034657,2,1,91,4,4
38,127,713.582099415362,1,0,1811597.08332058,1811598.13038629,2,1,90,8,16
38,128,1022.79852656648,1,0,1811599.8480617,1811600.89513203,2,1,100,16,16
38,129,1118.74350183643,0,0,1811603.03632801,1811604.08339141,2,0,83,16,16
38,130,1245.28748402372,0,0,1811606.28342598,1811607.33049362,2,0,69,8,16
38,131,811.941549414769,0,0,1811609.70699276,1811610.75406617,2,0,79,0,4
38,132,1370.37631357089,0,0,1811612.6834905,1811613.73056315,2,0,74,4,0
38,133,616.769806947559,0,0,1811616.15412491,1811617.20118754,2,0,90,4,8
38,134,892.767183016986,0,0,1811618.90713511,1811619.95416348,2,0,86,16,4
38,135,736.115019069985,0,0,1811621.88360476,1811622.93067086,2,0,91,0,8
38,136,1627.04287515953,0,0,1811624.68363294,1811625.73070481,2,0,62,8,16
38,137,1008.86601931416,1,0,1811628.42485025,1811629.47196215,2,1,65,8,0
38,138,2686.43388221972,0,0,1811631.56606933,1811632.61313311,2,0,79,0,4
38,139,893.852773122489,0,0,1811636.38964172,1811637.43677172,2,0,94,16,4
38,140,902.018949855119,1,0,1811639.44850879,1811640.4955722,2,1,65,0,4
38,141,918.085680343211,1,0,1811642.55442695,1811643.60149343,2,1,88,4,0
38,142,949.410723755136,0,0,1811645.71916715,1811646.76626096,2,0,65,16,0
38,143,651.331986766309,0,0,1811648.87214255,1811649.91920787,2,0,73,4,0
38,144,878.370412858203,1,0,1811651.62510848,1811652.67219382,2,1,89,0,0
38,145,1206.22434024699,1,0,1811654.57809512,1811655.62516122,2,1,81,4,4
38,146,718.914193334058,1,0,1811657.8605429,1811658.90755588,2,1,83,0,16
38,147,878.563663456589,1,0,1811660.75462821,1811661.8016997,2,1,92,16,8
38,148,1227.52961982042,0,0,1811663.75466863,1811664.80173319,2,0,99,4,16
38,149,564.630309352651,0,0,1811667.0605871,1811668.10765435,2,0,76,0,16
38,150,1042.63248527423,1,0,1811669.75472984,1811670.8018021,2,1,84,8,4
38,151,749.946281546727,1,0,1811672.87241202,1811673.91949583,2,1,89,8,8
38,152,834.443287691101,1,0,1811675.70774574,1811676.75481376,2,1,74,0,16
38,153,1107.45028685778,0,0,1811678.7195394,1811679.76660781,2,0,62,4,4
38,154,659.758012508973,0,0,1811681.97844798,1811683.02546942,2,0,65,8,8
38,155,898.861115099862,1,0,1811684.89608288,1811685.94315052,2,1,65,8,4
38,156,1438.95364436321,0,0,1811687.94317593,1811688.99025627,2,0,80,0,0
38,157,791.341518750414,1,0,1811691.47263083,1811692.51969269,2,1,75,0,4
38,158,1055.21878390573,1,0,1811694.41383459,1811695.46091224,2,1,92,8,0
38,159,956.925161648542,1,0,1811697.60211168,1811698.64917739,2,1,96,8,0
38,160,640.265129273757,1,0,1811700.73157367,1811701.778644,2,1,64,0,8
38,161,1263.91535997391,0,0,1811725.7906594,1811726.83774667,3,0,93,4,8
38,162,1023.10303063132,0,0,1811729.20248063,1811730.24954172,3,0,64,16,16
38,163,661.631617462263,1,0,1811732.48486605,1811733.53191713,3,1,98,8,8
38,164,719.3538188003,0,0,1811735.367247,1811736.41431233,3,0,83,4,8
38,165,779.308408964425,1,0,1811738.21433627,1811739.26140314,3,1,63,16,0
38,166,1038.42409187928,0,0,1811741.22613455,1811742.27320758,3,0,85,8,4
38,167,527.732186252251,0,0,1811744.35558153,1811745.40270383,3,0,65,8,0
38,168,653.049682965502,0,0,1811747.12031802,1811748.16738951,3,0,70,0,0
38,169,1003.63593967631,1,0,1811750.00276712,1811751.0497797,3,1,78,4,4
38,170,1865.68633420393,1,0,1811753.26159831,1811754.30864516,3,1,74,16,8
38,171,1407.26365800947,0,0,1811757.19101996,1811758.23809183,3,0,100,16,4
38,172,639.452861621976,1,0,1811760.69693873,1811761.74401715,3,1,65,0,8
38,173,1705.9406240005,1,0,1811763.47345272,1811764.52051728,3,1,87,16,4
38,174,898.63167819567,0,0,1811767.26173266,1811768.30879645,3,0,76,0,4
38,175,2785.75034555979,1,0,1811770.28529151,1811771.33241843,3,1,94,0,0
38,176,635.982438689098,1,0,1811775.23829008,1811776.28541931,3,1,81,0,0
38,177,1057.98472836614,0,0,1811778.03832288,1811779.08538859,3,0,65,8,4
38,178,897.798237856478,1,0,1811781.28546127,1811782.33248425,3,1,83,16,0
38,179,1248.86454129592,0,0,1811784.40309803,1811785.45016797,3,0,73,16,4
38,180,833.705317461863,1,0,1811787.88549607,1811788.93256487,3,1,86,4,4
38,181,642.291948664933,1,0,1811790.82669983,1811791.87377132,3,1,67,16,4
38,182,637.462998507544,1,0,1811793.57965883,1811794.62675303,3,1,94,0,16
38,183,734.517815988511,0,0,1811796.39147221,1811797.43854023,3,0,88,8,0
38,184,887.835063040257,1,0,1811799.35627022,1811800.40328358,3,1,90,8,8
38,185,730.110783129931,0,0,1811802.37977286,1811803.42684742,3,0,77,0,8
38,186,828.026758274063,1,0,1811805.27392361,1811806.32099586,3,1,62,8,16
38,187,1024.6413347777,1,0,1811808.16807782,1811809.21515508,3,1,61,0,16
38,188,981.957248412073,0,0,1811811.27403679,1811812.32107016,3,0,76,4,16
38,189,1112.37624729984,0,0,1811814.30932385,1811815.35638648,3,0,82,0,16
38,190,854.597148951143,1,0,1811817.66230726,1811818.7093799,3,1,92,8,4
38,191,1209.62393051013,0,0,1811820.72116355,1811821.76822888,3,0,71,16,0
38,192,907.205143710598,1,0,1811824.06237255,1811825.10944134,3,1,71,16,8
38,193,1041.55497951433,0,0,1811827.13301211,1811828.18006589,3,0,72,0,4
38,194,1285.8758426737,0,0,1811830.39185871,1811831.43893096,3,0,93,8,0
38,195,787.410297198221,1,0,1811833.87425021,1811834.92131746,3,1,79,0,8
38,196,693.563744192943,1,0,1811836.74491564,1811837.79193863,3,1,72,4,4
38,197,780.162252252921,1,0,1811839.61549831,1811840.66256634,3,1,88,16,0
38,198,1566.86539272778,0,0,1811842.61552796,1811843.66259521,3,0,75,16,16
38,199,1143.72515841387,0,0,1811846.25086252,1811847.2979317,3,0,82,0,8
38,200,665.296830702573,0,0,1811849.53325525,1811850.5803279,3,0,84,16,16
38,201,794.366926886141,0,0,1811852.43916849,1811853.48624074,3,0,81,16,8
38,202,906.948374817148,1,0,1811855.32160179,1811856.36862978,3,1,82,0,4
38,203,1125.82216411829,0,0,1811858.32159679,1811859.36869368,3,0,61,16,16
38,204,676.938820164651,1,0,1811861.6392762,1811862.68634961,3,1,67,4,0
38,205,1024.9758658465,0,0,1811864.53342733,1811865.58050613,3,0,93,8,8
38,206,864.698524586856,1,0,1811867.62758031,1811868.67464603,3,1,85,8,16
38,207,894.55532678403,0,0,1811870.58055271,1811871.6276242,3,0,84,4,4
38,208,1904.26250221208,0,0,1811873.55706239,1811874.60413157,3,0,86,4,0
38,209,835.834151599556,1,0,1811877.59240605,1811878.63950486,3,1,93,0,0
38,210,740.6402353663,1,0,1811880.48654794,1811881.53362097,3,1,92,8,4
38,211,1728.81384962238,0,0,1811883.34541201,1811884.39247542,3,0,67,0,0
38,212,874.232467729598,0,0,1811887.18074535,1811888.22781337,3,0,93,4,4
38,213,866.572899278253,0,0,1811890.29842599,1811891.34549709,3,0,69,8,0
38,214,1046.70190764591,1,0,1811893.31023736,1811894.357305,3,1,85,0,8
38,215,1019.11483518779,0,0,1811896.52202633,1811897.56910128,3,0,75,0,4
38,216,858.148028841242,1,0,1811899.73382684,1811900.78090103,3,1,66,16,16
38,217,1075.88656805456,1,0,1811902.78092528,1811903.82799715,3,1,64,4,16
38,218,898.651311406866,0,0,1811906.07511591,1811907.12220857,3,0,61,0,4
38,219,489.15486340411,0,0,1811909.0986351,1811910.14570582,3,0,65,8,4
38,220,620.512397261336,0,0,1811911.66337591,1811912.71044509,3,0,93,0,16
38,221,512.43653241545,0,0,1811914.51046557,1811915.55754206,3,0,83,8,16
38,222,706.025700550526,1,0,1811917.14579243,1811918.1928643,3,1,74,4,16
38,223,854.6133171767,1,0,1811920.08701197,1811921.13408115,3,1,99,4,8
38,224,795.579553814605,0,0,1811923.13410271,1811924.18116649,3,0,77,8,0
38,225,1210.0962777622,1,0,1811926.11060161,1811927.15767425,3,1,91,4,8
38,226,767.314180033281,0,0,1811929.52240821,1811930.56947546,3,0,87,8,8
38,227,828.306624898687,0,0,1811932.38126304,1811933.42832952,3,0,96,16,4
38,228,834.824013989419,1,0,1811935.45189645,1811936.49895215,3,1,90,4,0
38,229,1016.29191637039,0,0,1811938.42838842,1811939.4754526,3,0,61,8,8
38,230,863.065135199577,1,0,1811941.58136768,1811942.62843839,3,1,78,16,8
38,231,927.04564682208,1,0,1811944.62845956,1811945.67552913,3,1,97,4,0
38,232,615.476723061875,1,0,1811947.7461479,1811948.79321785,3,1,76,16,8
38,233,899.962873430923,0,0,1811950.42852393,1811951.47565124,3,0,74,8,16
38,234,746.155570959672,0,0,1811953.5462065,1811954.59327606,3,0,84,0,16
38,235,1114.32722955942,1,0,1811956.51094638,1811957.55801671,3,1,82,4,16
38,236,667.146183317527,1,0,1811959.85216846,1811960.89923879,3,1,100,4,8
38,237,631.651242962107,1,0,1811962.73454749,1811963.78165901,3,1,83,8,16
38,238,1077.77287671342,0,0,1811965.5934054,1811966.64051847,3,0,100,4,0
38,239,1018.45270232297,1,0,1811968.87579236,1811969.92286577,3,1,100,16,0
38,240,868.021507514641,1,0,1811972.00524626,1811973.05231198,3,1,91,4,16
38,241,1222.39077603444,0,0,1811984.18185673,1811985.22892552,4,0,90,4,0
38,242,836.458173347637,1,0,1811987.48777558,1811988.5348386,4,1,70,0,4
38,243,1369.78578357957,1,0,1811990.55840206,1811991.60547008,4,1,92,8,16
38,244,845.278398832306,0,0,1811994.09961521,1811995.14668747,4,0,65,4,8
38,245,1377.78142257594,1,0,1811997.07612143,1811998.12319792,4,1,96,16,4
38,246,744.951797882095,0,0,1812000.6761774,1812001.72323426,4,0,93,0,8
38,247,666.024792008102,1,0,1812003.48796075,1812004.53502684,4,1,66,4,0
38,248,890.255697770044,0,0,1812006.35858037,1812007.40564378,4,0,61,4,8
38,249,1273.43082497828,0,0,1812009.46449853,1812010.51156501,4,0,98,16,0
38,250,1259.8725000862,1,0,1812012.88806607,1812013.93516836,4,1,97,8,16
38,251,601.005270611495,1,0,1812016.20574741,1812017.25281504,4,1,74,16,16
38,252,742.589292582124,0,0,1812018.98226102,1812020.0293198,4,0,87,16,0
38,253,682.993486057967,0,0,1812021.95875568,1812023.00581832,4,0,63,4,16
38,254,1135.01118193381,1,0,1812024.8058515,1812025.85292068,4,1,92,0,16
38,255,1024.59975890815,0,0,1812028.10000479,1812029.14707012,4,0,85,0,0
38,256,814.865328138694,1,0,1812031.31180877,1812032.35888488,4,1,81,8,4
38,257,628.622369840741,1,0,1812034.30007362,1812035.34714241,4,1,62,4,0
38,258,2048.37186820805,0,0,1812037.04128361,1812038.08835125,4,0,99,16,4
38,259,1816.55184202828,1,0,1812041.26489781,1812042.3119335,4,1,74,0,8
38,260,739.573893370107,1,0,1812045.31196776,1812046.35903155,4,1,77,0,16
38,261,1246.92972749472,1,0,1812048.13553168,1812049.18258931,4,1,86,4,0
38,262,939.804792869836,1,0,1812051.48850508,1812052.53564086,4,1,81,16,16
38,263,905.594082083553,1,0,1812054.58268309,1812055.6297642,4,1,67,4,8
38,264,1394.32627498172,1,0,1812057.55917391,1812058.6062323,4,1,74,4,16
38,265,1341.0380538553,0,0,1812061.05332596,1812062.10039437,4,0,88,0,0
38,266,1625.8229338564,0,0,1812064.65336115,1812065.70043495,4,0,83,0,16
38,267,887.55404157564,1,0,1812068.42987591,1812069.47694393,4,1,82,4,16
38,268,2337.59919763543,0,0,1812071.50050586,1812072.54756926,4,0,75,8,16
38,269,1199.50523157604,0,0,1812076.04172824,1812077.08880551,4,0,98,4,4
38,270,1228.19868195802,0,0,1812079.32412059,1812080.37119169,4,0,73,8,0
38,271,871.46459822543,0,0,1812082.64180732,1812083.68887726,4,0,84,8,8
38,272,999.401369364932,0,0,1812085.583013,1812086.6418616,4,0,83,0,8
38,273,1195.01774176024,1,0,1812088.73599109,1812089.78306489,4,1,82,16,8
38,274,784.530789125711,1,0,1812092.11250255,1812093.15957519,4,1,94,8,8
38,275,676.15311499685,1,0,1812095.08900723,1812096.13607948,4,1,95,4,4
38,276,915.775529807433,1,0,1812097.87728255,1812098.92434595,4,1,70,8,4
38,277,1399.91475315765,0,0,1812100.94790209,1812101.99497127,4,0,87,0,4
38,278,921.711627626792,1,0,1812104.47735084,1812105.52442271,4,1,68,16,0
38,279,958.250197349116,0,0,1812107.61856491,1812108.66563486,4,0,74,4,0
38,280,609.914422035217,0,0,1812110.80683739,1812111.85390541,4,0,92,4,4
38,281,653.175949817523,0,0,1812113.57157157,1812114.61863883,4,0,67,0,4
38,282,774.005956714973,0,0,1812116.45396061,1812117.50102555,4,0,85,8,16
38,283,858.578415121883,1,0,1812119.39517784,1812120.44224355,4,1,97,0,8
38,284,1077.30283914134,0,0,1812122.33637698,1812123.38344423,4,0,67,0,0
38,285,818.155974382535,0,0,1812125.52464753,1812126.57172325,4,0,67,16,4
38,286,835.767938289791,0,0,1812128.40703464,1812129.45410074,4,0,61,16,0
38,287,661.363299703225,0,0,1812131.44236559,1812132.48943245,4,0,65,8,8
38,288,842.237207107246,1,0,1812134.33651826,1812135.38358474,4,1,81,0,0
38,289,1127.15027923696,1,0,1812137.24243072,1812138.28949874,4,1,88,0,4
38,290,1004.63298871182,0,0,1812140.46599372,1812141.51306713,4,0,81,16,16
38,291,715.121558168903,1,0,1812143.54840616,1812144.59545532,4,1,90,0,16
38,292,806.718399282545,0,0,1812146.32488628,1812147.37195584,4,0,95,8,0
38,293,696.666914504021,0,0,1812149.33670189,1812150.38376221,4,0,87,8,0
38,294,795.09488795884,0,0,1812152.16025811,1812153.20731997,4,0,92,0,0
38,295,838.203586405143,1,0,1812155.1602866,1812156.20735539,4,1,79,8,0
38,296,988.106614677235,1,0,1812158.05443542,1812159.10149882,4,1,98,16,0
38,297,841.78718784824,1,0,1812161.19570839,1812162.24272368,4,1,77,16,4
38,298,615.949840052053,1,0,1812164.20744047,1812165.25454775,4,1,97,0,16
38,299,1698.14785942435,1,0,1812166.92512511,1812167.97219198,4,1,66,16,8
38,300,638.629815075547,1,0,1812170.80752416,1812171.85460989,4,1,67,4,16
38,301,1093.89850636944,0,0,1812173.52519802,1812174.57226874,4,0,77,16,16
38,302,886.806447524577,1,0,1812176.76052889,1812177.80759922,4,1,84,8,0
38,303,822.85942719318,0,0,1812179.87821377,1812180.92528756,4,0,88,4,8
38,304,925.284065539017,0,0,1812182.79589564,1812183.84296751,4,0,99,8,16
38,305,887.840067734942,0,0,1812185.8312212,1812186.87834003,4,0,83,0,8
38,306,846.531831892207,1,0,1812188.91361247,1812189.96067933,4,1,99,4,4
38,307,1127.37009208649,1,0,1812191.8665918,1812192.91365558,4,1,93,4,8
38,308,898.98969209753,0,0,1812195.09015364,1812196.13723436,4,0,83,4,16
38,309,1243.45429986715,0,0,1812198.12548151,1812199.17254837,4,0,77,8,8
38,310,834.827478742227,1,0,1812201.44318709,1812202.49023086,4,1,63,8,4
38,311,1351.31997615099,0,0,1812204.51379625,1812205.56086273,4,0,74,16,4
38,312,630.821267142892,0,0,1812208.10211476,1812209.14914467,4,0,76,16,8
38,313,666.403593495488,0,0,1812210.92563249,1812211.97269782,4,0,78,16,8
38,314,825.936420354992,1,0,1812213.66684248,1812214.71391358,4,1,82,4,4
38,315,544.573458377272,1,0,1812216.65515776,1812217.70219537,4,1,74,16,8
38,316,730.144274653867,1,0,1812219.38454907,1812220.43161555,4,1,92,8,4
38,317,881.750755244866,0,0,1812222.25516446,1812223.3022448,4,0,78,8,8
38,318,761.363838799298,1,0,1812225.24344394,1812226.29051042,4,1,88,8,4
38,319,597.249976592138,1,0,1812228.14935832,1812229.19642211,4,1,68,0,4
38,320,799.52463391237,0,0,1812230.86709609,1812231.91410637,4,0,94,16,16
38,321,1576.18029299192,0,0,1812248.71430124,1812249.76136695,5,0,80,4,8
38,322,1136.67767797597,1,0,1812252.38492402,1812253.43200013,5,1,96,0,0
38,323,1182.43452277966,1,0,1812255.67907808,1812256.72615034,5,1,80,4,4
38,324,1104.18697306886,1,0,1812259.07912027,1812260.12618868,5,1,76,8,16
38,325,989.878974854946,0,0,1812262.36157729,1812263.40858873,5,0,62,8,8
38,326,999.510698020458,1,0,1812265.54978702,1812266.59685042,5,1,68,8,0
38,327,885.390561074018,1,0,1812268.69099416,1812269.73806103,5,1,68,4,4
38,328,2487.6080902759,1,0,1812271.70279514,1812272.74986316,5,1,70,4,0
38,329,923.835072433576,0,0,1812276.43226498,1812277.47933647,5,0,68,8,4
38,330,744.304678635672,1,0,1812279.45582498,1812280.50289338,5,1,94,4,4
38,331,1982.91695583612,1,0,1812282.38527203,1812283.43237777,5,1,89,16,8
38,332,564.822404878214,1,0,1812286.49121752,1812287.53832942,5,1,97,8,8
38,333,917.794265085831,0,0,1812289.27946974,1812290.326542,5,0,76,16,16
38,334,775.176622904837,0,0,1812292.40891286,1812293.45598512,5,0,96,16,0
38,335,1044.02142437175,0,0,1812295.2560056,1812296.30306438,5,0,69,16,0
38,336,943.569326307625,1,0,1812298.38545642,1812299.43252444,5,1,75,16,4
38,337,1099.40806776285,0,0,1812301.57372697,1812302.62079769,5,0,79,16,4
38,338,805.411071749404,1,0,1812304.83258781,1812305.87965853,5,1,73,0,8
38,339,787.759457016364,0,0,1812307.70325632,1812308.75027815,5,0,74,0,0
38,340,1017.4156173598,1,0,1812310.64441658,1812311.69148768,5,1,81,8,16
38,341,882.879075827077,0,0,1812313.77391437,1812314.82095159,5,0,64,4,8
38,342,764.022764051333,1,0,1812316.87978364,1812317.92684935,5,1,95,0,4
38,343,774.45520600304,0,0,1812319.79746436,1812320.844537,5,0,68,0,16
38,344,766.26439159736,0,0,1812322.69161818,1812323.73868775,5,0,87,8,8
38,345,703.602756140754,0,0,1812325.56223935,1812326.60930737,5,0,90,4,16
38,346,925.805687671527,0,0,1812328.32697816,1812329.37404387,5,0,81,8,4
38,347,660.016321344301,0,0,1812331.49171643,1812332.53878753,5,0,72,16,8
38,348,579.470169497654,0,0,1812334.26821772,1812335.31528381,5,0,69,0,0
38,349,516.296535963193,0,0,1812336.91531207,1812337.9623774,5,0,84,4,0
38,350,778.400670969859,0,0,1812339.52710473,1812340.57417198,5,0,84,16,8
38,351,618.495201924816,0,0,1812342.52713553,1812343.57420856,5,0,83,16,16
38,352,1920.76924350113,1,0,1812345.29188935,1812346.3389412,5,1,94,0,4
38,353,819.240409415215,0,0,1812349.42133632,1812350.46839973,5,0,86,0,0
38,354,816.912935348228,1,0,1812352.36254817,1812353.40961773,5,1,83,0,16
38,355,860.748055158183,0,0,1812355.40966777,1812356.45671693,5,0,86,16,0
38,356,1126.60401966423,1,0,1812358.45673541,1812359.50380767,5,1,98,8,16
38,357,847.158548189327,0,0,1812361.72735758,1812362.77442829,5,0,89,16,4
38,358,1092.26819663309,1,0,1812364.69209169,1812365.73916741,5,1,72,0,0
38,359,776.278381235898,1,0,1812367.99801477,1812369.04508741,5,1,80,16,16
38,360,585.174136096612,1,0,1812370.84510751,1812371.89218015,5,1,84,4,16
38,361,713.669100310653,1,0,1812373.6686722,1812374.71573483,5,1,68,4,16
38,362,853.79296541214,0,0,1812376.48047557,1812377.52757631,5,0,65,8,8
38,363,590.32914834097,0,0,1812379.4099103,1812380.45698409,5,0,75,16,0
38,364,858.348978217691,1,0,1812382.2217229,1812383.26877476,5,1,61,0,8
38,365,1012.25829543546,0,0,1812385.25704153,1812386.3041084,5,0,97,4,8
38,366,955.882302485406,1,0,1812388.35119644,1812389.39832297,5,1,90,4,8
38,367,910.806068684906,0,0,1812391.4924159,1812392.53947276,5,0,91,4,0
38,368,747.480991529301,1,0,1812394.58656157,1812395.63362728,5,1,73,4,8
38,369,752.705681603402,1,0,1812397.49247711,1812398.53953705,5,1,68,8,4
38,370,1020.09071130306,0,0,1812400.37485845,1812401.42192839,5,0,81,16,16
38,371,943.29484901391,1,0,1812403.58665742,1812404.63372968,5,1,91,16,16
38,372,751.526931300759,1,0,1812406.75140262,1812407.79845948,5,1,84,0,16
38,373,861.877530580387,1,0,1812409.7161402,1812410.76324479,5,1,83,4,4
38,374,672.527552582324,1,0,1812412.81029318,1812413.85736544,5,1,97,0,4
38,375,698.678335640579,1,0,1812415.62209039,1812416.66915918,5,1,80,0,16
38,376,1008.24084295891,0,0,1812418.55154051,1812419.59860931,5,0,81,8,4
38,377,900.857137516141,1,0,1812421.63392332,1812422.68099711,5,1,65,4,0
38,378,841.723284451291,1,0,1812424.68102598,1812425.72809516,5,1,98,8,0
38,379,1032.12497569621,0,0,1812427.64576433,1812428.69282812,5,0,87,0,4
38,380,599.369956413284,0,0,1812430.76343881,1812431.81050991,5,0,69,16,4
38,381,597.331203287467,0,0,1812433.46935443,1812434.51642053,5,0,68,0,8
38,382,794.240659568459,1,0,1812436.21056288,1812437.25764014,5,1,88,0,8
38,383,645.733499666676,1,0,1812439.09294769,1812440.1400184,5,1,77,8,4
38,384,637.870672158897,1,0,1812441.85769689,1812442.90475683,5,1,61,8,0
38,385,780.951037304476,1,0,1812444.61066089,1812445.6577678,5,1,91,8,16
38,386,1007.01243244112,0,0,1812447.6106967,1812448.65776356,5,0,81,8,0
38,387,912.949531339109,0,0,1812450.7754315,1812451.82250491,5,0,71,16,8
38,388,807.983380975202,0,0,1812453.86958294,1812454.91669138,5,0,71,8,16
38,389,989.539824426174,0,0,1812456.85786473,1812457.90493121,5,0,99,4,0
38,390,780.979139497504,1,0,1812459.9755446,1812461.02262186,5,1,92,0,8
38,391,984.19425659813,0,0,1812462.89321916,1812463.94029219,5,0,61,4,4
38,392,1041.84947465546,1,0,1812465.97561274,1812467.02267922,5,1,80,8,8
38,393,1252.81347078271,0,0,1812469.12859122,1812470.17565886,5,0,98,8,0
38,394,2635.59709279798,0,0,1812472.48157271,1812473.52863341,5,0,96,4,16
38,395,808.986589079723,1,0,1812477.29344498,1812478.3404541,5,1,80,16,0
38,396,925.297924084589,0,0,1812480.21106795,1812481.25813289,5,0,71,16,4
38,397,918.104928685352,1,0,1812483.25815484,1812484.30522748,5,1,94,16,8
38,398,990.453721489757,0,0,1812486.37587243,1812487.42291774,5,0,61,0,4
38,399,788.746496662498,0,0,1812489.45823522,1812490.50533866,5,0,80,4,16
38,400,1127.87516089156,1,0,1812492.41120569,1812493.45831067,5,1,95,0,16
38,401,1099.12281157449,1,0,1812519.84681481,1812520.89388938,6,1,90,16,0
38,402,548.446165630594,1,0,1812523.12921062,1812524.17627326,6,1,93,0,4
38,403,1410.14586063102,1,0,1812525.85865429,1812526.90572192,6,1,69,0,16
38,404,1663.13142539002,0,0,1812529.31751158,1812530.36458384,6,0,84,4,0
38,405,497.177834622562,0,0,1812533.21168158,1812534.25874652,6,0,77,16,8
38,406,792.276203865185,1,0,1812535.82347039,1812536.87056228,6,1,75,8,8
38,407,689.602111000568,0,0,1812538.79997315,1812539.84704309,6,0,89,0,8
38,408,725.106675410643,0,0,1812541.67059739,1812542.7176658,6,0,92,8,4
38,409,1810.3505061008,1,0,1812544.5882758,1812545.63534536,6,1,79,8,4
38,410,555.503654759377,1,0,1812548.55304109,1812549.60009487,6,1,73,0,0
38,411,1070.17297716811,0,0,1812551.34129794,1812552.38836249,6,0,71,0,0
38,412,824.429683154449,0,0,1812554.55310038,1812555.60016994,6,0,80,16,4
38,413,926.96249531582,1,0,1812557.54136253,1812558.58847944,6,1,66,16,16
38,414,931.688661221415,0,0,1812560.57675315,1812561.62377035,6,0,69,8,0
38,415,1494.02615940198,1,0,1812563.58849908,1812564.63560059,6,1,65,16,0
38,416,863.30304085277,1,0,1812567.30618141,1812568.35325598,6,1,91,8,16
38,417,618.798166280612,1,0,1812570.34154354,1812571.38865622,6,1,62,4,0
38,418,779.815017478541,1,0,1812573.18863897,1812574.23566811,6,1,96,8,8
38,419,791.477794758976,0,0,1812576.12981771,1812577.17688419,6,0,86,8,4
38,420,869.466265896335,1,0,1812578.98866792,1812580.03573479,6,1,70,16,0
38,421,831.242337357253,0,0,1812582.02399848,1812583.07106689,6,0,85,0,16
38,422,1191.64432887919,0,0,1812584.94168305,1812585.98875146,6,0,93,16,8
38,423,557.882328750566,0,0,1812588.36524713,1812589.41235557,6,0,87,4,8
38,424,1036.35338693857,1,0,1812591.09467886,1812592.14176997,6,1,80,4,16
38,425,1371.34872516617,1,0,1812594.20061241,1812595.24767312,6,1,63,4,4
38,426,1301.51565186679,1,0,1812597.75359151,1812598.800663,6,1,94,0,16
38,427,1462.77002408169,0,0,1812601.22423131,1812602.27129548,6,0,100,8,0
38,428,1104.74632121623,0,0,1812604.93019928,1812605.97721379,6,0,83,8,4
38,429,1496.30320351571,0,0,1812608.25958882,1812609.306663,6,0,94,4,8
38,430,1076.74233615398,0,0,1812611.9302243,1812612.97729502,6,0,98,0,16
38,431,1266.21088199317,0,0,1812615.25966889,1812616.30674038,6,0,61,0,4
38,432,831.550306174904,0,0,1812618.77735938,1812619.8244378,6,0,93,4,4
38,433,1371.49847485125,0,0,1812621.77739018,1812622.8244686,6,0,100,4,16
38,434,665.033517638221,0,0,1812625.36566635,1812626.41273707,6,0,80,0,8
38,435,905.11596063152,1,0,1812628.21276024,1812629.25984867,6,1,83,4,16
38,436,1128.05262766778,0,0,1812631.27162077,1812632.31869303,6,0,70,8,0
38,437,1247.52949667163,1,0,1812634.55401504,1812635.60107729,6,1,72,16,4
38,438,929.72690006718,1,0,1812637.95405916,1812639.00111525,6,1,61,8,16
38,439,910.081572132185,1,0,1812640.977613,1812642.02467717,6,1,74,16,4
38,440,1303.31110977568,1,0,1812644.00117338,1812645.04824833,6,1,84,8,0
38,441,1055.2857669536,1,0,1812647.4482809,1812648.49534083,6,1,81,4,0
38,442,718.522303272039,1,0,1812650.70714058,1812651.75420706,6,1,74,16,4
38,443,948.666209354997,1,0,1812653.51893124,1812654.56600812,6,1,83,0,4
38,444,1393.1879454758,1,0,1812656.64838091,1812657.69545047,6,1,100,0,8
38,445,912.165365880355,1,0,1812660.26018358,1812661.3072593,6,1,63,16,8
38,446,1159.12013221532,0,0,1812663.30728856,1812664.35435466,6,0,85,0,8
38,447,883.990457979962,1,0,1812666.66025849,1812667.70734115,6,1,78,16,16
38,448,939.941839082167,0,0,1812669.75442264,1812670.80149105,6,0,89,0,0
38,449,807.607658905908,0,0,1812672.94267817,1812673.98975621,6,0,75,0,8
38,450,987.060675863177,0,0,1812675.86037006,1812676.90743461,6,0,71,16,0
38,451,775.173158152029,0,0,1812678.97806071,1812680.02511949,6,0,61,8,16
38,452,1026.6619946342,0,0,1812682.00161146,1812683.04868872,6,0,62,16,8
38,453,1043.82316954434,0,0,1812685.16640055,1812686.21342507,6,0,89,16,16
38,454,979.697142494842,1,0,1812688.41350583,1812689.46052189,6,1,72,0,4
38,455,916.079648770392,0,0,1812691.48407765,1812692.53114028,6,0,75,0,4
38,456,754.23474656418,0,0,1812694.54293086,1812695.5899985,6,0,69,8,16
38,457,1519.66340444051,0,0,1812697.37828691,1812698.42533684,6,0,69,4,4
38,458,999.825211241841,1,0,1812701.03712681,1812702.08419175,6,1,87,4,16
38,459,909.692761721089,1,0,1812704.17833665,1812705.22539966,6,1,78,4,8
38,460,1513.71614262462,0,0,1812707.28430677,1812708.33132129,6,0,74,8,0
38,461,997.987792594358,1,0,1812710.84900062,1812711.8960748,6,1,83,4,4
38,462,1676.15888942964,1,0,1812714.01373735,1812715.06081037,6,1,84,8,8
38,463,951.258151559159,0,0,1812717.7785212,1812718.82557882,6,0,68,16,0
38,464,1056.18426576257,0,0,1812720.97858926,1812722.025598,6,0,100,16,8
38,465,1468.24763366021,1,0,1812724.22561794,1812725.27269289,6,1,61,4,8
38,466,1102.62865084223,1,0,1812727.80213085,1812728.84920388,6,1,100,4,4
38,467,789.71775341779,1,0,1812730.95511549,1812732.00217851,6,1,93,0,16
38,468,643.20969581604,1,0,1812733.99044683,1812735.03750599,6,1,82,8,16
38,469,1194.08729113638,0,0,1812736.79047577,1812737.83754341,6,0,76,4,0
38,470,1034.9163278006,0,0,1812740.22581003,1812741.27287343,6,0,82,4,16
38,471,921.028706943616,1,0,1812743.34349452,1812744.39055562,6,1,95,16,16
38,472,1140.22624818608,0,0,1812746.5082274,1812747.55529966,6,0,80,8,8
38,473,546.282685128972,0,0,1812749.81414972,1812750.86121851,6,0,87,0,0
38,474,818.685295758769,1,0,1812752.53182897,1812753.57889315,6,1,76,16,16
38,475,784.144673496485,1,0,1812755.5083298,1812756.55539975,6,1,96,4,8
38,476,1133.32428294234,0,0,1812758.36718848,1812759.41425959,6,0,91,0,0
38,477,1214.62149382569,1,0,1812761.59077266,1812762.63783683,6,1,90,16,4
38,478,984.603085089475,0,0,1812764.94374413,1812765.99080638,6,0,93,4,0
38,479,747.935630381107,0,0,1812768.06141977,1812769.10849164,6,0,91,8,8
38,480,1106.64032911882,1,0,1812770.99086181,1812772.03793561,6,1,100,8,4
38,481,1551.96586367674,1,0,1812780.67332984,1812781.72040095,7,1,63,16,4
38,482,684.619176201522,1,0,1812784.46160901,1812785.50867203,7,1,89,16,8
38,483,692.963975016028,1,0,1812787.28517525,1812788.33224019,7,1,70,4,8
38,484,880.753321340308,1,0,1812790.1793618,1812791.22638516,7,1,83,8,4
38,485,837.810926139355,1,0,1812793.28522953,1812794.33233489,7,1,94,16,8
38,486,845.755750546232,0,0,1812796.33233758,1812797.37942023,7,0,83,0,16
38,487,1168.37497870438,1,0,1812799.30883995,1812800.35590258,7,1,87,0,4
38,488,1282.57557260804,0,0,1812802.68534294,1812803.73241635,7,0,71,4,16
38,489,618.220724631101,0,0,1812806.10891433,1812807.1559835,7,0,87,0,0
38,490,1548.84921968915,1,0,1812808.95600591,1812810.00307508,7,1,67,8,4
38,491,1181.51485128328,0,0,1812812.74428238,1812813.79135772,7,0,70,0,0
38,492,929.115582024679,0,0,1812816.16785262,1812817.21491602,7,0,100,4,0
38,493,1718.99734507315,1,0,1812819.2149422,1812820.26206912,7,1,91,8,8
38,494,971.850868314505,0,0,1812823.10916532,1812824.15617406,7,0,89,16,16
38,495,907.754868268967,1,0,1812826.16800737,1812827.21503728,7,1,71,16,8
38,496,1359.83300278895,0,0,1812829.16800737,1812830.21509811,7,0,70,16,8
38,497,941.846240777522,1,0,1812832.72098609,1812833.76806296,7,1,70,0,0
38,498,553.503782721236,1,0,1812835.75631164,1812836.80338813,7,1,63,4,16
38,499,772.286720806733,0,0,1812838.49752549,1812839.54458773,7,0,78,8,8
38,500,909.654650371522,1,0,1812841.52108818,1812842.56815235,7,1,78,16,16
38,501,1529.39329273067,1,0,1812844.50935572,1812845.55642644,7,1,81,16,0
38,502,862.178185023367,0,0,1812848.21527866,1812849.26234129,7,0,67,0,4
38,503,810.487552080303,0,0,1812851.18001739,1812852.22708926,7,0,95,8,4
38,504,900.85790771991,0,0,1812854.20358585,1812855.25071508,7,0,100,8,0
38,505,708.455574000254,0,0,1812857.18008437,1812858.22715278,7,0,71,4,16
38,506,1162.85733319819,1,0,1812860.00368563,1812861.05072401,7,1,74,8,16
38,507,804.584945552051,1,0,1812863.34486152,1812864.39193224,7,1,89,4,16
38,508,960.669292137027,0,0,1812866.40373899,1812867.45078276,7,0,71,0,4
38,509,918.988029006869,1,0,1812869.52140847,1812870.56847841,7,1,63,0,16
38,510,822.86943634972,1,0,1812872.61555644,1812873.66267066,7,1,65,8,8
38,511,719.886989798397,1,0,1812875.58029787,1812876.62736705,7,1,70,8,0
38,512,1064.34928788804,0,0,1812878.35683111,1812879.40387103,7,0,99,4,4
38,513,833.901647478342,0,0,1812881.62749062,1812882.67450398,7,0,78,4,4
38,514,681.382809532806,0,0,1812884.60392947,1812885.65100018,7,0,88,8,0
38,515,1009.93390101939,1,0,1812887.34513831,1812888.39221249,7,1,72,16,0
38,516,963.506069499999,0,0,1812890.42753073,1812891.47459182,7,0,62,8,16
38,517,967.913487460464,1,0,1812893.65109527,1812894.69815983,7,1,83,8,4
38,518,865.821070503443,0,0,1812896.68641775,1812897.73349077,7,0,93,0,16
38,519,978.557273047045,1,0,1812899.78057111,1812900.82763952,7,1,95,8,8
38,520,818.659888347611,1,0,1812902.88649967,1812903.93356576,7,1,87,8,0
38,521,1367.77397757396,0,0,1812905.7571139,1812906.8042235,7,0,80,16,0
38,522,537.522898288444,0,0,1812909.2395081,1812910.28657689,7,0,77,0,8
38,523,756.819759495556,0,0,1812911.91017785,1812912.95719852,7,0,71,4,8
38,524,483.008961658925,0,0,1812914.92192377,1812915.96899873,7,0,65,0,8
38,525,980.750780552626,1,0,1812917.61612426,1812918.66314878,7,1,61,16,0
38,526,931.51658331044,0,0,1812920.85140432,1812921.89847465,7,0,85,8,16
38,527,1443.36914666928,1,0,1812923.99261608,1812925.0396791,7,1,61,8,16
38,528,1324.4766483549,1,0,1812927.51030696,1812928.55736921,7,1,62,16,8
38,529,1777.62497472577,1,0,1812930.92210548,1812931.9691735,7,1,89,0,4
38,530,1136.59067684785,0,0,1812934.82803295,1812935.8751079,7,0,81,4,0
38,531,963.48335663788,1,0,1812938.1221847,1812939.16925349,7,1,66,4,8
38,532,1002.3062848486,0,0,1812941.16928467,1812942.21635193,7,0,72,16,4
38,533,613.939958857372,0,0,1812944.29873011,1812945.34584432,7,0,94,4,0
38,534,1116.31709290668,1,0,1812947.16934973,1812948.21641583,7,1,84,0,16
38,535,656.803822144866,1,0,1812950.39291389,1812951.43998306,7,1,67,0,8
38,536,1010.77157631516,0,0,1812953.0988807,1812954.14590215,7,0,77,16,4
38,537,855.542227858678,0,0,1812956.34593325,1812957.3930005,7,0,70,8,0
38,538,691.618921468034,0,0,1812959.4518464,1812960.49891751,7,0,78,4,0
38,539,674.840783001855,0,0,1812962.26366902,1812963.31071664,7,0,77,16,0
38,540,751.324056647718,0,0,1812965.09897001,1812966.14603804,7,0,93,0,8
38,541,633.317738771439,0,0,1812967.89900166,1812968.94607353,7,0,73,8,16
38,542,679.491881281137,0,0,1812970.75785726,1812971.80493029,7,0,98,0,0
38,543,1109.32735679671,1,0,1812973.60494807,1812974.65202148,7,1,85,4,16
38,544,841.796041931957,0,0,1812976.8756403,1812977.92264904,7,0,77,8,8
38,545,827.160211279988,1,0,1812979.80501998,1812980.85209263,7,1,61,0,4
38,546,849.420963786542,0,0,1812982.72270301,1812983.76977411,7,0,80,4,4
38,547,931.0908166226,1,0,1812985.65214583,1812986.699215,7,1,100,4,4
38,548,797.057803720236,0,0,1812988.80512354,1812989.85219195,7,0,96,0,8
38,549,883.123910985887,1,0,1812991.71103639,1812992.75811095,7,1,71,16,16
38,550,992.787355091423,0,0,1812994.8522493,1812995.89933542,7,0,76,16,4
38,551,777.983758132905,1,0,1812998.00522933,1812999.05230851,7,1,86,16,4
38,552,1324.41697944887,1,0,1813001.02879394,1813002.0758662,7,1,100,16,16
38,553,748.745973221958,1,0,1813004.49942296,1813005.54649406,7,1,83,16,16
38,554,662.403464084491,1,0,1813007.34651801,1813008.3936072,7,1,84,4,8
38,555,636.941761244088,1,0,1813010.22890281,1813011.27596852,7,1,72,0,16
38,556,605.303359683603,1,0,1813013.0877561,1813014.13483105,7,1,74,4,4
38,557,942.355929175392,0,0,1813015.79366903,1813016.84074244,7,0,83,4,8
38,558,719.120917376131,1,0,1813018.99370359,1813020.04077662,7,1,76,4,0
38,559,766.802951926365,0,0,1813021.92315911,1813022.97021867,7,0,85,0,0
38,560,681.917905109003,0,0,1813024.84083098,1813025.88790323,7,0,72,8,4
38,561,640.546920476481,1,0,1813037.12332457,1813038.17039721,8,1,77,0,16
38,562,781.424154294655,0,0,1813039.92341396,1813040.97042924,8,0,78,16,0
38,563,775.354859651998,0,0,1813042.77045549,1813043.81752352,8,0,92,0,16
38,564,565.195817034692,0,0,1813045.77048552,1813046.81755816,8,0,93,0,16
38,565,949.869982199743,1,0,1813048.46463943,1813049.51170629,8,1,80,16,0
38,566,807.385921711102,0,0,1813051.64113979,1813052.68821628,8,0,87,4,8
38,567,616.440665442497,0,0,1813054.54705995,1813055.59412413,8,0,87,16,0
38,568,730.536164948717,0,0,1813057.39414692,1813058.44121532,8,0,61,8,8
38,569,951.218115631491,0,0,1813060.182413,1813061.22948333,8,0,80,16,8
38,570,1360.21988862194,0,0,1813063.30009287,1813064.34717398,8,0,93,4,0
38,571,1380.23477885872,0,0,1813066.90014499,1813067.94721301,8,0,75,8,4
38,572,836.192935239524,1,0,1813070.40606685,1813071.45313256,8,1,88,16,16
38,573,760.245142038912,0,0,1813073.35904117,1813074.40610765,8,0,66,8,4
38,574,1636.72656822018,1,0,1813076.24142559,1813077.28853326,8,1,71,0,8
38,575,701.586715644225,1,0,1813080.02970014,1813081.07677163,8,1,95,4,16
38,576,948.303190991282,0,0,1813082.92383665,1813083.9709293,8,0,81,8,4
38,577,619.520352920517,0,0,1813086.08867693,1813087.13567527,8,0,95,0,0
38,578,701.005424605682,0,0,1813088.75921925,1813089.80628574,8,0,78,8,16
38,579,506.370702525601,0,0,1813091.52398693,1813092.57103032,8,0,84,0,4
38,580,1110.03260524012,0,0,1813094.26516498,1813095.31222453,8,0,70,8,4
38,581,1933.79824701697,1,0,1813097.45343321,1813098.50050047,8,1,83,16,0
38,582,835.507319774479,1,0,1813101.441715,1813102.48879573,8,1,64,4,8
38,583,821.620238013566,0,0,1813104.40645797,1813105.45351829,8,0,73,0,8
38,584,964.771051192656,0,0,1813107.46536007,1813108.51237728,8,0,84,0,8
38,585,956.15947432816,1,0,1813110.53594074,1813111.58300799,8,1,68,4,4
38,586,726.098719751462,1,0,1813113.54773364,1813114.59479627,8,1,86,0,16
38,587,968.411626992747,1,0,1813116.40659578,1813117.4536588,8,1,78,8,8
38,588,657.723493874073,1,0,1813119.43016078,1813120.47722034,8,1,64,4,0
38,589,959.763478953391,0,0,1813122.24194721,1813123.28908222,8,0,76,16,4
38,590,640.977306989953,0,0,1813125.30080582,1813126.34787769,8,0,67,16,8
38,591,585.452077910304,0,0,1813128.12437628,1813129.17144585,8,0,67,0,8
38,592,510.671871481463,0,0,1813130.83029152,1813131.87735261,8,0,76,4,4
38,593,848.196403123438,1,0,1813133.41855113,1813134.46562377,8,1,84,8,16
38,594,735.07947428152,0,0,1813136.46564302,1813137.51272952,8,0,86,8,0
38,595,1379.62461565621,1,0,1813139.3480309,1813140.39509931,8,1,82,8,16
38,596,1112.65341937542,0,0,1813142.90104734,1813143.94808303,8,0,97,0,16
38,597,1152.67242095433,1,0,1813146.10105496,1813147.14811529,8,1,84,8,0
38,598,1158.46685343422,0,0,1813149.50109254,1813150.54815825,8,0,88,16,16
38,599,884.137513116002,0,0,1813152.8423585,1813153.88936801,8,0,61,0,0
38,600,773.367691319436,1,0,1813155.79528124,1813156.84234464,8,1,85,16,4
38,601,809.417360462248,1,0,1813158.65413762,1813159.70120333,8,1,100,4,4
38,602,894.626929424703,0,0,1813161.67769299,1813162.724828,8,0,93,4,0
38,603,764.445066219196,1,0,1813164.81897366,1813165.86598202,8,1,66,4,8
38,604,578.536638990045,1,0,1813167.81894672,1813168.86601512,8,1,76,16,8
38,605,1275.09347116575,0,0,1813170.50131273,1813171.54840655,8,0,100,16,16
38,606,772.930375766009,1,0,1813173.85431077,1813174.90138303,8,1,75,0,8
38,607,869.49590803124,0,0,1813176.83081391,1813177.87788309,8,0,62,0,4
38,608,766.816810704768,1,0,1813179.85437583,1813180.90150237,8,1,96,4,4
38,609,836.771146627143,1,0,1813182.74853543,1813183.79560576,8,1,69,0,4
38,610,1605.80419399776,1,0,1813185.74856276,1813186.79564388,8,1,91,8,4
38,611,639.189548324794,1,0,1813189.57214093,1813190.61920587,8,1,96,16,8
38,612,843.64539431408,1,0,1813192.3604047,1813193.40747503,8,1,98,4,4
38,613,654.251145897433,1,0,1813195.44280098,1813196.48985899,8,1,71,4,8
38,614,1093.99089682847,0,0,1813198.26635951,1813199.31346179,8,0,89,8,16
38,615,1069.80187492445,1,0,1813201.41933799,1813202.46640293,8,1,92,0,0
38,616,832.352564670146,1,0,1813204.60760238,1813205.6546731,8,1,92,0,0
38,617,1271.85902930796,1,0,1813207.53703288,1813208.58410706,8,1,72,16,4
38,618,627.596064005047,1,0,1813210.91355703,1813211.96063121,8,1,64,8,16
38,619,622.931107180193,1,0,1813213.64299723,1813214.69007488,8,1,96,8,8
38,620,814.126973040402,1,0,1813216.45480175,1813217.50187016,8,1,87,16,4
38,621,800.722632324323,0,0,1813219.43131682,1813220.47837368,8,0,66,0,4
38,622,604.60696532391,0,0,1813222.29021708,1813223.33722312,8,0,79,0,0
38,623,720.922534819692,0,0,1813225.05489891,1813226.10195577,8,0,81,8,8
38,624,700.869148364291,0,0,1813228.00787401,1813229.05494126,8,0,93,16,16
38,625,1073.58488650061,1,0,1813230.89025612,1813231.93732953,8,1,85,4,0
38,626,694.133486365899,0,0,1813234.17265039,1813235.21972072,8,0,83,16,16
38,627,674.898141995072,0,0,1813237.06679844,1813238.11387493,8,0,70,0,4
38,628,882.307023741305,1,0,1813239.84330397,1813240.89036506,8,1,70,4,8
38,629,1096.6070916038,1,0,1813242.90216527,1813243.94922867,8,1,82,8,0
38,630,698.486240115017,0,0,1813246.0551372,1813247.10221139,8,0,77,8,8
38,631,615.329668158665,0,0,1813248.84340213,1813249.89047554,8,0,76,4,16
38,632,973.903864854947,1,0,1813251.58460982,1813252.63168361,8,1,84,16,8
38,633,682.838731911033,1,0,1813254.784644,1813255.83175937,8,1,88,16,0
38,634,614.838457899168,1,0,1813257.67886019,1813258.72586701,8,1,63,4,0
38,635,864.497190108523,0,0,1813260.36118348,1813261.40825304,8,0,62,4,16
38,636,627.663432387635,1,0,1813263.38474155,1813264.43180765,8,1,67,4,16
38,637,1032.43294451386,0,0,1813266.22007719,1813267.26714214,8,0,68,8,0
38,638,1008.10649152845,1,0,1813269.36128511,1813270.40835736,8,1,66,4,16
38,639,759.847862413153,1,0,1813272.50250149,1813273.54959261,8,1,62,8,0
38,640,924.416748574004,0,0,1813275.43194392,1813276.47901772,8,0,74,16,4
38,641,1079.50135134161,0,0,1813284.5967561,1813285.64382374,9,0,96,16,4
38,642,1513.00550461747,1,0,1813287.92620531,1813288.97327718,9,1,81,4,8
38,643,595.880285371095,1,0,1813291.62037153,1813292.66744071,9,1,96,0,16
38,644,1708.53949547745,1,0,1813294.30275757,1813295.34981674,9,1,74,0,4
38,645,829.00571404025,0,0,1813298.09103173,1813299.13809475,9,0,69,8,0
38,646,467.738330364227,0,0,1813301.03224512,1813302.07930929,9,0,65,16,8
38,647,803.229497978464,1,0,1813303.59697207,1813304.64404779,9,1,80,4,16
38,648,605.541265569627,0,0,1813306.46759323,1813307.51466164,9,0,75,16,8
38,649,1089.63159914128,0,0,1813309.17356121,1813310.22057764,9,0,77,16,16
38,650,1181.37664999813,1,0,1813312.31472254,1813313.36179018,9,1,86,16,16
38,651,1062.825612491,0,0,1813315.73828662,1813316.78535926,9,0,71,8,0
38,652,1034.20761460438,0,0,1813319.02070052,1813320.06774622,9,0,96,8,0
38,653,799.115035217255,0,0,1813322.26777424,1813323.31484111,9,0,64,8,16
38,654,818.899333942682,1,0,1813325.25608375,1813326.30312059,9,1,99,8,8
38,655,979.647482512519,1,0,1813328.19725902,1813329.24432473,9,1,83,4,8
38,656,656.289514387026,1,0,1813331.27964182,1813332.32671677,9,1,84,8,4
38,657,1012.23250315525,0,0,1813334.13850628,1813335.18557045,9,0,79,8,4
38,658,829.32908134535,1,0,1813337.24442212,1813338.29148245,9,1,65,16,4
38,659,815.841204021126,0,0,1813340.27974537,1813341.32681493,9,0,88,0,16
38,660,689.197902102023,0,0,1813343.15035653,1813344.19743802,9,0,62,4,16
38,661,1138.16786184907,1,0,1813345.99745812,1813347.04452614,9,1,61,8,0
38,662,745.731728849933,1,0,1813349.23279707,1813350.27985855,9,1,83,0,4
38,663,930.590752279386,0,0,1813352.17399621,1813353.22107078,9,0,87,16,8
38,664,651.747359894216,0,0,1813355.24462731,1813356.29176308,9,0,94,8,8
38,665,858.487179502845,1,0,1813358.02113129,1813359.06819739,9,1,85,4,4
38,666,2554.2121110484,0,0,1813361.00939383,1813362.0564684,9,0,62,16,16
38,667,723.077931208536,1,0,1813365.80945281,1813366.85652622,9,1,87,16,0
38,668,963.939920300618,1,0,1813368.76243137,1813369.80949439,9,1,91,8,16
38,669,588.800853351131,1,0,1813371.8095248,1813372.85661245,9,1,65,0,8
38,670,876.345133176073,0,0,1813374.49190814,1813375.53897308,9,0,78,4,16
38,671,809.254137100652,1,0,1813377.53899541,1813378.58606959,9,1,96,0,8
38,672,1120.43348024599,0,0,1813380.53902967,1813381.58610231,9,0,87,8,0
38,673,795.707745943218,0,0,1813383.91554728,1813384.96261607,9,0,98,4,4
38,674,1135.95472136512,0,0,1813386.83322453,1813387.88029641,9,0,100,8,8
38,675,983.10173721984,1,0,1813390.03327566,1813391.08034098,9,1,81,0,4
38,676,844.604332232848,0,0,1813393.22154158,1813394.2685969,9,0,97,16,0
38,677,676.901479018852,0,0,1813396.23337259,1813397.28039673,9,0,89,0,8
38,678,862.783343764022,0,0,1813399.12748099,1813400.17455248,9,0,71,8,16
38,679,999.332461040467,1,0,1813402.06873172,1813403.11577741,9,1,72,16,16
38,680,1021.22057159431,0,0,1813405.26872587,1813406.3157962,9,0,81,4,16
38,681,1097.9352069553,1,0,1813408.39816629,1813409.44524548,9,1,83,16,8
38,682,1418.35245862603,0,0,1813411.68056326,1813412.72763051,9,0,69,8,4
38,683,862.493852851912,0,0,1813415.23353466,1813416.28060999,9,0,92,8,8
38,684,802.203962113708,0,0,1813418.28063656,1813419.32770458,9,0,94,4,0
38,685,924.053345341235,1,0,1813421.31597366,1813422.36304169,9,1,75,16,0
38,686,711.008635116741,1,0,1813424.46894907,1813425.51602132,9,1,78,0,0
38,687,794.735334580764,1,0,1813427.31608107,1813428.36309481,9,1,97,0,16
38,688,927.756669698283,0,0,1813430.21018524,1813431.25725711,9,0,85,16,4
38,689,833.616006653756,1,0,1813433.36316487,1813434.41022981,9,1,94,0,0
38,690,858.474475564435,0,0,1813436.4102583,1813437.45733017,9,0,82,0,0
38,691,1476.12201003358,0,0,1813439.49264688,1813440.53972029,9,0,65,4,4
38,692,816.128769889474,1,0,1813443.19856557,1813444.24564284,9,1,64,4,8
38,693,1652.62045129202,0,0,1813446.06919405,1813447.11626323,9,0,72,4,0
38,694,855.037159286439,1,0,1813449.85747015,1813450.90454125,9,1,96,16,16
38,695,799.330613343045,0,0,1813452.91632837,1813453.9633987,9,0,73,16,8
38,696,1454.42715007812,1,0,1813455.88108981,1813456.92816284,9,1,70,4,4
38,697,656.44426853396,1,0,1813459.58699657,1813460.63406152,9,1,94,0,0
38,698,915.184229845181,0,0,1813462.3282108,1813463.37527036,9,0,61,16,4
38,699,716.947427950799,0,0,1813465.31646911,1813466.36353675,9,0,94,0,4
38,700,923.047827323899,0,0,1813468.17532702,1813469.22240274,9,0,79,4,8
38,701,654.252300970256,0,0,1813471.32831012,1813472.37537391,9,0,65,4,0
38,702,974.654923891649,1,0,1813474.15186866,1813475.19893899,9,1,63,8,4
38,703,745.281324489042,1,0,1813477.24601817,1813478.29309004,9,1,78,4,8
38,704,1428.64477471448,1,0,1813480.22255673,1813481.26960473,9,1,67,0,16
38,705,1623.71026794426,0,0,1813483.72850861,1813484.77551658,9,0,98,0,4
38,706,987.154606031254,1,0,1813487.49324973,1813488.54030235,9,1,100,0,16
38,707,864.307404030114,0,0,1813490.56381884,1813491.61088687,9,0,79,4,16
38,708,854.647578904405,0,0,1813493.62267822,1813494.66974932,9,0,72,8,8
38,709,1062.54189624451,0,0,1813496.63451308,1813497.68155261,9,0,88,0,8
38,710,950.204128399491,1,0,1813499.9168677,1813500.96393803,9,1,62,8,16
38,711,762.328550685197,1,0,1813502.92867175,1813503.97573824,9,1,93,16,0
38,712,1491.05156608857,1,0,1813505.85810726,1813506.90518182,9,1,70,0,0
38,713,655.605823500082,1,0,1813509.58756478,1813510.63464242,9,1,64,4,0
38,714,895.623978227377,1,0,1813512.49348532,1813513.54055488,9,1,87,4,0
38,715,1666.53063078411,1,0,1813515.49352266,1813516.54058799,9,1,81,0,8
38,716,930.819418979809,1,0,1813519.36416115,1813520.41127152,9,1,73,16,0
38,717,1136.63186784834,0,0,1813522.36424353,1813523.41125189,9,0,72,8,4
38,718,1185.94960146584,1,0,1813525.63480719,1813526.68188291,9,1,100,16,4
38,719,985.156658804044,0,0,1813529.04660262,1813530.09369682,9,0,78,4,4
38,720,1137.42219260894,1,0,1813532.10547509,1813533.15254503,9,1,62,8,16
