sub_id,Trial,RT,Resp,Error,Fix_onset,Disp_onset,block,tid,tloc,fish_setsize,bird_setsize
1,1,463.030411745422,1,0,1024144.27556416,1024145.32269069,1,1,77,8,0
1,2,580.040835775435,0,0,1024146.9345053,1024147.98149556,1,0,72,0,8
1,3,499.798803124577,1,0,1024149.72270478,1024150.76976972,1,1,96,4,0
1,4,769.982883823104,0,0,1024152.33450053,1024153.38160242,1,0,70,0,0
1,5,513.008353533223,0,0,1024155.24041915,1024156.28755377,1,0,86,16,8
1,6,580.620202003047,0,0,1024157.82868415,1024158.8757668,1,0,77,4,16
1,7,431.680345907807,1,0,1024160.4757812,1024161.52284922,1,1,69,8,16
1,8,354.727034922689,0,0,1024163.13464381,1024164.18171029,1,0,66,8,4
1,9,502.948168665171,1,0,1024165.60526012,1024166.65232968,1,1,64,8,0
1,10,672.207804047503,0,0,1024168.31117189,1024169.35824761,1,0,75,8,8
1,11,556.807671790011,0,0,1024171.15828003,1024172.20534266,1,0,99,16,16
1,12,603.69206732139,0,0,1024173.79359765,1024174.84066991,1,0,72,0,0
1,13,642.904575681314,1,0,1024176.55837765,1024177.60541372,1,1,62,16,16
1,14,631.252962280996,0,0,1024179.33484122,1024180.3819127,1,0,84,16,4
1,15,1187.06267769448,1,0,1024182.13487786,1024183.18195166,1,1,100,8,4
1,16,567.044168710709,0,0,1024185.42903924,1024186.47610611,1,0,71,0,0
1,17,532.265255576931,0,0,1024188.0996601,1024189.14673659,1,0,87,0,8
1,18,811.986359069124,1,0,1024190.68793318,1024191.7349989,1,1,81,4,0
1,19,768.032671534456,0,0,1024193.64090943,1024194.68797553,1,0,80,4,16
1,20,531.988083734177,1,0,1024196.53506596,1024197.5821667,1,1,81,4,4
1,21,543.655480607413,1,0,1024199.18215377,1024200.22922487,1,1,94,8,4
1,22,540.878757252358,0,0,1024201.94688911,1024202.99396752,1,0,93,16,4
1,23,1010.22508565802,1,0,1024204.6528105,1024205.69988083,1,1,64,0,16
1,24,713.511805399321,1,0,1024207.82932627,1024208.87639275,1,1,96,8,8
1,25,670.405031880364,0,0,1024210.72347817,1024211.7705512,1,0,81,8,16
1,26,401.118680252694,0,0,1024213.51174425,1024214.55882151,1,0,61,4,16
1,27,898.499405942857,0,0,1024216.02942589,1024217.07649545,1,0,76,4,4
1,28,615.965392673388,1,0,1024219.11181524,1024220.15893369,1,1,93,4,8
1,29,571.418865118176,0,0,1024221.79421282,1024222.84128277,1,0,78,4,0
1,30,560.567970387638,0,0,1024224.54718491,1024225.59425409,1,0,89,8,16
1,31,435.273186652921,1,0,1024227.28839722,1024228.33547024,1,1,99,0,4
1,32,687.767156166956,1,0,1024229.91197931,1024230.95903001,1,1,92,4,4
1,33,485.345058841631,1,0,1024232.79434217,1024233.84141134,1,1,75,16,16
1,34,574.949342058972,0,0,1024235.38261872,1024236.42968559,1,0,84,16,0
1,35,400.942753069103,0,0,1024238.08853742,1024239.13560737,1,0,94,4,16
1,36,523.277957108803,1,0,1024240.55915027,1024241.60622099,1,1,74,4,8
1,37,917.44795429986,0,0,1024243.15918584,1024244.20625232,1,0,70,4,16
1,38,428.592574084178,1,0,1024246.1828055,1024247.22982271,1,1,73,0,4
1,39,456.565377418883,1,0,1024248.72396168,1024249.77102855,1,1,65,4,4
1,40,397.468095412478,1,0,1024251.2298716,1024252.27694309,1,1,77,16,8
1,41,615.194315905683,0,0,1024253.86520809,1024254.9122738,1,0,90,0,16
1,42,353.219142649323,1,0,1024256.57111986,1024257.61819597,1,1,97,4,0
1,43,360.97264138516,1,0,1024259.11233224,1024260.15939179,1,1,88,8,8
1,44,923.501080484129,1,0,1024261.64177213,1024262.68884208,1,1,61,8,16
1,45,395.535976393148,0,0,1024264.74769029,1024265.79476947,1,0,87,0,0
1,46,967.708842363209,0,0,1024267.35949874,1024268.40659293,1,0,61,4,0
1,47,548.337375745177,1,0,1024270.53600372,1024271.58307367,1,1,91,0,4
1,48,578.253077110276,0,0,1024273.18309923,1024274.23016802,1,0,87,8,16
1,49,481.732200249098,0,0,1024275.8655126,1024276.91255867,1,0,95,16,0
1,50,702.735208324157,1,0,1024278.46551929,1024279.51258501,1,1,90,4,8
1,51,413.457448943518,1,0,1024281.35967659,1024282.4067396,1,1,66,0,16
1,52,851.827508886345,0,0,1024283.92444049,1024284.97147579,1,0,79,16,8
1,53,575.521009159274,0,0,1024286.91268302,1024287.95975681,1,0,100,8,0
1,54,685.528993257321,1,0,1024289.61859787,1024290.6656759,1,1,99,16,0
1,55,1168.97759668063,1,0,1024292.39510493,1024293.44222877,1,1,95,16,0
1,56,1253.30406508874,0,0,1024295.66573557,1024296.7128059,1,0,79,16,4
1,57,542.50829690136,1,0,1024299.0893085,1024300.13638383,1,1,96,16,0
1,58,683.455978403799,0,0,1024301.88934091,1024302.93641894,1,0,84,16,4
1,59,555.605053785257,1,0,1024304.64232455,1024305.68939334,1,1,65,0,8
1,60,705.347938346677,0,0,1024307.27764603,1024308.32471713,1,0,69,4,4
1,61,619.079341762699,1,0,1024310.23062766,1024311.27769607,1,1,91,0,16
1,62,431.498644407839,0,0,1024313.05419197,1024314.1012546,1,0,75,16,16
1,63,491.999109042808,1,0,1024315.67776059,1024316.72482784,1,1,74,0,4
1,64,549.73901854828,1,1,1024318.31309901,1024319.36014932,1,0,100,0,8
1,65,607.570549007505,1,0,1024320.91312072,1024321.96018604,1,1,88,8,0
1,66,581.227285321802,0,0,1024323.64256092,1024324.68963895,1,0,98,16,8
1,67,755.542228231207,1,0,1024326.3604569,1024327.4073182,1,1,72,4,8
1,68,562.922006705776,0,0,1024329.18385799,1024330.23088982,1,0,77,0,8
1,69,619.525126647204,1,0,1024331.87796223,1024332.92504296,1,1,94,8,8
1,70,575.305815902539,1,0,1024334.71329557,1024335.76036012,1,1,65,8,4
1,71,606.781378970481,0,0,1024337.44279043,1024338.48981611,1,0,68,16,4
1,72,670.345362974331,0,0,1024340.26630238,1024341.31337079,1,0,100,8,4
1,73,613.147478434257,0,0,1024343.11339666,1024344.16048239,1,0,67,8,8
1,74,554.924057796597,1,0,1024345.91343754,1024346.96051673,1,1,90,16,8
1,75,594.398339744657,1,0,1024348.53699923,1024349.58405917,1,1,84,16,16
1,76,532.637512893416,1,0,1024351.30176653,1024352.34880606,1,1,87,0,0
1,77,1605.56913691107,0,0,1024354.05471744,1024355.10179085,1,0,90,0,16
1,78,433.992806472816,1,0,1024357.87829907,1024358.92536864,1,1,77,0,4
1,79,444.680092623457,1,0,1024360.56067279,1024361.60777584,1,1,66,4,8
1,80,726.983514265157,0,0,1024363.23131443,1024364.27836975,1,0,94,8,0
1,81,1173.52129088249,0,0,1024399.19647239,1024400.24354003,2,0,96,16,8
1,82,601.041226182133,1,0,1024402.58474671,1024403.63181935,2,1,66,4,0
1,83,1446.11907668877,0,0,1024405.38478336,1024406.43185715,2,0,75,0,8
1,84,610.70220626425,1,0,1024408.92606695,1024409.97308108,2,1,80,8,8
1,85,532.844236935489,1,0,1024411.78486366,1024412.83194323,2,1,79,8,0
1,86,510.039149550721,1,0,1024414.53784152,1024415.58490839,2,1,90,16,16
1,87,591.410657740198,1,0,1024417.22023141,1024418.26730367,2,1,99,16,4
1,88,397.538928198628,0,0,1024419.92614664,1024420.97321774,2,0,87,0,8
1,89,620.652292389423,0,0,1024422.53794354,1024423.58501156,2,0,80,4,4
1,90,445.419987663627,0,0,1024425.37327341,1024426.42035952,2,0,89,16,0
1,91,395.062089432031,0,0,1024427.90272831,1024428.94978786,2,0,77,0,4
1,92,688.853131141514,0,0,1024430.49099101,1024431.53805287,2,0,61,4,8
1,93,579.534996999428,0,0,1024433.29109348,1024434.33809452,2,0,64,4,0
1,94,450.674704741687,1,0,1024436.10282755,1024437.14988711,2,1,69,8,16
1,95,564.016835647635,1,0,1024438.77347882,1024439.82051797,2,1,91,0,0
1,96,461.088668671437,1,0,1024441.46759539,1024442.51467188,2,1,87,16,4
1,97,364.609752548859,0,0,1024443.9970372,1024445.0441083,2,0,76,4,4
1,98,595.477385330014,1,0,1024446.45590797,1024447.50295136,2,1,99,4,4
1,99,399.870251887478,0,0,1024449.22063562,1024450.26771134,2,0,80,0,4
1,100,491.673817043193,0,0,1024451.82067465,1024452.86773575,2,0,68,8,4
1,101,560.346232960001,0,0,1024454.40893388,1024455.45600883,2,0,70,8,4
1,102,518.362775444984,1,0,1024457.10308779,1024458.15016851,2,1,79,4,0
1,103,388.249820331112,0,0,1024459.79723746,1024460.84431087,2,0,88,4,8
1,104,468.928783666343,0,0,1024462.29138336,1024463.33852452,2,0,64,8,0
1,105,624.609306105413,1,0,1024464.87965799,1024465.92672293,2,1,65,16,0
1,106,609.873000415973,1,0,1024467.69149484,1024468.73853438,2,1,98,4,16
1,107,360.010238946415,1,0,1024470.55032157,1024471.59739037,2,1,79,0,8
1,108,478.613631566986,1,0,1024473.13858927,1024474.18565652,2,1,86,4,16
1,109,543.114225496538,1,0,1024475.71509372,1024476.7621602,2,1,83,16,0
1,110,613.673335057683,0,0,1024478.35046909,1024479.39750247,2,0,69,16,16
1,111,688.502816599794,1,0,1024481.04456448,1024482.09163674,2,1,87,0,8
1,112,467.58065035101,0,0,1024483.85647371,1024484.9034632,2,0,76,8,4
1,113,652.454687282443,0,0,1024486.53875427,1024487.58582383,2,0,95,8,0
1,114,510.835248860531,1,0,1024489.42114831,1024490.46825714,2,1,86,16,0
1,115,592.426569783129,0,0,1024492.05646786,1024493.10354589,2,0,93,0,8
1,116,813.538136775605,0,0,1024494.76239349,1024495.80945689,2,0,61,16,16
1,117,754.529780824669,0,0,1024497.70360033,1024498.75067566,2,0,69,4,16
1,118,605.219592340291,0,0,1024500.55068767,1024501.59777764,2,0,74,8,4
1,119,569.64611983858,0,0,1024503.28015174,1024504.32722746,2,0,81,0,4
1,120,545.234590419568,1,0,1024506.00959848,1024507.05667459,2,1,74,8,16
1,121,450.167326256633,1,0,1024508.79785994,1024509.84492642,2,1,74,8,8
1,122,667.55940055009,0,0,1024511.42142163,1024512.46849543,2,0,69,16,4
1,123,433.891561697237,1,0,1024514.30380913,1024515.35093027,2,1,63,4,16
1,124,521.631864015944,1,0,1024516.98624944,1024518.03328397,2,1,79,8,0
1,125,696.622798219323,1,0,1024519.5862315,1024520.63332108,2,1,91,4,8
1,126,443.398557603359,0,0,1024522.37450605,1024523.42157639,2,0,73,4,4
1,127,726.815286325291,1,0,1024524.96281456,1024526.0098514,2,1,61,16,8
1,128,420.327462255955,1,0,1024527.88045409,1024528.92752788,2,1,74,0,4
1,129,599.549502367154,1,0,1024530.50402463,1024531.55110305,2,1,81,16,16
1,130,533.488276647404,1,0,1024533.25699788,1024534.30406859,2,1,86,0,0
1,131,402.116884011775,1,0,1024536.03349878,1024537.08056526,2,1,86,0,4
1,132,679.666422656737,0,0,1024538.62180344,1024539.66884913,2,0,79,8,8
1,133,972.321059671231,0,0,1024541.49238841,1024542.53946298,2,0,77,16,16
1,134,730.496668023989,0,0,1024544.65714324,1024545.70420471,2,0,84,16,8
1,135,472.946621244773,1,0,1024547.58659337,1024548.63369719,2,1,88,4,0
1,136,554.564119316638,1,0,1024550.31603549,1024551.3631012,2,1,89,16,4
1,137,749.206925509498,1,0,1024553.01018978,1024554.05725472,2,1,68,4,16
1,138,713.461760547943,0,0,1024555.82199199,1024556.8690604,2,0,97,0,0
1,139,559.571691555902,0,0,1024558.77496631,1024559.82203126,2,0,85,4,8
1,140,520.52741101943,0,0,1024561.52793994,1024562.57501605,2,0,69,8,0
1,141,774.695575819351,1,0,1024564.29267567,1024565.33974831,2,1,94,16,0
1,142,567.700527142733,1,0,1024567.24566154,1024568.2927365,2,1,97,16,4
1,143,502.129356726073,0,0,1024569.91628394,1024570.96336005,2,0,87,16,8
1,144,604.66871317476,1,0,1024572.55161466,1024573.59867883,2,1,85,4,4
1,145,630.741349188611,1,0,1024575.3046187,1024576.35166132,2,1,61,0,16
1,146,592.266810825095,1,0,1024577.98697009,1024579.03404773,2,1,86,8,16
1,147,803.197315428406,0,0,1024580.7399468,1024581.78701829,2,0,64,8,8
1,148,422.00974165462,1,0,1024583.72822859,1024584.77531509,2,1,78,0,16
1,149,620.364341535605,0,0,1024586.30472726,1024587.35180106,2,0,96,16,8
1,150,539.167990675196,0,0,1024589.15182115,1024590.19889418,2,0,79,8,16
1,151,780.936177936383,0,0,1024591.89303153,1024592.94010648,2,0,94,8,16
1,152,511.81997905951,0,0,1024594.89307157,1024595.94021273,2,0,63,4,0
1,153,556.947412667796,0,0,1024597.59897448,1024598.64606406,2,0,96,0,0
1,154,975.607856293209,1,0,1024600.34019949,1024601.387296,2,1,69,4,8
1,155,1017.31221703812,0,0,1024603.57553767,1024604.62260569,2,0,79,0,16
1,156,610.704131191596,1,0,1024606.84616831,1024607.89323248,2,1,100,0,0
1,157,403.249054215848,0,0,1024609.68149279,1024610.72856658,2,0,85,0,16
1,158,611.840920872055,0,0,1024612.25805998,1024613.3050668,2,0,87,8,8
1,159,636.078832903877,1,0,1024615.06982716,1024616.11688864,2,1,91,0,16
1,160,569.022868061438,1,0,1024617.82277538,1024618.86983956,2,1,95,8,4
1,161,608.443255419843,1,0,1024651.7290909,1024652.77615854,3,1,63,8,8
1,162,583.709513652138,1,0,1024654.50562799,1024655.55268485,3,1,93,16,0
1,163,478.045814088546,0,0,1024657.22327799,1024658.2703464,3,0,68,0,0
1,164,454.197097569704,0,0,1024659.77625478,1024660.82331741,3,0,94,0,8
1,165,608.218053239398,0,0,1024662.37628265,1024663.42335529,3,0,72,16,16
1,166,419.521354022436,1,1,1024665.15278663,1024666.19985427,3,0,85,16,4
1,167,537.528826855123,0,0,1024667.79988407,1024668.84695324,3,0,83,8,4
1,168,427.999349194579,1,0,1024670.57638382,1024671.62348033,3,1,85,4,8
1,169,406.518142670393,0,0,1024673.05879957,1024674.10585181,3,0,85,8,4
1,170,430.806869524531,1,0,1024675.67056105,1024676.71764101,3,1,98,4,4
1,171,486.863729776815,0,0,1024678.17648291,1024679.22355362,3,0,75,4,8
1,172,447.887972346507,1,0,1024680.88240391,1024681.92950658,3,1,96,0,8
1,173,504.699741024524,0,0,1024683.58835803,1024684.6353864,3,0,94,4,16
1,174,500.983712845482,0,0,1024686.2001145,1024687.24717521,3,0,67,0,8
1,175,556.269111344591,1,0,1024688.81191025,1024689.8589825,3,1,82,8,0
1,176,486.90030106809,0,0,1024691.44723981,1024692.49430821,3,0,93,8,0
1,177,374.237626208924,0,0,1024694.11786297,1024695.16493562,3,0,76,8,4
1,178,393.641583388671,1,0,1024696.63553692,1024697.68260994,3,1,84,0,4
1,179,722.875210922211,1,0,1024699.10620405,1024700.15323473,3,1,99,8,16
1,180,411.26240149606,1,0,1024701.88266684,1024702.92973024,3,1,85,4,0
1,181,571.592482505366,0,0,1024704.49446489,1024705.54152753,3,0,67,0,16
1,182,495.95997238066,0,0,1024707.27096849,1024708.31810157,3,0,96,4,4
1,183,512.758128927089,0,0,1024709.90628805,1024710.95336723,3,0,67,0,4
1,184,761.858282610774,0,0,1024712.52984743,1024713.57692661,3,0,62,8,16
1,185,419.746556202881,0,0,1024715.37695171,1024716.42403667,3,0,94,0,0
1,186,682.87776701618,1,0,1024718.03581201,1024719.08287849,3,1,81,16,16
1,187,836.106473114342,1,0,1024720.78878487,1024721.8358552,3,1,99,8,0
1,188,599.157997057773,1,0,1024723.70646597,1024724.75353862,3,1,90,0,0
1,189,570.581575040706,1,0,1024726.53006801,1024727.57710408,3,1,77,8,0
1,190,653.034438495524,0,0,1024729.29477294,1024730.34189139,3,0,74,4,16
1,191,685.39271701593,0,0,1024732.17716775,1024733.22423423,3,0,83,4,8
1,192,624.48534858413,0,0,1024734.930141,1024735.97720902,3,0,71,4,8
1,193,472.844991483726,0,0,1024737.74194205,1024738.78900661,3,0,61,16,8
1,194,430.603225133382,1,0,1024740.34197185,1024741.38904256,3,1,74,0,4
1,195,374.026282690465,1,1,1024742.96553392,1024744.01260464,3,0,80,0,0
1,196,490.57321366854,0,0,1024745.58909908,1024746.63617249,3,0,74,0,16
1,197,467.386630014516,0,0,1024748.2361865,1024749.28325914,3,0,68,4,4
1,198,640.418112860061,1,0,1024750.84803691,1024751.8950622,3,1,69,16,0
1,199,538.905062247068,0,0,1024753.71861496,1024754.7656876,3,0,85,8,8
1,200,644.362422986887,1,0,1024756.34217973,1024757.38927354,3,1,65,16,4
1,201,642.452246625908,0,0,1024759.05986014,1024760.10692777,3,0,82,16,8
1,202,455.113689531572,1,0,1024761.8834179,1024762.930484,3,1,100,8,16
1,203,426.495306775905,0,0,1024764.51874708,1024765.56581933,3,0,76,8,8
1,204,522.783667198382,1,0,1024767.02466508,1024768.0717331,3,1,96,8,0
1,205,633.983105421066,1,0,1024769.78940889,1024770.83650887,3,1,71,8,4
1,206,501.195441465825,1,0,1024772.61296358,1024773.66003853,3,1,91,0,4
1,207,540.444906218909,1,0,1024775.17770901,1024776.22478126,3,1,80,0,0
1,208,468.392918002792,1,0,1024777.82480066,1024778.87186984,3,1,83,16,16
1,209,690.872251288965,0,0,1024780.35424171,1024781.40131243,3,0,72,16,0
1,210,626.769706956111,0,0,1024783.14251241,1024784.18958621,3,0,98,0,16
1,211,567.819480085745,0,0,1024785.84844035,1024786.89550182,3,0,88,16,8
1,212,408.621954382397,1,0,1024788.58964418,1024789.63670912,3,1,96,8,8
1,213,497.940211556852,1,0,1024791.07202837,1024792.11909485,3,1,72,4,4
1,214,574.77649464272,1,0,1024793.75441209,1024794.80147973,3,1,74,16,0
1,215,622.141706291586,0,0,1024796.48385845,1024797.53093302,3,0,81,8,16
1,216,505.856548785232,1,0,1024799.36625326,1024800.41333283,3,1,92,4,8
1,217,420.385976321995,1,0,1024802.10745363,1024803.15453089,3,1,100,8,4
1,218,448.849604814313,1,0,1024804.68396693,1024805.73103919,3,1,86,4,4
1,219,866.550340782851,0,0,1024807.31929187,1024808.36635489,3,0,91,4,0
1,220,540.537296794355,0,0,1024810.31932575,1024811.36639493,3,0,98,4,16
1,221,538.960111676715,1,0,1024812.94289129,1024813.98995893,3,1,79,0,16
1,222,442.06158828456,0,0,1024815.5546724,1024816.60177392,3,0,78,16,16
1,223,927.959313266911,0,0,1024818.04883678,1024819.09590673,3,0,94,16,8
1,224,436.641337815672,1,0,1024821.13123074,1024822.178303,3,1,85,0,8
1,225,682.73340666201,1,0,1024823.6959704,1024824.743085,3,1,71,4,0
1,226,608.96410769783,0,0,1024826.55483101,1024827.60194792,3,0,68,16,4
1,227,537.001045420766,0,0,1024829.36662475,1024830.41369315,3,0,62,4,16
1,228,641.490999143571,0,0,1024832.03724868,1024833.08431632,3,0,93,4,0
1,229,539.050192572176,1,0,1024834.825514,1024835.87258818,3,1,85,4,16
1,230,568.167099845596,1,0,1024837.42555034,1024838.47261605,3,1,67,8,8
1,231,648.092694580555,1,0,1024840.13146519,1024841.17853513,3,1,77,16,8
1,232,648.304038099013,0,0,1024842.94327048,1024843.99033927,3,0,61,4,0
1,233,698.863655910827,1,0,1024845.77859649,1024846.82573112,3,1,73,16,4
1,234,497.930972487666,1,0,1024848.62573158,1024849.67276726,3,1,96,16,4
1,235,635.053681908175,1,0,1024851.19042619,1024852.23750114,3,1,93,16,0
1,236,438.092640717514,1,0,1024853.89634027,1024854.94341715,3,1,67,8,16
1,237,576.23549667187,0,0,1024856.55520326,1024857.60227706,3,0,85,16,16
1,238,573.547699139453,1,0,1024859.31994284,1024860.36701741,3,1,72,0,16
1,239,524.728489923291,0,0,1024861.97880122,1024863.02589195,3,0,95,0,8
1,240,396.441789460368,1,0,1024864.57883448,1024865.62590288,3,1,67,0,4
1,241,821.220032754354,0,0,1024887.79089715,1024888.8379644,4,0,89,8,4
1,242,478.017326910049,0,0,1024890.83798827,1024891.88506091,4,0,91,0,0
1,243,467.728860210627,0,0,1024893.5086149,1024894.55568716,4,0,92,4,0
1,244,596.58607293386,1,0,1024896.0733869,1024897.12042412,4,1,91,0,16
1,245,673.502042889595,1,0,1024898.90867904,1024899.95574706,4,1,74,0,0
1,246,588.957301457413,1,0,1024901.83813225,1024902.88520604,4,1,68,4,8
1,247,403.613997274078,0,0,1024904.48522391,1024905.53229116,4,0,84,8,4
1,248,346.710607758723,0,0,1024907.14414003,1024908.19114915,4,0,74,0,0
1,249,565.722982748412,0,0,1024909.63822164,1024910.68530044,4,0,82,0,0
1,250,687.64281377662,1,0,1024912.2971008,1024913.34420693,4,1,99,16,16
1,251,996.953941648826,0,0,1024915.21476496,1024916.26183606,4,0,96,0,16
1,252,468.955345917493,1,0,1024918.30892526,1024919.35603794,4,1,98,8,0
1,253,794.89948193077,1,0,1024921.01484781,1024922.06191429,4,1,100,16,8
1,254,581.901352037676,1,0,1024924.01486859,1024925.06197511,4,1,86,16,4
1,255,616.653702803887,1,0,1024926.66197719,1024927.70907447,4,1,92,8,4
1,256,541.371892089956,1,0,1024929.49729436,1024930.54437354,4,1,77,0,8
1,257,521.132569643669,1,0,1024932.28557353,1024933.33264655,4,1,98,8,0
1,258,905.996520654298,0,0,1024934.88558946,1024935.93268597,4,0,62,8,8
1,259,597.95730386395,0,0,1024937.97975708,1024939.02683126,4,0,76,16,16
1,260,735.60163541697,1,0,1024940.66214696,1024941.7092196,4,1,61,16,4
1,261,714.421083219349,1,0,1024943.61515785,1024944.66219315,4,1,92,0,8
1,262,634.105523116887,1,0,1024946.49751301,1024947.54458681,4,1,80,16,16
1,263,1369.89873123821,0,0,1024949.23873071,1024950.28584723,4,0,100,8,8
1,264,668.653459521011,0,0,1024952.83877783,1024953.88584046,4,0,92,4,16
1,265,509.365467936732,0,0,1024955.56821918,1024956.61528797,4,0,75,0,16
1,266,467.82317571342,1,1,1024958.29767093,1024959.34476166,4,0,88,8,0
1,267,832.724591018632,1,0,1024960.8506327,1024961.89773537,4,1,90,8,8
1,268,508.184407721274,0,0,1024963.87420347,1024964.92126957,4,0,95,8,0
1,269,637.788059655577,1,0,1024966.50957346,1024967.55662454,4,1,61,0,0
1,270,658.435440738685,0,0,1024969.34486136,1024970.3919317,4,0,66,8,16
1,271,687.283645267598,0,0,1024972.13313476,1024973.18020817,4,0,90,4,16
1,272,528.660481213592,1,0,1024974.95670138,1024976.00378903,4,1,89,4,0
1,273,605.177631601691,1,0,1024977.69791214,1024978.74500134,4,1,85,4,16
1,274,560.162221663632,0,0,1024980.54499987,1024981.59207483,4,0,74,0,4
1,275,758.709686924703,1,0,1024983.16861353,1024984.21565153,4,1,81,4,4
1,276,525.867204531096,1,0,1024985.98037186,1024987.02747992,4,1,73,0,4
1,277,813.525818055496,0,0,1024988.61569526,1024989.66276521,4,0,79,8,4
1,278,803.07066324167,1,0,1024991.65102274,1024992.69809692,4,1,63,4,4
1,279,864.42766606342,0,0,1024994.67459044,1024995.72166346,4,0,89,4,16
1,280,921.667511342093,1,0,1024997.79228378,1024998.83934911,4,1,64,4,8
1,281,551.483661751263,0,0,1025000.93349362,1025001.98056472,4,0,66,0,4
1,282,771.748699597083,1,0,1025003.54532324,1025004.59236355,4,1,61,16,4
1,283,441.531111951917,0,0,1025006.4865066,1025007.53357962,4,0,74,16,8
1,284,676.244504749775,1,0,1025009.08653408,1025010.13360249,4,1,90,0,8
1,285,849.996249540709,1,0,1025011.92186549,1025012.9689416,4,1,82,16,8
1,286,659.541433560662,1,0,1025015.00426215,1025016.05132594,4,1,88,8,0
1,287,673.784604179673,0,0,1025017.81606859,1025018.8631728,4,0,95,4,8
1,288,1391.45192562137,0,0,1025020.60432813,1025021.65139808,4,0,72,8,8
1,289,700.218333513476,0,0,1025024.23966578,1025025.28676498,4,0,64,0,16
1,290,644.931780174375,0,0,1025027.03969665,1025028.08677969,4,0,61,8,16
1,291,407.059012912214,0,0,1025029.74561689,1025030.79268183,4,0,68,4,8
1,292,651.096929912455,1,0,1025032.25153566,1025033.29860869,4,1,83,4,4
1,293,545.341994496994,1,0,1025034.96921453,1025036.0162814,4,1,80,0,4
1,294,1591.95922699291,0,0,1025037.6515998,1025038.69867937,4,0,74,8,16
1,295,573.780215578154,1,0,1025041.29871148,1025042.34581491,4,1,65,0,16
1,296,492.974985158071,0,0,1025044.09874966,1025045.14580999,4,0,77,8,16
1,297,594.03955610469,0,0,1025046.81642699,1025047.86349425,4,0,80,16,0
1,298,850.690719205886,0,0,1025049.63998591,1025050.68705586,4,0,68,8,4
1,299,588.64047867246,1,0,1025052.54589144,1025053.59298757,4,1,96,4,8
1,300,504.826008225791,1,0,1025055.35771252,1025056.40477592,4,1,79,16,0
1,301,502.248309669085,0,0,1025057.93421311,1025058.98127575,4,0,75,16,8
1,302,772.484360029921,0,0,1025060.65193048,1025061.69896193,4,0,72,16,16
1,303,850.76193686109,0,0,1025063.52251315,1025064.56959734,4,0,90,16,16
1,304,668.074478278868,0,0,1025066.48726304,1025067.53432914,4,0,100,16,0
1,305,2403.01538293716,1,0,1025069.38141726,1025070.42848412,4,1,71,8,16
1,306,1028.32133055199,1,0,1025074.00501051,1025075.0520743,4,1,83,8,8
1,307,520.190570154227,1,0,1025077.09922047,1025078.14622805,4,1,93,16,4
1,308,601.165953441523,0,0,1025079.85213212,1025080.89920053,4,0,63,4,4
1,309,502.824211376719,1,1,1025082.64043593,1025083.68747778,4,0,91,4,0
1,310,914.798268000595,1,0,1025085.28749564,1025086.33456289,4,1,64,4,4
1,311,928.928260109387,1,0,1025088.29935244,1025089.34636618,4,1,87,4,16
1,312,499.948552809656,1,0,1025091.4523263,1025092.49934504,4,1,65,0,8
1,313,431.258813710883,1,0,1025094.16996128,1025095.21703161,4,1,77,4,0
1,314,909.59013113752,0,0,1025096.687641,1025097.73470825,4,0,79,16,4
1,315,526.94971463643,1,0,1025099.66426617,1025100.71123988,4,1,61,16,8
1,316,691.705691744573,0,0,1025102.31123195,1025103.35830536,4,0,99,0,8
1,317,490.165154915303,1,0,1025105.24068246,1025106.28775741,4,1,86,4,0
1,318,459.415628341958,1,0,1025107.79366079,1025108.8407265,4,1,78,0,4
1,319,550.802665879019,0,0,1025110.370161,1025111.41722902,4,0,75,16,0
1,320,772.671835962683,0,0,1025113.17020843,1025114.21726875,4,0,91,16,0
1,321,523.089326219633,1,0,1025129.06451855,1025130.11158311,5,1,100,8,0
1,322,498.984610661864,0,0,1025131.6998458,1025132.74691536,5,0,92,0,16
1,323,534.90069846157,1,0,1025134.35870341,1025135.40577528,5,1,70,0,4
1,324,490.097786881961,0,0,1025137.0175537,1025138.06462133,5,0,76,0,4
1,325,455.86667326279,1,0,1025139.66464497,1025140.71172339,5,1,97,4,8
1,326,387.049896991812,0,0,1025142.17056221,1025143.21762984,5,0,80,0,8
1,327,585.473404848017,0,0,1025144.64117352,1025145.68825193,5,0,72,4,8
1,328,660.101166809909,0,0,1025147.42945153,1025148.47652032,5,0,81,16,16
1,329,537.640465656295,0,0,1025150.31184057,1025151.35890975,5,0,95,16,16
1,330,869.684308068827,1,0,1025152.95893492,1025154.00600525,5,1,70,8,16
1,331,1221.86468844302,0,0,1025155.98249915,1025157.02957911,5,0,65,4,16
1,332,489.418330718763,1,0,1025159.26489227,1025160.31197146,5,1,95,0,0
1,333,465.588862309232,0,1,1025161.92374718,1025162.97081944,5,1,71,4,0
1,334,466.520082904026,1,0,1025164.46496033,1025165.51202296,5,1,73,0,8
1,335,654.330217046663,0,0,1025167.11205276,1025168.15912155,5,0,92,16,8
1,336,566.503298585303,1,0,1025169.87679388,1025170.92386575,5,1,78,16,0
1,337,811.982894432731,0,0,1025172.59447429,1025173.64154885,5,0,66,16,4
1,338,677.627284545451,1,0,1025175.58274838,1025176.62981909,5,1,81,8,8
1,339,480.953424237669,0,0,1025178.35924928,1025179.4063277,5,0,69,4,8
1,340,552.56001255475,0,0,1025180.99456421,1025182.04164532,5,0,71,4,8
1,341,433.99781093467,1,0,1025183.61814515,1025184.66521317,5,1,79,4,0
1,342,580.100504681468,1,0,1025186.12405238,1025187.17112771,5,1,97,16,0
1,343,711.395290098153,1,0,1025188.78290921,1025189.82997877,5,1,61,16,4
1,344,576.946519548073,0,0,1025191.61824563,1025192.66532366,5,0,98,8,4
1,345,441.429097321816,1,0,1025194.28886186,1025195.33593451,5,1,77,8,4
1,346,545.080221025273,1,0,1025196.88888281,1025197.935977,5,1,67,16,16
1,347,465.693956590258,0,0,1025199.52426934,1025200.5712981,5,0,95,0,8
1,348,597.897634957917,0,0,1025202.12424986,1025203.17132212,5,0,89,8,4
1,349,492.735924315639,1,0,1025204.81840415,1025205.86547872,5,1,96,4,4
1,350,617.422854760662,1,0,1025207.41843587,1025208.46550659,5,1,74,8,4
1,351,587.427851627581,0,0,1025210.11258862,1025211.15966127,5,0,70,0,0
1,352,633.57235211879,1,0,1025212.8302775,1025213.87734476,5,1,69,4,0
1,353,654.882636037655,0,0,1025215.68913349,1025216.73621922,5,0,86,0,0
1,354,391.430752701126,1,0,1025218.57152253,1025219.61859556,5,1,87,0,8
1,355,521.903261425905,0,0,1025221.19508537,1025222.24214839,5,0,80,4,4
1,356,640.515892999247,0,0,1025223.84216856,1025224.88924698,5,0,89,0,16
1,357,513.255498372018,0,0,1025226.57161838,1025227.61869334,5,0,90,4,4
1,358,628.788057365455,1,0,1025229.25401096,1025230.30108822,5,1,88,8,8
1,359,683.084106072783,1,0,1025232.07756488,1025233.12464522,5,1,94,16,8
1,360,505.299510201439,1,0,1025234.84231215,1025235.88938441,5,1,89,16,8
1,361,498.28629149124,0,0,1025237.4423458,1025238.48941498,5,0,66,0,8
1,362,639.66705405619,0,0,1025240.00708584,1025241.05415579,5,0,99,16,4
1,363,661.737635848112,1,0,1025242.7247674,1025243.77183196,5,1,65,4,16
1,364,616.173271555454,0,0,1025245.53656345,1025246.58362686,5,0,92,0,4
1,365,450.729754171334,1,0,1025248.32489998,1025249.3719041,5,1,74,16,8
1,366,660.025329561904,1,0,1025250.9366349,1025251.98370062,5,1,100,4,4
1,367,431.571786990389,1,0,1025253.67785529,1025254.72490984,5,1,88,4,0
1,368,582.453001174144,0,0,1025256.32493694,1025257.37200265,5,0,69,16,4
1,369,641.007103142329,0,0,1025259.00731874,1025260.05439446,5,0,85,16,0
1,370,732.716737897135,1,0,1025261.79559599,1025262.84265746,5,1,65,4,4
1,371,640.655633760616,0,0,1025264.64268834,1025265.68975597,5,0,94,4,16
1,372,554.846295737661,1,0,1025267.40742484,1025268.45448862,5,1,83,4,0
1,373,484.472737298347,1,0,1025270.07804454,1025271.1251141,5,1,78,8,0
1,374,703.472023596987,1,0,1025272.64278689,1025273.68985337,5,1,72,8,0
1,375,432.193883927539,0,0,1025275.52517092,1025276.57224587,5,0,94,0,16
1,376,479.545621899888,1,0,1025278.10167806,1025279.14874724,5,1,77,8,0
1,377,416.880136937834,1,0,1025280.81934384,1025281.86643073,5,1,80,0,0
1,378,439.904266968369,0,0,1025283.32527263,1025284.37234758,5,0,73,4,16
1,379,354.221966001205,1,0,1025285.89000651,1025286.93707799,5,1,97,0,16
1,380,554.422068758868,0,0,1025288.36062937,1025289.40773357,5,0,61,0,4
1,381,381.646969821304,0,0,1025291.01948389,1025292.06655615,5,0,76,16,4
1,382,508.692941162735,1,0,1025293.61951715,1025294.66659018,5,1,83,16,16
1,383,493.926993454807,0,0,1025296.24307692,1025297.29015071,5,0,96,8,8
1,384,603.696686797775,1,0,1025298.93727625,1025299.98429846,5,1,90,0,0
1,385,493.696016957983,0,0,1025301.72550191,1025302.77257802,5,0,69,8,16
1,386,517.706032143906,0,0,1025304.43141483,1025305.47849055,5,0,63,0,4
1,387,447.300906875171,0,0,1025307.12559992,1025308.17264292,5,0,64,8,16
1,388,409.107775078155,0,0,1025309.81971802,1025310.86679221,5,0,62,8,8
1,389,661.314178840257,1,0,1025312.41974936,1025313.46682123,5,1,100,8,4
1,390,421.413822099566,1,0,1025315.29037976,1025316.33744702,5,1,87,8,0
1,391,438.123822561465,0,0,1025317.86687151,1025318.91394299,5,0,85,16,8
1,392,418.823804706335,0,0,1025320.45515653,1025321.5022157,5,0,78,8,8
1,393,502.938544726931,0,0,1025323.12576276,1025324.17284002,5,0,83,0,16
1,394,565.815373323858,0,0,1025325.81991666,1025326.86699701,5,0,83,4,8
1,395,475.831133662723,0,0,1025328.57289569,1025329.6199768,5,0,63,16,16
1,396,881.183091900311,1,0,1025331.29057225,1025332.33763565,5,1,82,16,0
1,397,613.890837994404,1,0,1025334.38473062,1025335.43179864,5,1,81,16,0
1,398,468.811370548792,1,0,1025337.17301749,1025338.22007973,5,1,95,8,16
1,399,545.833974727429,1,1,1025339.87892464,1025340.92598996,5,0,91,4,16
1,400,434.900929336436,1,0,1025342.59660004,1025343.64367461,5,1,84,8,16
1,401,664.788066525944,0,0,1025349.33787086,1025350.38493426,6,0,72,4,8
1,402,596.423619310372,0,0,1025352.22025181,1025353.2673206,6,0,89,4,4
1,403,451.761064585298,0,0,1025354.99675888,1025356.04384076,6,0,79,4,4
1,404,440.320024848916,0,0,1025357.62031595,1025358.66738243,6,0,90,0,16
1,405,471.202748012729,1,0,1025360.12623203,1025361.17332661,6,1,83,16,0
1,406,543.322104378603,0,0,1025362.8321461,1025363.87921913,6,0,73,16,0
1,407,574.895447469316,0,0,1025365.51452983,1025366.56160478,6,0,81,4,8
1,408,773.760120733641,1,0,1025368.26750654,1025369.31457957,6,1,64,16,8
1,409,475.544722750783,0,0,1025371.14989481,1025372.19697014,6,0,95,16,8
1,410,496.255237376317,0,0,1025373.78522475,1025374.83229547,6,0,90,16,0
1,411,557.141817873344,1,0,1025376.49117733,1025377.53821301,6,1,66,4,0
1,412,635.368579998612,1,0,1025379.25588649,1025380.30295336,6,1,83,16,4
1,413,712.046259082854,0,0,1025381.99708532,1025383.04419415,6,0,96,0,0
1,414,723.563906154595,1,0,1025384.77360009,1025385.82068312,6,1,85,4,4
1,415,385.74564922601,0,0,1025387.73834613,1025388.78540992,6,0,96,0,16
1,416,725.958748254925,1,0,1025390.24425644,1025391.29137643,6,1,66,16,16
1,417,373.32873349078,0,0,1025393.2207692,1025394.26784069,6,0,86,8,0
1,418,527.431685826741,0,0,1025395.83256379,1025396.87963335,6,0,84,0,4
1,419,526.008491637185,1,0,1025398.55024112,1025399.5971078,6,1,99,0,0
1,420,488.592204637825,1,0,1025401.24439156,1025402.29146228,6,1,90,0,16
1,421,445.595144876279,1,0,1025403.79737489,1025404.84443367,6,1,76,16,16
1,422,686.283901683055,0,0,1025406.32681286,1025407.37387934,6,0,82,8,4
1,423,407.108672778122,1,1,1025409.23273302,1025410.27979796,6,0,90,16,0
1,424,566.672296496108,1,0,1025411.76217752,1025412.80928212,6,1,63,4,0
1,425,419.750020839274,1,0,1025414.46808814,1025415.51516116,6,1,87,0,4
1,426,691.895477590151,1,0,1025417.07989043,1025418.12695691,6,1,83,4,16
1,427,484.34146551881,1,0,1025419.84462384,1025420.89169803,6,1,86,8,4
1,428,752.098367433064,1,0,1025422.4446571,1025423.49172397,6,1,82,8,0
1,429,535.921999835409,1,0,1025425.27999121,1025426.32706616,6,1,61,4,4
1,430,659.989913110621,0,0,1025427.98589913,1025429.03299602,6,0,79,8,16
1,431,657.066519604996,1,0,1025430.89181544,1025431.93889462,6,1,100,4,16
1,432,715.439689927734,1,0,1025433.76244623,1025434.80952079,6,1,61,0,16
1,433,432.640053681098,0,0,1025436.63307394,1025437.68013811,6,0,85,4,8
1,434,609.509212314151,1,0,1025439.28016367,1025440.32723747,6,1,97,16,16
1,435,715.323816752061,0,0,1025442.08019416,1025443.12726488,6,0,81,8,8
1,436,633.317892905325,0,0,1025445.02141024,1025446.06848403,6,0,77,8,8
1,437,557.423609425314,1,0,1025447.89202409,1025448.93910982,6,1,71,0,0
1,438,597.196620889008,1,0,1025450.62148892,1025451.66854963,6,1,87,4,8
1,439,719.556847354397,0,0,1025453.29209669,1025454.33916933,6,0,75,4,16
1,440,544.003485236317,1,0,1025456.11571874,1025457.16273672,6,1,100,0,0
1,441,794.578039553016,1,0,1025458.79806089,1025459.84512314,6,1,81,16,16
1,442,467.818171251565,0,0,1025461.66867975,1025462.71578934,6,0,86,16,4
1,443,584.24999890849,1,0,1025464.33934256,1025465.38638864,6,1,96,8,4
1,444,654.665518086404,0,0,1025467.17462855,1025468.22170773,6,0,95,16,4
1,445,528.672415064648,1,0,1025469.91583777,1025470.96290926,6,1,83,8,8
1,446,598.926250473596,1,0,1025472.64528952,1025473.69235446,6,1,80,8,16
1,447,823.202196741477,0,0,1025475.39826507,1025476.44533425,6,0,67,8,0
1,448,662.15993813239,0,0,1025478.30417831,1025479.35125364,6,0,98,8,8
1,449,576.076892670244,1,0,1025481.1512722,1025482.19834445,6,1,72,0,0
1,450,481.840759282932,1,0,1025483.93954521,1025484.98662054,6,1,81,0,8
1,451,549.077655770816,0,0,1025486.50426638,1025487.5513602,6,0,69,4,16
1,452,553.440418327227,0,0,1025489.12784501,1025490.17491226,6,0,64,0,8
1,453,474.999618018046,1,0,1025491.81023374,1025492.85735912,6,1,97,0,8
1,454,524.037869996391,0,0,1025494.37497301,1025495.42203988,6,0,79,16,4
1,455,451.404975610785,1,0,1025497.04559271,1025498.09266151,6,1,87,16,8
1,456,400.454622576945,1,0,1025499.73973315,1025500.78681156,6,1,99,0,4
1,457,433.742966852151,1,1,1025502.26918728,1025503.316258,6,0,90,16,16
1,458,745.8535307087,1,0,1025504.91627547,1025505.96334811,6,1,71,4,0
1,459,886.581399478018,0,0,1025507.71630827,1025508.76338053,6,0,71,8,4
1,460,632.824372965842,0,0,1025510.68105355,1025511.72816776,6,0,95,16,0
1,461,1104.95281440672,0,0,1025513.37521053,1025514.42228048,6,0,81,16,4
1,462,591.424901271239,1,0,1025516.65760634,1025517.70467591,6,1,74,0,4
1,463,648.694003582932,0,0,1025519.48122031,1025520.52823636,6,0,63,16,8
1,464,665.915232268162,0,0,1025522.35178681,1025523.39886138,6,0,98,8,16
1,465,525.303621659987,0,0,1025525.21064588,1025526.25770928,6,0,88,0,16
1,466,461.581033770926,1,0,1025527.88127482,1025528.92834323,6,1,67,4,0
1,467,423.754384741187,1,0,1025530.50482804,1025531.5519669,6,1,65,0,8
1,468,487.880411674269,0,0,1025533.05780368,1025534.10493868,6,0,75,8,16
1,469,453.23700492736,0,0,1025535.66960635,1025536.71666975,6,0,65,4,16
1,470,523.946634144522,0,0,1025538.31668569,1025539.36376988,6,0,86,0,8
1,471,612.295559840277,0,0,1025540.9873204,1025542.03438496,6,0,99,16,8
1,472,577.110512880608,0,0,1025543.82264488,1025544.86971598,6,0,66,8,4
1,473,479.95098575484,1,0,1025546.46973693,1025547.51681534,6,1,65,8,8
1,474,506.614536978304,1,0,1025549.15212258,1025550.1991956,6,1,63,8,16
1,475,818.422521464527,0,0,1025551.84627571,1025552.89334758,6,0,93,4,4
1,476,833.109167055227,0,0,1025554.78749063,1025555.83455904,6,0,72,8,0
1,477,687.590844114311,1,0,1025557.82281196,1025558.86989422,6,1,100,8,0
1,478,1047.31299472041,1,0,1025560.76403073,1025561.81110375,6,1,62,0,4
1,479,1329.59986291826,1,0,1025563.92877593,1025564.97584587,6,1,72,4,0
1,480,623.899437952787,1,0,1025567.34063796,1025568.38766402,6,1,87,4,8
1,481,806.933361571282,0,0,1025603.12926975,1025604.1881095,7,0,77,4,4
1,482,956.743229413405,1,0,1025606.03518375,1025607.08225755,7,1,91,8,4
1,483,515.904799802229,1,0,1025609.18816994,1025610.2352318,7,1,94,8,8
1,484,648.798328009434,1,0,1025611.8352666,1025612.88232962,7,1,76,16,16
1,485,622.057014843449,1,0,1025614.61176519,1025615.65883245,7,1,85,0,16
1,486,545.646883547306,1,0,1025617.34121386,1025618.38827996,7,1,84,16,4
1,487,620.728129637428,1,0,1025619.98830475,1025621.03536892,7,1,83,16,0
1,488,536.687302170321,0,0,1025622.78833331,1025623.8354021,7,0,68,4,4
1,489,536.899415776134,0,0,1025625.55310908,1025626.60014823,7,0,67,8,8
1,490,696.684391936287,0,0,1025628.29428519,1025629.34135938,7,0,94,0,8
1,491,565.060849883594,0,0,1025631.11785489,1025632.1649283,7,0,83,4,8
1,492,773.572259698994,0,0,1025633.75317752,1025634.80025286,7,0,61,0,16
1,493,402.9125982197,0,1,1025636.72967989,1025637.77676177,7,1,85,8,0
1,494,435.38405536674,1,0,1025639.34148487,1025640.38855713,7,1,63,16,0
1,495,518.57296412345,0,0,1025641.91799663,1025642.9650662,7,0,85,4,0
1,496,635.530648520216,1,0,1025644.56508098,1025645.61214438,7,1,61,8,16
1,497,504.757100250572,1,0,1025647.42393851,1025648.47101038,7,1,71,4,8
1,498,607.349966303445,0,0,1025650.05926922,1025651.1063307,7,0,62,0,4
1,499,581.070221378468,1,0,1025652.84754185,1025653.89460602,7,1,61,16,4
1,500,638.750846963376,0,0,1025655.49462542,1025656.54173771,7,0,61,4,0
1,501,503.826264641248,0,0,1025658.18878125,1025659.23584774,7,0,84,8,16
1,502,752.209236146882,1,0,1025660.76528031,1025661.81235411,7,1,100,16,0
1,503,499.608632409945,1,0,1025663.74179808,1025664.78885724,7,1,99,16,0
1,504,453.824455384165,0,0,1025666.44770946,1025667.49477248,7,0,94,0,8
1,505,640.305319335312,1,0,1025669.03597023,1025670.08303979,7,1,95,8,16
1,506,621.606225497089,0,0,1025671.84776898,1025672.89484316,7,0,98,16,8
1,507,855.896546272561,0,0,1025674.56544785,1025675.61256052,7,0,79,0,4
1,508,696.406450122595,0,0,1025677.58901362,1025678.63612206,7,0,93,16,16
1,509,620.136444573291,0,0,1025680.53022931,1025681.57731735,7,0,98,4,0
1,510,657.809494179673,0,0,1025683.22438244,1025684.2714701,7,0,84,0,8
1,511,580.211758380756,0,0,1025686.04794252,1025687.09501554,7,0,98,0,8
1,512,620.3789699357,0,0,1025688.81269095,1025689.85975435,7,0,89,4,16
1,513,908.559205709025,1,0,1025691.51860041,1025692.56567613,7,1,83,8,0
1,514,516.990774660371,1,0,1025694.64805816,1025695.69511117,7,1,76,4,8
1,515,480.888750753365,1,0,1025697.34220552,1025698.38932744,7,1,87,0,0
1,516,489.32940477971,1,0,1025700.07164957,1025701.11871104,7,1,77,8,4
1,517,527.136035845615,1,0,1025702.81285879,1025703.85993028,7,1,65,0,0
1,518,629.545275471173,1,0,1025705.5893647,1025706.63643965,7,1,73,16,8
1,519,648.053043638356,0,0,1025708.41293324,1025709.45999972,7,0,67,8,4
1,520,472.755680442788,1,0,1025711.1541417,1025712.2012101,7,1,87,0,0
1,521,686.492550536059,0,0,1025713.74240862,1025714.78947857,7,0,82,4,16
1,522,724.944376037456,0,0,1025716.61303595,1025717.66014324,7,0,70,0,16
1,523,638.791652861983,1,0,1025719.46012522,1025720.50723636,7,1,77,16,16
1,524,438.724746694788,1,0,1025722.35429252,1025723.40134399,7,1,87,16,16
1,525,547.351490822621,1,0,1025724.98960284,1025726.03667817,7,1,85,4,0
1,526,836.583824711852,1,0,1025727.75435011,1025728.80141621,7,1,72,4,4
1,527,732.029967475683,0,0,1025730.73085633,1025731.77798672,7,0,75,4,0
1,528,1384.73859138321,1,0,1025733.62500516,1025734.6720778,7,1,100,8,4
1,529,459.543820354156,0,0,1025737.07209882,1025738.11918031,7,0,64,4,8
1,530,420.108419493772,0,0,1025739.69567359,1025740.742742,7,0,74,4,4
1,531,496.826134505682,0,0,1025742.23689868,1025743.28400674,7,0,80,4,16
1,532,430.564729031175,1,0,1025744.82515098,1025745.87223401,7,1,77,0,8
1,533,505.085086915642,1,0,1025747.40164234,1025748.44871844,7,1,96,4,16
1,534,599.724659696221,0,0,1025750.03697151,1025751.08404723,7,0,66,8,8
1,535,706.01238089148,1,0,1025752.80172533,1025753.84877488,7,1,90,4,16
1,536,585.024540312588,0,0,1025755.71940297,1025756.76647022,7,0,83,16,8
1,537,415.691762347706,0,0,1025758.54296151,1025759.59003338,7,0,77,16,4
1,538,406.861912808381,0,0,1025761.06064584,1025762.10771271,7,0,95,4,4
1,539,520.78648970928,1,0,1025763.70773789,1025764.75480552,7,1,94,0,16
1,540,595.857726759277,1,0,1025766.46076657,1025767.50777646,7,1,61,16,0
1,541,684.918830054812,1,0,1025769.22544417,1025770.27251642,7,1,78,16,8
1,542,508.369188988581,1,0,1025772.15489391,1025773.20196848,7,1,91,8,8
1,543,1242.96516855247,0,0,1025774.82557059,1025775.87258433,7,0,93,8,16
1,544,488.583350437693,1,0,1025778.27266232,1025779.31968954,7,1,74,0,16
1,545,675.867627956904,1,0,1025780.97852174,1025782.02561709,7,1,91,16,4
1,546,407.568701193668,0,0,1025783.87268942,1025784.91976206,7,0,83,0,0
1,547,492.858342011459,0,0,1025786.53158591,1025787.57862005,7,0,90,0,4
1,548,517.821905319579,0,1,1025789.14333854,1025790.19041888,7,1,100,8,8
1,549,459.125752793625,0,0,1025791.86105398,1025792.90809505,7,0,65,16,4
1,550,958.657255279832,0,0,1025794.39050965,1025795.43753533,7,0,81,0,0
1,551,495.635065250099,0,0,1025797.54348698,1025798.59051458,7,0,61,0,4
1,552,724.000451737083,1,0,1025800.15523345,1025801.20232379,7,1,91,8,0
1,553,567.314026411623,0,0,1025803.07291378,1025804.11999758,7,0,93,8,16
1,554,827.237742487341,0,0,1025805.87296082,1025806.92003346,7,0,90,16,16
1,555,593.523708521388,1,0,1025808.89652582,1025809.94359731,7,1,61,8,4
1,556,618.833736749366,0,0,1025811.61421585,1025812.66132622,7,0,88,0,4
1,557,613.550917478278,1,0,1025814.35541507,1025815.4024881,7,1,80,8,0
1,558,634.07665095292,0,0,1025817.08486412,1025818.13193022,7,0,61,8,0
1,559,654.186626663432,0,0,1025819.83783775,1025820.884905,7,0,74,16,8
1,560,652.512046392076,1,0,1025822.72023179,1025823.76729635,7,1,73,4,8
1,561,508.9870513184,0,0,1025839.70867334,1025840.75574945,8,0,86,4,8
1,562,439.654042362235,0,1,1025842.29693681,1025843.34402484,8,1,93,4,8
1,563,634.428120334633,1,0,1025844.99112805,1025846.03818491,8,1,93,16,16
1,564,620.345093426295,1,0,1025847.8264202,1025848.87349438,8,1,78,8,4
1,565,456.990374368615,1,0,1025850.52056948,1025851.56764674,8,1,85,16,16
1,566,669.27825124003,0,0,1025853.19119226,1025854.2382599,8,0,83,8,4
1,567,707.016359083354,1,0,1025856.02652598,1025857.07361287,8,1,99,16,4
1,568,574.115131632425,1,0,1025858.97950069,1025860.02657526,8,1,92,8,16
1,569,483.701275545172,1,0,1025861.72072416,1025862.7677918,8,1,63,4,0
1,570,541.2252220558,0,0,1025864.34427545,1025865.39134425,8,0,66,8,8
1,571,651.531165931374,1,0,1025867.1090389,1025868.15610115,8,1,71,0,0
1,572,697.503973846324,1,0,1025869.9208107,1025870.96788257,8,1,97,16,8
1,573,597.084597335197,0,0,1025872.69732777,1025873.74437924,8,0,78,16,4
1,574,456.172332284041,0,0,1025875.40323531,1025876.45030333,8,0,88,0,4
1,575,420.762853114866,0,0,1025877.93275527,1025878.9797463,8,0,75,16,16
1,576,467.62723068241,0,0,1025880.59153242,1025881.6386143,8,0,76,16,0
1,577,453.203128417954,1,0,1025883.26215866,1025884.30922745,8,1,66,16,8
1,578,515.940986108035,1,0,1025885.80335911,1025886.85048103,8,1,64,0,8
1,579,442.663282155991,1,0,1025888.39163066,1025889.43869791,8,1,80,0,4
1,580,856.344640720636,0,0,1025890.97989374,1025892.02696561,8,0,87,0,16
1,581,541.711427737027,1,1,1025893.89757792,1025894.94465133,8,0,82,0,8
1,582,945.090846042149,1,0,1025896.57996126,1025897.62703736,8,1,89,4,4
1,583,547.03120328486,1,0,1025899.78000853,1025900.82707309,8,1,97,8,8
1,584,504.514959873632,1,0,1025902.50944988,1025903.55652599,8,1,84,4,4
1,585,882.377625792287,0,0,1025905.1918363,1025906.23890933,8,0,84,0,4
1,586,669.108868343756,0,0,1025908.23893512,1025909.28600699,8,0,63,16,8
1,587,493.270635139197,1,1,1025911.09778264,1025912.14488454,8,0,98,4,16
1,588,1785.03832186107,0,0,1025913.7919404,1025914.83901265,8,0,66,8,16
1,589,685.888931737281,0,0,1025917.7919966,1025918.83907194,8,0,94,8,8
1,590,540.81639344804,1,0,1025920.59203171,1025921.63912706,8,1,94,0,0
1,591,667.448146734387,1,0,1025923.38029625,1025924.42737159,8,1,89,4,16
1,592,475.670989835635,1,0,1025926.19209384,1025927.23916263,8,1,98,8,0
1,593,494.184147450142,1,0,1025928.76859559,1025929.81567209,8,1,96,8,16
1,594,870.190146728419,0,0,1025931.41568879,1025932.46276336,8,0,65,8,8
1,595,611.417848733254,1,0,1025934.3804383,1025935.42750709,8,1,91,16,0
1,596,415.821879170835,1,0,1025937.15697347,1025938.20401377,8,1,86,4,4
1,597,766.284178826027,0,0,1025939.78050051,1025940.82757315,8,0,74,16,4
1,598,547.716048778966,1,0,1025942.70996488,1025943.7570279,8,1,87,8,16
1,599,757.339225849137,0,0,1025945.34527635,1025946.39234514,8,0,79,4,0
1,600,515.047876629978,1,0,1025948.22766962,1025949.27473572,8,1,64,16,0
1,601,775.673761614598,0,0,1025950.921837,1025951.96894468,8,0,78,8,8
1,602,655.378080788068,1,0,1025953.91008569,1025954.9571641,8,1,71,4,8
1,603,408.012176165357,1,0,1025956.79247973,1025957.83954698,8,1,74,4,0
1,604,465.879507828504,1,0,1025959.38075513,1025960.42786241,8,1,67,4,16
1,605,670.5736448057,0,0,1025961.96901127,1025963.01608546,8,0,72,0,8
1,606,753.230537637137,0,0,1025964.71022281,1025965.75729507,8,0,79,8,0
1,607,776.399413123727,0,0,1025967.66319944,1025968.71026554,8,0,84,16,16
1,608,791.825568536296,0,0,1025970.65146891,1025971.69854425,8,0,98,4,4
1,609,576.652794377878,1,0,1025973.58091635,1025974.62799014,8,1,89,0,0
1,610,970.497884554788,0,0,1025976.22800954,1025977.27508219,8,0,100,8,4
1,611,766.924368799664,0,0,1025979.4162901,1025980.46335812,8,0,93,8,0
1,612,530.274237622507,0,0,1025982.2751357,1025983.32221373,8,0,65,0,16
1,613,665.775491390377,1,0,1025985.01635339,1025986.0634295,8,1,64,0,4
1,614,561.510739964433,1,0,1025987.85168634,1025988.89875667,8,1,100,0,0
1,615,577.371131512336,1,0,1025990.63994973,1025991.6870216,8,1,91,0,16
1,616,417.566522257403,1,0,1025993.31057597,1025994.35763552,8,1,95,0,4
1,617,958.403950906359,0,0,1025995.94590553,1025996.99297202,8,0,92,4,0
1,618,724.820803618059,1,0,1025999.12241899,1026000.16948201,8,1,70,0,16
1,619,534.561162814498,0,0,1026002.06362467,1026003.11069385,8,0,86,8,0
1,620,459.714357974008,1,0,1026004.82842122,1026005.87543265,8,1,85,0,8
1,621,516.533441026695,1,0,1026007.36958086,1026008.41664735,8,1,64,16,4
1,622,676.528990850784,0,0,1026010.07548955,1026011.12256027,8,0,98,4,4
1,623,795.01458525192,0,0,1026012.85199046,1026013.8990708,8,0,80,8,0
1,624,718.422367470339,1,0,1026015.8285063,1026016.87557625,8,1,79,16,0
1,625,715.228346409276,0,0,1026018.72265166,1026019.76972969,8,0,82,4,16
1,626,695.904845953919,0,0,1026021.66386504,1026022.71093537,8,0,72,4,8
1,627,545.079836156219,0,0,1026024.52272449,1026025.56979521,8,0,74,0,0
1,628,712.681829580106,1,0,1026027.14628618,1026028.19335613,8,1,72,16,8
1,629,880.636832327582,0,0,1026030.00519953,1026031.05221404,8,0,92,16,8
1,630,621.646646526642,1,0,1026033.099299,1026034.14637318,8,1,75,8,4
1,631,708.320221863687,0,0,1026035.88757163,1026036.93464004,8,0,73,8,16
1,632,671.47445352748,0,0,1026038.75820126,1026039.80526467,8,0,69,0,8
1,633,512.281932169572,0,0,1026041.65235548,1026042.69942504,8,0,67,4,8
1,634,1121.94268149324,1,0,1026044.28767695,1026045.33474767,8,1,91,8,4
1,635,672.106944373809,1,0,1026047.59359581,1026048.64066614,8,1,77,4,16
1,636,506.115242606029,1,0,1026050.40540456,1026051.45246758,8,1,76,16,16
1,637,714.352560229599,0,0,1026053.15837858,1026054.20544929,8,0,67,16,4
1,638,696.92306779325,0,0,1026056.09958849,1026057.14665267,8,0,95,16,0
1,639,599.84515234828,0,0,1026058.94668777,1026059.99376426,8,0,74,4,0
1,640,545.092924847268,0,0,1026061.65260031,1026062.6996718,8,0,65,0,16
1,641,630.813336931169,0,0,1026069.49979391,1026070.54682305,9,0,61,16,0
1,642,644.885969813913,0,0,1026072.21744583,1026073.26453734,9,0,67,4,0
1,643,686.819382244721,1,0,1026075.06452894,1026076.11160543,9,1,62,0,4
1,644,578.55950598605,0,0,1026078.00574502,1026079.05281035,9,0,79,8,0
1,645,466.637110919692,0,0,1026080.6646057,1026081.7116641,9,0,97,4,4
1,646,423.501850338653,0,0,1026083.29992718,1026084.3469952,9,0,67,16,4
1,647,409.580122097395,0,0,1026085.81762807,1026086.864673,9,0,69,0,16
1,648,609.16197753977,1,0,1026088.34704371,1026089.39411096,9,1,71,16,8
1,649,622.725307010114,0,0,1026091.18237935,1026092.22943429,9,0,87,8,16
1,650,513.411792577244,1,0,1026094.0059375,1026095.0530113,9,1,98,0,16
1,651,641.730059753172,1,0,1026096.68838821,1026097.73539579,9,1,71,4,16
1,652,543.240107712336,0,0,1026099.40600856,1026100.45307466,9,0,91,0,0
1,653,614.467124571092,1,0,1026102.07662365,1026103.12369167,9,1,99,0,4
1,654,443.200687645003,1,0,1026104.91195506,1026105.95902808,9,1,96,0,16
1,655,523.362648440525,0,0,1026107.42963939,1026108.47670433,9,0,75,0,0
1,656,872.841757722199,0,0,1026110.15908267,1026111.20615069,9,0,87,0,8
1,657,598.52781589143,1,0,1026113.19441593,1026114.24147201,9,1,79,8,8
1,658,461.433593649417,1,0,1026115.93562361,1026116.98268663,9,1,68,0,0
1,659,478.450407972559,0,0,1026118.53566188,1026119.58271873,9,0,76,16,0
1,660,505.345320678316,0,0,1026121.08862365,1026122.13569591,9,0,93,4,0
1,661,450.097263325006,1,0,1026123.6768952,1026124.72396053,9,1,78,4,16
1,662,750.824916525744,0,0,1026126.26517406,1026127.31224362,9,0,86,0,4
1,663,522.611589636654,1,0,1026129.17107844,1026130.2181915,9,1,77,4,0
1,664,667.428898741491,1,0,1026131.75934614,1026132.80644996,9,1,92,16,8
1,665,586.525503080338,1,0,1026134.55938048,1026135.6064485,9,1,72,8,0
1,666,770.019070012495,0,0,1026137.33588831,1026138.38298366,9,0,66,16,4
1,667,779.557247762568,0,0,1026140.21827273,1026141.26534729,9,0,89,16,8
1,668,515.596445999108,1,0,1026143.23007987,1026144.27715058,9,1,98,4,4
1,669,507.503411732614,0,0,1026145.98306197,1026147.03012498,9,0,64,0,4
1,670,610.515500302427,0,0,1026148.67719932,1026149.72427119,9,0,93,8,16
1,671,581.132585066371,1,0,1026151.40665068,1026152.45371331,9,1,93,8,16
1,672,519.260504399426,1,0,1026154.12433263,1026155.17140373,9,1,72,0,8
1,673,514.885038253851,0,0,1026156.80670865,1026157.85378476,9,0,72,0,0
1,674,720.415310352109,1,0,1026159.38321695,1026160.43029152,9,1,80,8,0
1,675,680.094499257393,0,0,1026162.17148534,1026163.21855529,9,0,100,8,4
1,676,512.930206488818,0,0,1026164.92446436,1026165.97153315,9,0,75,0,8
1,677,486.67278920766,1,0,1026167.5598201,1026168.60686541,9,1,97,16,16
1,678,572.374723153189,0,0,1026170.25394129,1026171.30100122,9,0,99,8,0
1,679,502.981275320053,1,0,1026172.92456176,1026173.97163286,9,1,73,8,16
1,680,694.012377876788,1,0,1026175.48929333,1026176.53636982,9,1,88,16,16
1,681,483.579627936706,0,0,1026178.31285841,1026179.35993182,9,0,68,8,0
1,682,863.451405079104,0,0,1026180.86583789,1026181.91290783,9,0,81,16,8
1,683,652.849657228217,1,0,1026183.84234064,1026184.88941328,9,1,98,4,16
1,684,861.441908869892,1,0,1026186.71297258,1026187.76003753,9,1,72,16,8
1,685,761.232721037231,0,0,1026189.76006794,1026190.8071375,9,0,94,16,4
1,686,398.701895377599,0,0,1026192.63068872,1026193.67775713,9,0,77,16,4
1,687,597.793695400469,0,0,1026195.2895444,1026196.33661589,9,0,99,4,0
1,688,598.248334368691,0,0,1026198.07781356,1026199.12488736,9,0,91,16,4
1,689,662.399383727461,1,0,1026200.87785136,1026201.92491977,9,1,70,8,8
1,690,547.525108209811,1,0,1026203.73671082,1026204.78377537,9,1,94,0,16
1,691,477.023357641883,1,0,1026206.37203768,1026207.41911033,9,1,70,4,4
1,692,533.247291110456,0,0,1026209.07794676,1026210.12502864,9,0,95,0,0
1,693,822.366446489468,0,0,1026211.74856492,1026212.79564295,9,0,84,0,4
1,694,617.578378994949,1,0,1026214.70154964,1026215.74861997,9,1,62,16,0
1,695,596.122964750975,1,0,1026217.38393375,1026218.43100523,9,1,91,16,16
1,696,530.62262723688,1,0,1026220.06632594,1026221.11339358,9,1,97,16,0
1,697,471.761711291038,1,0,1026222.66635304,1026223.71341144,9,1,84,4,8
1,698,527.862842078321,0,0,1026225.23112811,1026226.27817342,9,0,63,4,16
1,699,507.069945684634,1,0,1026227.88994607,1026228.93708107,9,1,72,8,4
1,700,480.435266741551,0,0,1026230.52527524,1026231.57234327,9,0,76,0,16
1,701,533.032867824659,1,0,1026233.19589726,1026234.24296951,9,1,64,4,8
1,702,536.137193092145,0,1,1026235.96064107,1026237.0077114,9,1,81,8,8
1,703,1.25742016825825,1,1,1026238.72537102,1026239.77244251,9,0,64,4,16
1,704,473.55293459259,1,0,1026240.93716307,1026241.98426073,9,1,74,8,8
1,705,601.434271316975,1,0,1026243.53720557,1026244.58426859,9,1,77,4,8
1,706,449.93134518154,1,0,1026246.31370763,1026247.36077219,9,1,64,4,8
1,707,1301.59934249241,0,0,1026248.84314829,1026249.8902217,9,0,98,4,0
1,708,528.231249772944,0,0,1026252.33730843,1026253.38437761,9,0,67,8,4
1,709,773.212321219034,1,0,1026255.07851688,1026256.12558683,9,1,72,4,4
1,710,734.103752183728,1,0,1026258.07856193,1026259.12562379,9,1,91,4,8
1,711,767.290851799771,0,0,1026260.99624534,1026262.04331221,9,0,73,16,16
1,712,798.553916276433,0,0,1026263.86686804,1026264.91393299,9,0,72,0,8
1,713,551.382031990215,1,0,1026266.90219514,1026267.94926316,9,1,83,16,16
1,714,557.220734888688,0,0,1026269.65517455,1026270.70224103,9,0,86,8,16
1,715,494.666888494976,0,0,1026272.27873393,1026273.32580695,9,0,78,4,4
1,716,544.524722383358,1,0,1026275.01993507,1026276.06702041,9,1,97,16,0
1,717,575.71387453936,1,0,1026277.67880306,1026278.72587032,9,1,85,0,8
1,718,582.404496031813,1,0,1026280.32593014,1026281.37296082,9,1,100,8,8
1,719,448.753364617005,0,0,1026282.99656678,1026284.04358976,9,0,96,8,4
1,720,800.238120486028,0,0,1026285.6671322,1026286.71420369,9,0,63,8,4
