sub_id,Trial,RT,Resp,Error,Fix_onset,Disp_onset,block,tid,tloc,fish_setsize,bird_setsize
15,1,949.671385576949,1,0,1073023.80506288,1073024.85213571,1,1,100,8,8
15,2,615.704532479867,1,0,1073026.9580304,1073028.00504741,1,1,100,0,8
15,3,724.991135532036,1,0,1073029.7697368,1073030.81678037,1,1,78,4,4
15,4,568.314885953441,0,0,1073032.67559963,1073033.72265205,1,0,75,0,8
15,5,687.76218756102,0,0,1073035.35797289,1073036.40497911,1,0,80,4,16
15,6,555.254650069401,0,0,1073038.134379,1073039.18143527,1,0,98,4,0
15,7,482.013235334307,0,1,1073040.76965596,1073041.81670145,1,1,90,4,4
15,8,850.380332442001,1,0,1073043.47552194,1073044.5225605,1,1,62,16,16
15,9,635.14359598048,0,0,1073046.41667658,1073047.46372207,1,0,78,0,16
15,10,512.621599249542,0,0,1073049.24017939,1073050.28723912,1,0,90,4,16
15,11,558.723546564579,0,0,1073051.85199635,1073052.8989968,1,0,93,0,16
15,12,729.455929948017,1,0,1073054.64014805,1073055.68720124,1,1,97,8,16
15,13,560.157146770507,0,0,1073057.52247812,1073058.56953208,1,0,93,4,16
15,14,702.192119788378,1,0,1073060.21657657,1073061.26363053,1,1,73,16,0
15,15,693.375709932297,0,0,1073063.07538159,1073064.122434,1,0,97,0,16
15,16,721.350160660222,0,0,1073065.92242215,1073066.96946879,1,0,89,16,16
15,17,675.886096199974,1,0,1073068.80505903,1073069.85184698,1,1,83,0,0
15,18,534.554834477603,1,0,1073071.53414518,1073072.5811949,1,1,73,4,8
15,19,525.154821574688,0,0,1073074.21653538,1073075.2635416,1,0,98,4,8
15,20,649.431092198938,0,0,1073076.98116318,1073078.02821445,1,0,95,8,8
15,21,609.670246019959,1,0,1073079.79290654,1073080.83995896,1,1,84,0,0
15,22,612.864664522931,1,0,1073082.51053659,1073083.5575867,1,1,97,4,16
15,23,579.55424929969,1,0,1073085.19288829,1073086.23991415,1,1,66,8,4
15,24,513.234074460343,1,0,1073088.02814631,1073089.07518872,1,1,78,16,4
15,25,661.661733873189,0,0,1073090.74577328,1073091.79280991,1,0,62,8,4
15,26,679.616767214611,0,0,1073093.63986818,1073094.68692137,1,0,81,16,0
15,27,598.352735396475,1,0,1073096.4280861,1073097.47513583,1,1,77,0,4
15,28,544.993861112744,0,0,1073099.26335759,1073100.31040385,1,0,79,8,0
15,29,600.334136979654,0,0,1073102.02804044,1073103.07509286,1,0,87,0,4
15,30,540.443604812026,1,0,1073104.78101274,1073105.82801588,1,1,78,16,16
15,31,593.016770901158,0,0,1073107.4162358,1073108.46328938,1,0,72,4,0
15,32,460.753684397787,0,0,1073110.25155618,1073111.29859089,1,0,85,0,0
15,33,617.112725041807,0,0,1073112.86326458,1073113.91031123,1,0,82,16,4
15,34,792.598624713719,0,0,1073115.68676277,1073116.73381904,1,0,90,4,8
15,35,478.489289060235,1,0,1073118.68674429,1073119.73379248,1,1,84,8,8
15,36,722.346058581024,1,0,1073121.32201278,1073122.36907482,1,1,80,16,8
15,37,468.299718108028,0,0,1073124.16906066,1073125.21611154,1,0,69,0,8
15,38,534.891676623374,1,0,1073126.80433376,1073127.8514216,1,1,97,0,4
15,39,447.648792993277,1,0,1073129.53372557,1073130.58077337,1,1,67,8,4
15,40,430.174577748403,1,0,1073132.21605572,1073133.26310159,1,1,78,8,16
15,41,655.021131737158,0,0,1073134.75721282,1073135.80426947,1,0,62,16,4
15,42,713.985444046557,0,0,1073137.51015239,1073138.55718634,1,0,84,4,8
15,43,493.316887645051,1,0,1073140.46305878,1073141.51010812,1,1,74,16,4
15,44,727.609650231898,0,0,1073143.14544744,1073144.19244289,1,0,70,16,8
15,45,533.570485655218,1,0,1073146.08654781,1073147.13360484,1,1,61,4,4
15,46,479.463628958911,0,0,1073148.82770483,1073149.87476264,1,0,72,4,0
15,47,631.639667786658,0,0,1073151.48651493,1073152.53356081,1,0,90,4,16
15,48,693.040407728404,0,0,1073154.31002004,1073155.35706938,1,0,72,4,0
15,49,566.304996842518,0,0,1073157.07470328,1073158.12175301,1,0,71,8,8
15,50,715.797077398747,1,0,1073159.89824497,1073160.9452689,1,1,69,8,8
15,51,735.092164948583,1,0,1073162.66289163,1073163.70994713,1,1,78,16,8
15,52,657.745895907283,0,0,1073165.6393454,1073166.68639243,1,0,92,4,0
15,53,685.425850329921,0,0,1073168.42762953,1073169.47462075,1,0,90,8,4
15,54,701.596582774073,0,0,1073171.33342114,1073172.38047087,1,0,80,0,0
15,55,597.540849586949,1,0,1073174.22752105,1073175.27456693,1,1,70,16,16
15,56,545.125133125111,0,0,1073176.90985351,1073177.95689784,1,0,82,4,4
15,57,624.068226432428,1,0,1073179.66277229,1073180.70982048,1,1,89,8,4
15,58,616.083335597068,1,0,1073182.41569416,1073183.46274465,1,1,63,8,0
15,59,547.169283730909,0,0,1073185.26273626,1073186.30977906,1,0,83,8,0
15,60,674.404375720769,0,0,1073187.874477,1073188.92152904,1,0,64,8,0
15,61,486.562721431255,1,0,1073190.78033905,1073191.82738608,1,1,87,8,16
15,62,688.149459660053,1,0,1073193.35678952,1073194.40383501,1,1,70,16,0
15,63,415.390480076894,0,1,1073196.18030079,1073197.22735051,1,1,92,0,4
15,64,707.0476510562,1,0,1073198.75674394,1073199.80379982,1,1,86,16,0
15,65,680.997242452577,1,0,1073201.60378719,1073202.65084462,1,1,72,16,8
15,66,584.690418327227,1,0,1073204.39206863,1073205.43904791,1,1,68,0,8
15,67,617.837994359434,0,0,1073207.19198709,1073208.23902835,1,0,96,8,16
15,68,688.412774121389,0,0,1073210.02725204,1073211.07430562,1,0,70,16,8
15,69,420.251015806571,1,0,1073212.92134387,1073213.96839513,1,1,68,4,8
15,70,587.832481600344,1,0,1073215.39191695,1073216.43901287,1,1,94,0,4
15,71,555.097200209275,1,0,1073218.15660982,1073219.20365415,1,1,93,16,4
15,72,572.326579364017,1,0,1073220.92128997,1073221.96833777,1,1,87,0,0
15,73,548.376141116023,1,0,1073223.56832137,1073224.61541344,1,1,67,8,16
15,74,725.147045217454,0,0,1073226.30948649,1073227.35653737,1,0,63,16,16
15,75,417.572832200676,1,0,1073229.28593564,1073230.33298421,1,1,63,16,0
15,76,629.377628443763,0,0,1073231.81532521,1073232.86237532,1,0,61,8,0
15,77,605.068405158818,0,0,1073234.65060055,1073235.69767799,1,0,69,0,16
15,78,407.334756106138,1,0,1073237.30940064,1073238.35645075,1,1,83,0,8
15,79,466.998930089176,0,0,1073239.85056275,1073240.8976117,1,0,79,0,16
15,80,443.826885893941,0,0,1073242.39172486,1073243.43883464,1,0,69,4,4
15,81,2500,-1,-1,1073278.13263897,1073279.179681,2,0,99,4,4
15,82,983.034155797213,0,0,1073283.39147617,1073284.43847701,2,0,90,16,8
15,83,715.992253273726,1,0,1073286.45020989,1073287.4972627,2,1,62,16,8
15,84,518.55733525008,1,0,1073289.37960432,1073290.42664711,2,1,84,0,8
15,85,626.564708072692,1,0,1073292.12075711,1073293.16780645,2,1,97,16,4
15,86,603.512002155185,0,0,1073294.81485748,1073295.86189989,2,0,100,16,16
15,87,564.653507899493,1,0,1073297.53248291,1073298.57953725,2,1,67,4,8
15,88,569.496335461736,0,0,1073300.16775448,1073301.21479997,2,0,69,0,0
15,89,544.459918048233,0,0,1073302.81479396,1073303.86183522,2,0,87,0,4
15,90,581.166086951271,0,0,1073305.60300611,1073306.65005737,2,0,77,16,16
15,91,575.096384156495,1,0,1073308.25004713,1073309.29708839,2,1,99,0,16
15,92,572.553707286716,0,0,1073310.96767756,1073312.01472382,2,0,70,4,0
15,93,565.463853767142,1,0,1073313.72059712,1073314.76764299,2,1,86,4,16
15,94,698.874898254871,0,0,1073316.39116089,1073317.43821369,2,0,72,16,16
15,95,615.146336844191,0,0,1073319.20290501,1073320.24995666,2,0,63,4,16
15,96,472.638245206326,0,0,1073322.02641282,1073323.07346332,2,0,66,0,8
15,97,685.37465040572,0,0,1073324.61462658,1073325.66168478,2,0,81,8,0
15,98,717.582918237895,1,0,1073327.4263761,1073328.47341889,2,1,90,8,4
15,99,730.989620322362,1,0,1073330.28520729,1073331.33223276,2,1,95,8,0
15,100,523.302767192945,0,1,1073333.108687,1073334.1557271,2,1,78,8,8
15,101,654.236963251606,0,0,1073335.80278044,1073336.84982978,2,0,74,4,16
15,102,508.194915950298,1,0,1073338.5086418,1073339.55569384,2,1,69,16,16
15,103,466.773727210239,0,0,1073341.13215084,1073342.17921096,2,0,85,0,16
15,104,428.41375945136,0,0,1073343.81448176,1073344.86153187,2,0,75,16,8
15,105,483.757500303909,1,0,1073346.47328493,1073347.52034235,2,1,78,0,4
15,106,508.987938752398,1,0,1073349.03797286,1073350.08507378,2,1,95,0,0
15,107,661.585126304999,1,0,1073351.76736467,1073352.81441016,2,1,61,8,16
15,108,496.217964449897,0,0,1073354.55558335,1073355.60267388,2,0,88,0,16
15,109,433.441369095817,1,0,1073357.12026513,1073358.16730946,2,1,82,4,4
15,110,471.208879491314,0,0,1073359.75553631,1073360.80258719,2,0,65,8,8
15,111,478.212886024266,1,1,1073362.35552414,1073363.40256694,2,0,91,0,16
15,112,763.335319701582,0,0,1073365.00255708,1073366.0496095,2,0,82,16,8
15,113,651.92102920264,0,0,1073367.88489177,1073368.9319723,2,0,92,16,0
15,114,581.693100510165,1,0,1073370.67314819,1073371.72017828,2,1,81,4,0
15,115,586.653341772035,1,0,1073373.3789622,1073374.42601693,2,1,93,16,4
15,116,587.996475631371,1,0,1073376.08485551,1073377.13192256,2,1,68,0,4
15,117,659.773108083755,1,0,1073378.88480785,1073379.93190608,2,1,61,16,4
15,118,589.030484901741,0,0,1073381.63772202,1073382.68478175,2,0,87,4,8
15,119,456.448264652863,0,1,1073384.46123445,1073385.50827724,2,1,87,8,4
15,120,633.663415443152,0,0,1073387.02595472,1073388.07296171,2,0,71,16,16
15,121,677.527191117406,0,0,1073389.70825715,1073390.7553061,2,0,80,4,0
15,122,680.281212553382,0,0,1073392.55528424,1073393.60233396,2,0,68,8,8
15,123,634.178110165522,1,0,1073395.28467989,1073396.33173347,2,1,70,8,8
15,124,645.190730923787,0,0,1073397.99054164,1073399.03759136,2,0,71,0,4
15,125,656.510551460087,1,0,1073400.81404329,1073401.86109417,2,1,73,0,4
15,126,566.761947236955,1,0,1073403.62579819,1073404.67284522,2,1,71,0,16
15,127,734.323010081425,1,0,1073406.29635773,1073407.34340514,2,1,63,4,8
15,128,735.42592744343,0,0,1073409.2492749,1073410.29632808,2,0,77,8,8
15,129,594.80299660936,0,0,1073412.1316042,1073413.17869858,2,0,69,4,8
15,130,645.089485682547,1,0,1073414.89630091,1073415.94334409,2,1,96,16,8
15,131,504.127403022721,1,0,1073417.63745254,1073418.68449573,2,1,66,16,0
15,132,476.359677035362,0,0,1073420.24919213,1073421.29624532,2,0,67,0,8
15,133,644.635229837149,0,0,1073422.91975859,1073423.96681024,2,0,91,0,8
15,134,456.134905107319,1,0,1073425.79032421,1073426.83737548,2,1,96,8,0
15,135,563.31614847295,1,0,1073428.29619296,1073429.34323845,2,1,100,4,0
15,136,1008.0663387198,1,0,1073430.93150264,1073431.97851734,2,1,100,4,8
15,137,588.580848649144,0,0,1073434.01379645,1073435.06083655,2,0,77,8,4
15,138,417.936236830428,0,1,1073436.77854705,1073437.82554789,2,1,67,0,0
15,139,777.528499951586,1,0,1073439.30786156,1073440.3549186,2,1,79,16,4
15,140,650.031633442268,0,0,1073442.1784368,1073443.22551771,2,0,63,8,16
15,141,711.780379293486,1,0,1073444.97841648,1073446.025502,2,1,100,16,0
15,142,475.255604600534,0,0,1073447.80192505,1073448.84897439,2,0,62,8,0
15,143,748.623209772632,0,0,1073450.46073053,1073451.50776717,2,0,93,16,0
15,144,554.861988406628,1,0,1073453.33128806,1073454.37834241,2,1,84,4,4
15,145,533.491953043267,0,0,1073456.01362091,1073457.06067294,2,0,73,8,16
15,146,617.003010585904,0,0,1073458.63713033,1073459.68418044,2,0,68,4,4
15,147,546.308122808114,1,0,1073461.44887138,1073462.49592688,2,1,64,4,4
15,148,440.374542493373,0,0,1073464.09591356,1073465.14296636,2,0,74,0,0
15,149,576.267439872026,0,0,1073466.64882934,1073467.69588022,2,0,72,8,4
15,150,621.541718021035,0,0,1073469.3076275,1073470.35468608,2,0,91,8,0
15,151,516.88351854682,1,0,1073472.11938433,1073473.16642443,2,1,63,8,4
15,152,368.952845456079,1,0,1073474.87230158,1073475.91935708,2,1,74,0,0
15,153,504.973165458068,0,0,1073477.37816148,1073478.42520889,2,0,96,8,16
15,154,448.444125242531,0,1,1073479.95461386,1073481.0016582,2,1,82,4,16
15,155,436.310494085774,0,0,1073482.54282377,1073483.5898812,2,0,90,0,8
15,156,480.739009799436,1,0,1073485.11927808,1073486.16633435,2,1,93,4,0
15,157,518.809485482052,1,0,1073487.6722443,1073488.71924628,2,1,93,16,4
15,158,431.231684749946,1,0,1073490.29570676,1073491.34276187,2,1,94,4,16
15,159,588.747922331095,0,0,1073492.81332957,1073493.86038045,2,0,63,16,0
15,160,654.808632330969,1,0,1073495.66037398,1073496.70742024,2,1,89,8,16
15,161,576.018754160032,1,0,1073504.27214243,1073505.31914327,3,1,99,0,4
15,162,443.301026942208,0,0,1073507.03675291,1073508.08380495,3,0,97,4,16
15,163,425.968093331903,0,0,1073509.71912156,1073510.7661351,3,0,97,8,4
15,164,492.013404611498,0,0,1073512.27200847,1073513.31909669,3,0,99,0,16
15,165,585.749449906871,0,0,1073514.96610268,1073516.01316396,3,0,76,8,8
15,166,638.097027782351,1,0,1073517.68372426,1073518.73076706,3,1,96,4,0
15,167,809.833393199369,1,0,1073520.41312607,1073521.46017195,3,1,69,4,4
15,168,577.654459513724,1,0,1073523.35427302,1073524.40132313,3,1,75,0,8
15,169,543.355460744351,0,0,1073526.03660355,1073527.08365751,3,0,89,0,16
15,170,561.325122602284,1,1,1073528.68364842,1073529.73069314,3,0,82,0,16
15,171,719.36490922235,1,0,1073531.49538408,1073532.54243457,3,1,91,4,8
15,172,688.651835778728,1,0,1073534.40125037,1073535.44829701,3,1,64,16,8
15,173,531.782334903255,0,0,1073537.16595016,1073538.21298295,3,0,86,4,4
15,174,682.627943344414,1,0,1073539.94237976,1073540.98943218,3,1,75,0,8
15,175,599.109956296161,1,0,1073542.83648044,1073543.88352246,3,1,84,4,0
15,176,638.639824930578,1,0,1073545.55410279,1073546.60115059,3,1,89,0,0
15,177,526.567248627543,0,0,1073548.29526174,1073549.34230376,3,0,98,0,0
15,178,659.653769806027,1,0,1073551.00112041,1073552.0481632,3,1,94,16,0
15,179,724.384819623083,1,0,1073553.83639459,1073554.88344393,3,1,99,4,0
15,180,530.310238478705,0,0,1073556.69518806,1073557.74224163,3,0,78,4,16
15,181,709.328168537468,0,0,1073559.34222908,1073560.38927611,3,0,62,16,0
15,182,599.792109802365,0,0,1073562.15397475,1073563.20101485,3,0,70,4,16
15,183,579.451079247519,0,0,1073564.84806511,1073565.89512023,3,0,100,16,8
15,184,669.371376745403,1,0,1073567.6362838,1073568.6833289,3,1,92,4,4
15,185,730.882215779275,1,0,1073570.51861079,1073571.56573135,3,1,90,0,8
15,186,582.0896117948,1,0,1073573.33038802,1073574.37740964,3,1,71,4,8
15,187,643.210868816823,0,0,1073575.97739017,1073577.02444605,3,0,97,0,8
15,188,661.18091577664,1,0,1073578.87149008,1073579.91854442,3,1,72,8,0
15,189,660.513005917892,0,0,1073581.64793469,1073582.69498672,3,0,82,16,4
15,190,497.456773882732,1,0,1073584.43614875,1073585.48319694,3,1,71,4,8
15,191,592.771549941972,1,0,1073587.05965548,1073588.10671137,3,1,75,4,16
15,192,474.10803171806,0,0,1073589.87140077,1073590.91845126,3,0,65,0,4
15,193,625.195011729375,0,0,1073592.43608908,1073593.48313188,3,0,71,4,16
15,194,521.147362655029,1,0,1073595.28312618,1073596.33019516,3,1,67,8,0
15,195,619.479474145919,1,0,1073597.89486846,1073598.94191819,3,1,82,16,8
15,196,565.528142731637,1,0,1073600.69482773,1073601.74189824,3,1,72,16,8
15,197,555.110674118623,0,0,1073603.33011778,1073604.37716635,3,0,67,8,4
15,198,517.620721366256,0,0,1073605.95366147,1073607.00067847,3,0,67,8,8
15,199,481.475827749819,1,0,1073608.63595658,1073609.68300785,3,1,61,0,8
15,200,605.936110485345,1,0,1073611.31829558,1073612.36534146,3,1,70,0,16
15,201,528.413913678378,1,0,1073614.08297381,1073615.13002854,3,1,73,16,8
15,202,468.071820447221,0,0,1073616.76531397,1073617.81235446,3,0,75,16,0
15,203,656.386978458613,0,0,1073619.43587274,1073620.482924,3,0,99,16,16
15,204,635.796492453665,0,0,1073622.24761917,1073623.29466466,3,0,91,4,8
15,205,496.584063861519,1,0,1073625.09465396,1073626.14169945,3,1,62,0,4
15,206,679.662962676957,1,0,1073627.7534629,1073628.80050531,3,1,70,0,4
15,207,775.853143306449,0,0,1073630.6005127,1073631.64754126,3,0,68,8,4
15,208,715.568024665117,0,0,1073633.60049807,1073634.64751585,3,0,73,16,0
15,209,521.659747464582,1,1,1073636.40048044,1073637.44749283,3,0,97,16,16
15,210,820.792119018734,1,0,1073639.05925127,1073640.10633642,3,1,98,8,16
15,211,772.332661785185,1,0,1073641.97687355,1073643.02392173,3,1,90,16,0
15,212,732.818961841986,1,0,1073644.84743108,1073645.89449389,3,1,70,16,16
15,213,601.379310013726,1,0,1073647.63565631,1073648.68270603,3,1,63,4,8
15,214,449.231758480892,1,0,1073650.32975437,1073651.37679832,3,1,65,0,0
15,215,697.424359852448,0,0,1073653.03561419,1073654.08265468,3,0,71,16,4
15,216,636.765057686716,1,0,1073655.89440959,1073656.94146624,3,1,88,0,4
15,217,442.344502313063,0,0,1073658.62379908,1073659.6706439,3,0,65,8,16
15,218,631.055679870769,0,0,1073661.27084511,1073662.31789176,3,0,86,8,16
15,219,512.126922374591,1,0,1073664.02376197,1073665.070809,3,1,75,4,0
15,220,516.751861432567,0,0,1073666.70609751,1073667.75316379,3,0,94,0,16
15,221,764.832053566352,0,0,1073669.30607225,1073670.35314739,3,0,91,8,8
15,222,498.357585631311,0,0,1073672.27074772,1073673.31779898,3,0,85,16,4
15,223,656.621805625036,1,0,1073674.84720549,1073675.89424944,3,1,71,4,4
15,224,698.126531438902,1,0,1073677.62365472,1073678.67071368,3,1,97,16,4
15,225,640.39140404202,0,0,1073680.57656688,1073681.62361545,3,0,89,8,0
15,226,520.924469223246,0,0,1073683.40008393,1073684.44713443,3,0,65,16,16
15,227,761.977557092905,0,0,1073686.01181697,1073687.05887247,3,0,98,16,16
15,228,579.929587664083,1,0,1073688.85885137,1073689.9059088,3,1,72,0,0
15,229,728.87848620303,0,0,1073691.64707622,1073692.69411825,3,0,82,8,0
15,230,610.299659660086,1,0,1073694.57646102,1073695.62350459,3,1,93,4,4
15,231,534.923628438264,0,0,1073697.25878539,1073698.30583319,3,0,98,0,0
15,232,680.933338822797,1,0,1073699.8587713,1073700.90582796,3,1,81,8,8
15,233,618.193314643577,0,0,1073702.67030803,1073703.71756323,3,0,89,4,0
15,234,714.69569997862,0,0,1073705.38813893,1073706.43519135,3,0,99,16,4
15,235,601.335039362311,1,0,1073708.32929434,1073709.37634484,3,1,86,8,16
15,236,499.281880678609,0,1,1073711.17633298,1073712.22337732,3,1,98,8,8
15,237,780.03960987553,0,0,1073713.76454443,1073714.81159647,3,0,81,8,16
15,238,603.76068786718,0,0,1073716.79985935,1073717.84686133,3,0,98,8,4
15,239,632.615547627211,0,0,1073719.5880276,1073720.63507348,3,0,82,8,0
15,240,612.038919935003,1,0,1073722.41152733,1073723.45858052,3,1,96,8,4
15,241,800.364471971989,0,0,1073758.27007634,1073759.31712491,4,0,96,8,8
15,242,558.399793226272,1,0,1073761.27004593,1073762.31708487,4,1,94,0,0
15,243,519.469311228022,0,0,1073764.08179198,1073765.1288317,4,0,97,4,16
15,244,608.94651664421,0,0,1073766.75235844,1073767.79940547,4,0,90,8,0
15,245,545.496621867642,1,0,1073769.48174717,1073770.52878881,4,1,65,16,4
15,246,484.709897311404,0,0,1073772.14055688,1073773.18766743,4,0,85,4,4
15,247,728.655208135024,0,0,1073774.77582191,1073775.8228674,4,0,70,16,4
15,248,570.934555027634,1,0,1073777.64649993,1073778.69343532,4,1,70,8,0
15,249,638.204432325438,1,0,1073780.45812626,1073781.50517406,4,1,98,0,8
15,250,627.724984893575,0,0,1073783.23459243,1073784.28161213,4,0,82,4,16
15,251,711.525919148698,1,0,1073785.92867086,1073786.97572366,4,1,78,4,0
15,252,764.146435307339,1,0,1073788.81100093,1073789.85805527,4,1,69,8,16
15,253,638.922387268394,0,0,1073791.79920683,1073792.84626002,4,0,100,8,0
15,254,718.076440040022,0,0,1073794.6462524,1073795.69329674,4,0,81,4,0
15,255,523.682340048254,1,0,1073797.43449649,1073798.48150079,4,1,77,8,16
15,256,585.055362666026,0,0,1073800.10502292,1073801.15207804,4,0,96,0,16
15,257,571.255228947848,1,0,1073802.75206857,1073803.79911521,4,1,66,16,16
15,258,707.562730880454,1,0,1073805.42263272,1073806.4696863,4,1,88,16,8
15,259,523.605732712895,1,0,1073808.18732135,1073809.23442728,4,1,75,8,8
15,260,588.253245688975,1,0,1073810.85788743,1073811.90493638,4,1,81,0,4
15,261,552.629975834861,1,0,1073813.63433897,1073814.68140294,4,1,95,0,8
15,262,543.314654612914,1,0,1073816.30489581,1073817.35195015,4,1,72,4,8
15,263,736.563491402194,0,0,1073818.91664502,1073819.96368666,4,0,80,16,0
15,264,622.650024946779,1,0,1073821.72838414,1073822.77543078,4,1,87,0,16
15,265,600.707165664062,0,0,1073824.43425204,1073825.48129291,4,0,89,0,0
15,266,582.850682782009,0,0,1073827.14010032,1073828.18718892,4,0,64,8,16
15,267,733.947286615148,0,0,1073829.84596476,1073830.89301179,4,0,91,4,4
15,268,594.584338134155,1,0,1073832.72829406,1073833.77534686,4,1,67,16,16
15,269,417.184020159766,0,0,1073835.39886437,1073836.44591102,4,0,76,0,8
15,270,673.200213117525,0,0,1073837.99883026,1073839.04587768,4,0,90,8,4
15,271,488.819371443242,1,0,1073840.78706358,1073841.83410522,4,1,76,16,4
15,272,615.915491944179,1,0,1073843.43415696,1073844.48114162,4,1,79,4,8
15,273,661.66096390225,1,0,1073846.11641704,1073847.16347023,4,1,98,0,8
15,274,570.626200176775,0,0,1073848.9752286,1073850.02226716,4,0,95,16,16
15,275,533.398407278582,0,0,1073851.76343458,1073852.81048431,4,0,65,4,4
15,276,498.955817427486,1,0,1073854.53988843,1073855.58692276,4,1,67,16,4
15,277,558.686590287834,1,0,1073857.26927408,1073858.31631995,4,1,62,8,0
15,278,691.499017877504,0,0,1073859.91632896,1073860.96336406,4,0,98,16,0
15,279,557.424298254773,0,0,1073862.76334104,1073863.81038845,4,0,87,8,4
15,280,561.365928966552,1,0,1073865.56332649,1073866.61036428,4,1,91,16,8
15,281,789.977800566703,0,0,1073868.18683437,1073869.23393992,4,0,61,16,0
15,282,554.199468111619,0,0,1073871.09268988,1073872.13973576,4,0,64,8,8
15,283,550.603533629328,0,0,1073873.71619507,1073874.76325057,4,0,77,8,4
15,284,760.114338714629,1,0,1073876.38677039,1073877.43381088,4,1,90,4,8
15,285,630.746169947088,0,0,1073879.22203957,1073880.26908506,4,0,99,16,0
15,286,702.9297077097,0,0,1073882.03377754,1073883.08086653,4,0,82,8,8
15,287,638.423091033474,0,0,1073884.85728342,1073885.90433045,4,0,80,0,0
15,288,725.346070947126,0,0,1073887.62195473,1073888.66931897,4,0,93,8,8
15,289,580.120528815314,1,0,1073890.53959394,1073891.58663904,4,1,68,16,16
15,290,542.753764661029,1,0,1073893.32780377,1073894.37491509,4,1,69,8,16
15,291,542.32491645962,1,0,1073895.99837062,1073897.04542188,4,1,72,4,16
15,292,652.780650416389,0,0,1073898.6807612,1073899.72775703,4,0,93,0,4
15,293,561.807865742594,0,0,1073901.42188089,1073902.46890906,4,0,83,0,4
15,294,647.976319072768,1,0,1073904.08064633,1073905.12773455,4,1,100,0,8
15,295,487.671798327938,0,1,1073906.82180836,1073907.86886001,4,1,100,0,16
15,296,619.74971764721,0,0,1073909.42183046,1073910.46883745,4,0,66,4,0
15,297,503.896810347214,1,0,1073912.28058967,1073913.32769521,4,1,69,0,16
15,298,637.855656445026,1,0,1073914.92763646,1073915.97467733,4,1,80,4,16
15,299,524.024186655879,0,0,1073917.73937135,1073918.78642069,4,0,78,16,16
15,300,655.931182904169,0,0,1073920.32763246,1073921.37463407,4,0,61,0,0
15,301,668.676904402673,1,0,1073923.16285776,1073924.20990671,4,1,93,4,8
15,302,519.375380361453,1,0,1073925.95111648,1073926.99811731,4,1,74,0,4
15,303,607.349692378193,0,0,1073928.55104695,1073929.5980986,4,0,61,4,0
15,304,665.90940952301,1,0,1073931.28043299,1073932.32754623,4,1,78,0,4
15,305,491.613428806886,0,1,1073934.05688722,1073935.1039354,4,1,62,8,16
15,306,634.131529601291,1,0,1073936.64509751,1073937.69214839,4,1,89,0,16
15,307,610.470198094845,1,0,1073939.35096542,1073940.39801322,4,1,64,16,8
15,308,673.665247857571,0,0,1073942.05681793,1073943.10386958,4,0,74,8,0
15,309,556.28134473227,1,0,1073944.84503353,1073945.89208634,4,1,79,8,4
15,310,680.269663687795,1,0,1073947.64500859,1073948.69206178,4,1,66,16,0
15,311,591.793360188603,0,0,1073950.57444882,1073951.62144581,4,0,64,4,0
15,312,687.148942379281,0,0,1073953.23325314,1073954.28025167,4,0,80,4,8
15,313,686.281622154638,0,0,1073956.09199926,1073957.13904475,4,0,72,4,4
15,314,553.753681480885,1,0,1073959.02140369,1073960.06844841,4,1,85,0,0
15,315,664.159755222499,0,0,1073961.68019531,1073962.72723464,4,0,67,16,8
15,316,694.423962617293,1,0,1073964.456643,1073965.50368772,4,1,71,4,16
15,317,712.237714556977,1,0,1073967.38605783,1073968.43307868,4,1,69,16,8
15,318,738.402456976473,0,0,1073970.30364738,1073971.35069518,4,0,81,8,4
15,319,592.905516736209,0,0,1073973.12716019,1073974.17420645,4,0,81,16,4
15,320,635.856546461582,0,0,1073975.77419813,1073976.82129136,4,0,62,4,4
15,321,644.165575737134,0,0,1073982.52707958,1073983.57413277,5,0,92,4,4
15,322,677.013651235029,0,0,1073985.2329394,1073986.27999066,5,0,88,8,16
15,323,591.46806714125,0,0,1073988.05644798,1073989.10350078,5,0,93,4,8
15,324,466.757173649967,1,0,1073990.86821135,1073991.91524837,5,1,95,8,4
15,325,633.956371806562,0,0,1073993.52699797,1073994.57403691,5,0,100,16,16
15,326,656.784259714186,1,0,1073996.36226638,1073997.4093111,5,1,93,0,4
15,327,773.781275609508,1,0,1073999.2211557,1074000.26816,5,1,100,16,4
15,328,735.004393616691,0,1,1074002.23280928,1074003.279849,5,1,82,4,8
15,329,610.357019118965,0,0,1074005.13866171,1074006.18571452,5,0,64,0,8
15,330,670.573229435831,1,0,1074008.0092843,1074009.05627551,5,1,69,4,0
15,331,530.115062603727,0,0,1074010.87979218,1074011.92683959,5,0,82,8,16
15,332,552.422481123358,1,0,1074013.55035133,1074014.59739797,5,1,88,4,0
15,333,493.298409506679,0,0,1074016.29150682,1074017.33855808,5,0,66,0,16
15,334,558.715077349916,0,0,1074018.96209599,1074020.00916804,5,0,95,4,16
15,335,544.479166157544,0,0,1074021.69146855,1074022.73851943,5,0,94,4,16
15,336,665.582961170003,0,0,1074024.35031522,1074025.39731143,5,0,69,16,0
15,337,565.09313499555,1,0,1074027.23259948,1074028.27964689,5,1,77,16,0
15,338,593.691224930808,1,0,1074029.95022568,1074030.99726462,5,1,61,4,4
15,339,517.5086974632,1,0,1074032.64431989,1074033.69136692,5,1,76,4,16
15,340,552.284279605374,1,0,1074035.23253673,1074036.2795776,5,1,81,0,16
15,341,556.617801776156,0,0,1074037.95015869,1074038.99721073,5,0,70,8,0
15,342,553.860700922087,1,0,1074040.65602044,1074041.70306708,5,1,83,8,16
15,343,486.635094508529,1,0,1074043.45599588,1074044.50304753,5,1,73,0,8
15,344,632.460022810847,1,0,1074046.18538383,1074047.23243202,5,1,80,0,4
15,345,676.825404400006,0,0,1074049.00889472,1074050.05598179,5,0,93,8,0
15,346,544.153872877359,1,0,1074051.82061767,1074052.86769627,5,1,83,16,4
15,347,801.724544260651,0,0,1074054.59708692,1074055.64413395,5,0,62,8,16
15,348,706.54566003941,1,0,1074057.54999986,1074058.59704804,5,1,81,16,16
15,349,623.419949784875,0,0,1074060.43212939,1074061.47937811,5,0,93,8,0
15,350,651.269672671333,0,0,1074063.13818205,1074064.18523909,5,0,72,0,0
15,351,718.98071677424,1,0,1074065.86772668,1074066.9146282,5,1,100,8,8
15,352,610.078306403011,1,0,1074068.77343629,1074069.82048756,5,1,74,8,4
15,353,531.475904863328,0,0,1074071.53811876,1074072.58517233,5,0,68,0,8
15,354,708.603669190779,1,0,1074074.14986604,1074075.19690537,5,1,69,16,4
15,355,863.188032992184,1,0,1074077.02042473,1074078.06748023,5,1,100,16,16
15,356,563.830843195319,1,0,1074079.9615813,1074081.00867799,5,1,67,4,0
15,357,596.531477989629,0,0,1074082.7497919,1074083.79684586,5,0,95,0,16
15,358,501.505808671936,0,0,1074085.49095162,1074086.53799095,5,0,65,8,8
15,359,635.910056065768,0,0,1074088.05562993,1074089.10269121,5,0,77,4,0
15,360,456.844005966559,0,0,1074090.94972907,1074091.99676994,5,0,78,0,4
15,361,460.230905562639,0,0,1074093.63205576,1074094.67910279,5,0,78,16,8
15,362,436.420978279784,0,0,1074096.27909871,1074097.3261442,5,0,97,8,4
15,363,458.85466481559,0,0,1074098.90260775,1074099.94967941,5,0,96,16,8
15,364,502.728449413553,1,0,1074101.54963761,1074102.59668618,5,1,73,4,16
15,365,571.718723746017,1,0,1074104.19667632,1074105.24372643,5,1,86,4,4
15,366,558.687744894996,0,0,1074106.94966671,1074107.99664637,5,0,70,8,8
15,367,585.908824345097,0,0,1074109.60840097,1074110.6554453,5,0,98,8,8
15,368,495.512328576297,0,0,1074112.44366592,1074113.49071372,5,0,78,16,16
15,369,803.819124819711,1,0,1074114.9965867,1074116.04363142,5,1,92,8,4
15,370,605.578865390271,1,0,1074118.04362064,1074119.09066998,5,1,71,16,8
15,371,538.346329471096,1,0,1074120.78481193,1074121.83182586,5,1,86,0,0
15,372,704.130405560136,1,0,1074123.42004808,1074124.46709858,5,1,79,16,4
15,373,443.295252742246,0,0,1074126.27886272,1074127.32589897,5,0,77,0,4
15,374,584.361275425181,1,0,1074128.87882477,1074129.92587911,5,1,64,16,0
15,375,623.115829424933,0,0,1074131.61997871,1074132.66702767,5,0,70,8,8
15,376,647.308794083074,1,0,1074134.32583777,1074135.3728925,5,1,100,0,4
15,377,571.983577916399,0,0,1074137.11405145,1074138.16109848,5,0,93,8,16
15,378,474.890660261735,0,0,1074139.80814489,1074140.85518961,5,0,87,0,8
15,379,675.397193990648,0,0,1074142.37283783,1074143.41987986,5,0,72,4,8
15,380,730.839484836906,1,0,1074145.3022107,1074146.34929083,5,1,90,8,0
15,381,488.401302136481,0,1,1074148.12572774,1074149.1727767,5,1,69,0,0
15,382,485.913674812764,1,0,1074150.8080552,1074151.855108,5,1,77,0,16
15,383,609.828850720078,0,0,1074153.49039112,1074154.53743353,5,0,91,0,0
15,384,558.258896926418,0,0,1074156.32566068,1074157.37271041,5,0,75,16,8
15,385,475.622473750263,0,0,1074159.09034969,1074160.13739211,5,0,67,0,0
15,386,724.548043683171,0,0,1074161.72561587,1074162.77265135,5,0,95,4,0
15,387,506.754386704415,1,0,1074164.54917527,1074165.59617495,5,1,81,0,8
15,388,479.611069662496,0,0,1074167.18444683,1074168.23147115,5,0,76,8,0
15,389,558.393633691594,1,0,1074169.72555389,1074170.77260131,5,1,99,4,8
15,390,667.124350788072,0,0,1074172.46670476,1074173.51375025,5,0,63,4,4
15,391,613.141452660784,1,0,1074175.31373724,1074176.36078735,5,1,71,4,4
15,392,661.818798398599,1,0,1074178.04316793,1074179.09021034,5,1,75,4,8
15,393,761.924432357773,1,0,1074180.85486239,1074181.90191674,5,1,94,0,16
15,394,682.505140546709,0,0,1074183.72543302,1074184.7724685,5,0,87,16,4
15,395,680.422108620405,0,0,1074186.52540615,1074187.5724551,5,0,81,16,0
15,396,722.496193833649,1,0,1074189.32539044,1074190.37243439,5,1,72,4,16
15,397,687.17896938324,0,0,1074192.26657164,1074193.31358903,5,0,89,16,8
15,398,635.995517950505,1,0,1074195.14886745,1074196.19596607,5,1,98,16,16
15,399,563.043980160728,1,0,1074197.9488502,1074198.99589954,5,1,70,8,4
15,400,533.424584660679,1,0,1074200.67823239,1074201.72527826,5,1,65,16,0
15,401,1157.06528234296,1,0,1074236.50147303,1074237.54851467,6,1,79,4,16
15,402,652.174334507436,1,0,1074239.76025749,1074240.80731337,6,1,80,0,16
15,403,453.159915283322,0,1,1074242.50141567,1074243.54846809,6,1,99,4,4
15,404,707.10963010788,1,1,1074245.05433299,1074246.10138464,6,0,92,4,8
15,405,587.121071061119,0,0,1074248.00725286,1074249.05430682,6,0,68,8,0
15,406,629.417279735208,1,0,1074250.76018358,1074251.80724331,6,1,99,16,16
15,407,574.831144884229,1,0,1074253.53663319,1074254.58373489,6,1,98,16,8
15,408,646.949624177068,0,0,1074256.34836192,1074257.39542666,6,0,64,8,8
15,409,488.005560822785,1,0,1074259.24245875,1074260.28949885,6,1,76,16,8
15,410,467.375808395445,0,0,1074261.86595663,1074262.91300674,6,0,65,0,8
15,411,546.538715483621,1,0,1074264.46594908,1074265.51299958,6,1,77,4,0
15,412,755.267661763355,0,0,1074267.25416815,1074268.30124675,6,0,92,8,8
15,413,705.9716808144,1,0,1074270.08942886,1074271.13654942,6,1,70,4,0
15,414,537.480164086446,0,0,1074272.97175008,1074274.01880365,6,0,83,0,4
15,415,528.95440091379,1,0,1074275.64231924,1074276.68936742,6,1,87,16,8
15,416,513.330699875951,0,0,1074278.35994813,1074279.40699439,6,0,86,4,8
15,417,429.853904061019,1,0,1074280.93639744,1074281.98345101,6,1,76,4,8
15,418,649.711344856769,0,1,1074283.58343846,1074284.63050436,6,1,61,8,16
15,419,458.284535445273,1,0,1074286.40693626,1074287.45398483,6,1,65,8,8
15,420,731.80997534655,0,0,1074288.92456177,1074289.97161457,6,0,98,8,16
15,421,606.32530762814,1,0,1074291.85395273,1074292.90099745,6,1,68,4,8
15,422,499.996755970642,0,0,1074294.64216064,1074295.68921652,6,0,63,4,16
15,423,629.744497826323,1,0,1074297.23037709,1074298.27747994,6,1,80,8,4
15,424,564.464491326362,1,0,1074300.1127087,1074301.15975457,6,1,89,4,16
15,425,646.427999949083,1,0,1074302.75974818,1074303.80679444,6,1,85,0,16
15,426,546.362402616069,0,0,1074305.50089597,1074306.54793453,6,0,96,0,0
15,427,600.557800149545,1,0,1074308.21852564,1074309.2655642,6,1,94,16,0
15,428,614.171227207407,1,0,1074310.94791475,1074311.9949637,6,1,64,8,4
15,429,527.269420213997,0,0,1074313.74788942,1074314.79493837,6,0,75,8,8
15,430,611.790234455839,1,0,1074316.43025228,1074317.47726967,6,1,62,0,8
15,431,593.496434157714,1,0,1074319.15960636,1074320.20665955,6,1,72,8,8
15,432,671.407058136538,1,0,1074321.91252669,1074322.95957757,6,1,76,16,4
15,433,681.525411084294,1,0,1074324.81837835,1074325.86543539,6,1,91,4,16
15,434,517.389744054526,0,0,1074327.71247557,1074328.75953068,6,0,85,8,16
15,435,484.564766520634,0,0,1074330.46539435,1074331.512441,6,0,65,8,4
15,436,511.890940601006,1,0,1074333.12426527,1074334.17124994,6,1,83,8,0
15,437,597.924656933174,1,0,1074335.72418266,1074336.77122199,6,1,68,0,0
15,438,595.945950131863,0,0,1074338.47711607,1074339.5241554,6,0,77,4,0
15,439,482.762757223099,1,0,1074341.21824307,1074342.26529857,6,1,77,16,4
15,440,462.069871136919,0,0,1074343.84176905,1074344.888813,6,0,73,0,0
15,441,904.551477637142,0,0,1074346.35938108,1074347.40643543,6,0,80,16,8
15,442,696.96548464708,0,0,1074349.48876696,1074350.53582053,6,0,93,16,16
15,443,562.317171134055,1,0,1074352.34756851,1074353.39461131,6,1,92,8,4
15,444,565.710229799151,1,0,1074355.11225059,1074356.15930186,6,1,91,0,16
15,445,503.292419249192,0,0,1074357.88869982,1074358.93574493,6,0,82,0,4
15,446,829.649335006252,0,0,1074360.61808816,1074361.66513558,6,0,99,4,8
15,447,555.421338649467,0,0,1074363.5592532,1074364.60629176,6,0,68,8,0
15,448,521.23975334689,0,0,1074366.24156525,1074367.2886169,6,0,77,16,4
15,449,645.211518742144,0,0,1074368.84154616,1074369.88859704,6,0,83,16,16
15,450,574.227523989975,0,0,1074371.68858172,1074372.73563529,6,0,78,0,4
15,451,1059.63744735345,1,1,1074374.35914818,1074375.40619675,6,0,99,4,4
15,452,792.937776539475,0,0,1074377.52387361,1074378.57088022,6,0,87,0,0
15,453,431.492304196581,0,0,1074380.5591046,1074381.60615009,6,0,64,4,0
15,454,718.85290928185,1,0,1074383.07672472,1074384.1237756,6,1,96,8,0
15,455,508.42050393112,1,0,1074385.94728841,1074386.99433814,6,1,98,0,16
15,456,535.340157803148,1,0,1074388.65314631,1074389.70019603,6,1,67,16,0
15,457,499.357333406806,1,0,1074391.25312375,1074392.30017578,6,1,99,4,4
15,458,651.842496823519,1,0,1074393.86486949,1074394.91191614,6,1,79,16,4
15,459,488.627274986357,1,1,1074396.66484532,1074397.71188388,6,0,99,4,0
15,460,706.339320167899,0,0,1074399.24129539,1074400.2883482,6,0,97,16,0
15,461,806.695949286222,1,0,1074402.06488905,1074403.11185639,6,1,96,0,16
15,462,489.284021081403,0,0,1074404.93536305,1074405.98241546,6,0,95,4,16
15,463,751.095823710784,0,0,1074407.58239868,1074408.62945187,6,0,80,16,16
15,464,641.848101746291,0,0,1074410.57061844,1074411.61767009,6,0,64,0,4
15,465,475.351460278034,1,0,1074413.28823771,1074414.33529129,6,1,76,16,8
15,466,487.995936535299,1,0,1074415.97063215,1074417.01765454,6,1,67,0,4
15,467,614.836057182401,0,0,1074418.5234925,1074419.57054299,6,0,97,4,4
15,468,589.197943452746,0,1,1074421.28816919,1074422.33522084,6,1,83,16,0
15,469,710.038039367646,1,0,1074424.12343953,1074425.17049657,6,1,89,16,16
15,470,690.25558931753,0,0,1074427.04106565,1074428.0881146,6,0,68,0,0
15,471,788.905679946765,0,0,1074429.86457654,1074430.91162626,6,0,83,0,8
15,472,538.35210413672,0,0,1074432.8410126,1074433.88806579,6,0,77,8,16
15,473,662.747712805867,1,0,1074435.61747107,1074436.66451617,6,1,72,8,4
15,474,710.344854276627,0,0,1074438.47626723,1074439.52331234,6,0,90,4,4
15,475,600.004609208554,1,0,1074441.42918093,1074442.47622912,6,1,66,8,0
15,476,1149.39914015122,1,0,1074444.13503883,1074445.18208471,6,1,81,16,4
15,477,937.53852439113,0,0,1074447.45265556,1074448.49970528,6,0,79,0,8
15,478,720.421246252954,0,0,1074450.59381474,1074451.64085908,6,0,62,8,16
15,479,732.755058212206,0,0,1074453.55849983,1074454.60554532,6,0,63,16,0
15,480,785.764001309872,0,0,1074456.46435303,1074457.5113989,6,0,82,0,8
15,481,782.163447700441,0,0,1074492.36993098,1074493.41697493,7,0,76,4,0
15,482,644.302622415125,1,0,1074495.28755556,1074496.3346099,7,1,90,16,0
15,483,663.372891722247,1,0,1074498.1345942,1074499.18163507,7,1,92,16,16
15,484,458.61098356545,1,0,1074501.04045548,1074502.08749751,7,1,74,4,0
15,485,584.860571427271,1,0,1074503.71101964,1074504.75806282,7,1,83,16,16
15,486,487.09974414669,1,0,1074506.4168783,1074507.46393149,7,1,95,8,16
15,487,528.482436900958,1,0,1074508.98156239,1074510.02860595,7,1,82,8,8
15,488,505.299613578245,1,0,1074511.62859956,1074512.67564813,7,1,97,4,8
15,489,529.790539294481,1,0,1074514.20504887,1074515.25210129,7,1,61,0,16
15,490,516.114363446832,1,1,1074516.92267353,1074517.96972056,7,0,92,8,0
15,491,632.481965702027,1,0,1074519.53441427,1074520.58146168,7,1,80,4,16
15,492,511.465172050521,1,0,1074522.24027601,1074523.28732535,7,1,82,8,16
15,493,643.557720119134,0,0,1074524.94612467,1074525.99318055,7,0,77,8,0
15,494,611.242432845756,0,0,1074527.76963633,1074528.8166899,7,0,99,4,4
15,495,661.499279784039,0,0,1074530.59314337,1074531.64019194,7,0,84,4,4
15,496,674.163004383445,1,0,1074533.46371322,1074534.51075832,7,1,61,8,8
15,497,600.461174501106,0,0,1074536.33426883,1074537.38131509,7,0,78,4,4
15,498,504.879619460553,0,0,1074539.11072037,1074540.15776393,7,0,74,8,0
15,499,702.157858060673,0,0,1074541.76952007,1074542.81657249,7,0,61,0,4
15,500,735.361253842711,0,0,1074544.67537866,1074545.72243223,7,0,100,4,16
15,501,474.481830140576,0,0,1074547.64006413,1074548.687105,7,0,85,4,16
15,502,615.494728088379,1,0,1074550.33415719,1074551.38120999,7,1,94,16,16
15,503,707.155440468341,0,0,1074553.12236548,1074554.16941213,7,0,90,16,0
15,504,567.629652563483,1,0,1074556.0399916,1074557.08704171,7,1,65,4,0
15,505,669.657788937911,1,0,1074558.79289422,1074559.83995395,7,1,80,8,4
15,506,686.974939424545,1,0,1074561.66347485,1074562.7105292,7,1,82,16,8
15,507,724.138058722019,1,0,1074564.41639171,1074565.46344067,7,1,69,4,16
15,508,748.922710772604,1,0,1074567.2987341,1074568.34577921,7,1,79,8,16
15,509,483.66356943734,1,0,1074570.28692191,1074571.33400782,7,1,68,0,8
15,510,591.724451864138,1,0,1074572.83985348,1074573.88690089,7,1,90,8,4
15,511,710.488060256466,0,0,1074575.58100704,1074576.62805561,7,0,71,16,4
15,512,569.321562768891,1,0,1074578.4751031,1074579.52214513,7,1,66,16,8
15,513,674.961801385507,0,0,1074581.20456497,1074582.25153424,7,0,100,8,16
15,514,830.919326283038,0,0,1074584.00446727,1074585.05151276,7,0,98,8,4
15,515,805.383997270837,0,0,1074587.02796769,1074588.07501857,7,0,97,0,16
15,516,650.668746326119,0,0,1074589.93383936,1074590.98089871,7,0,74,4,8
15,517,639.772769296542,1,0,1074592.79263206,1074593.83967524,7,1,64,8,0
15,518,706.255783094093,0,0,1074595.56907282,1074596.61612678,7,0,76,8,8
15,519,632.659433409572,1,0,1074598.53375945,1074599.5808007,7,1,96,16,4
15,520,957.718640565872,1,0,1074601.28667592,1074602.33372603,7,1,88,16,16
15,521,727.14346065186,0,0,1074604.35723761,1074605.40428464,7,0,99,0,8
15,522,625.058349920437,1,0,1074607.26309235,1074608.31014554,7,1,61,0,4
15,523,518.587362021208,0,0,1074610.08660594,1074611.13365104,7,0,63,16,0
15,524,485.869404161349,1,0,1074612.69834398,1074613.74545337,7,1,85,0,8
15,525,504.210554761812,0,0,1074615.26302768,1074616.31008164,7,0,100,0,4
15,526,471.98611847125,1,0,1074618.0041824,1074619.05122981,7,1,68,0,8
15,527,618.660659063607,1,0,1074620.73357189,1074621.78062508,7,1,80,0,0
15,528,515.852589160204,1,0,1074623.43944288,1074624.4865157,7,1,77,4,8
15,529,609.692958882079,0,0,1074626.18058951,1074627.22763847,7,0,99,16,0
15,530,585.0876995828,0,0,1074628.89821532,1074629.94526158,7,0,67,0,0
15,531,485.608399612829,1,0,1074631.72171813,1074632.76876246,7,1,85,4,0
15,532,436.0491046682,0,0,1074634.45110647,1074635.49815465,7,0,86,0,16
15,533,697.665346320719,0,0,1074637.08643501,1074638.13343431,7,0,91,8,0
15,534,508.765045553446,1,0,1074639.88635964,1074640.93340359,7,1,81,4,4
15,535,520.762784872204,0,0,1074642.48639752,1074643.53338141,7,0,91,0,4
15,536,463.301365962252,1,0,1074645.06277945,1074646.10983226,7,1,84,16,0
15,537,472.040398279205,1,0,1074647.60393925,1074648.65098821,7,1,64,4,4
15,538,710.533871082589,0,0,1074650.3215616,1074651.36861518,7,0,70,8,8
15,539,599.480675300583,0,0,1074653.12153204,1074654.16859023,7,0,85,16,4
15,540,497.004057979211,1,0,1074655.79210543,1074656.83920251,7,1,92,0,0
15,541,682.977874297649,0,0,1074658.45090552,1074659.49795486,7,0,92,4,0
15,542,613.275804556906,0,0,1074661.21559145,1074662.26263771,7,0,67,0,16
15,543,660.697403131053,1,0,1074664.08615399,1074665.13326492,7,1,84,16,8
15,544,581.803199835122,1,0,1074666.99201758,1074668.03906538,7,1,79,0,4
15,545,630.655318964273,1,0,1074669.68610987,1074670.73321811,7,1,72,4,8
15,546,627.051685471088,0,0,1074672.45079042,1074673.49784591,7,0,72,4,16
15,547,460.583531064913,0,0,1074675.16841238,1074676.2154571,7,0,65,0,0
15,548,459.817455848679,0,0,1074677.88607515,1074678.93309254,7,0,97,0,0
15,549,520.384366856888,0,0,1074680.50954954,1074681.55659542,7,0,78,4,8
15,550,681.121200323105,1,0,1074683.15658864,1074684.20364838,7,1,70,16,8
15,551,648.932565702125,0,0,1074685.99185513,1074687.03890601,7,0,65,8,4
15,552,512.012203689665,0,0,1074688.88599469,1074689.93299822,7,0,68,16,8
15,553,961.18291770108,0,0,1074691.60357431,1074692.65061441,7,0,81,16,16
15,554,663.474906934425,1,0,1074694.70942628,1074695.75647754,7,1,98,8,8
15,555,1030.92579357326,0,0,1074697.48587974,1074698.53293717,7,0,63,8,16
15,556,680.948352208361,0,0,1074700.74467151,1074701.79172547,7,0,88,16,4
15,557,423.101662890986,0,0,1074703.59170977,1074704.63875834,7,0,97,0,16
15,558,590.8355738502,0,0,1074706.13290421,1074707.17991891,7,0,92,8,4
15,559,541.814841097221,1,0,1074708.88578566,1074709.93283115,7,1,61,0,8
15,560,681.669771904126,1,0,1074711.57987448,1074712.62693306,7,1,91,16,4
15,561,1272.45661965571,0,0,1074747.55604685,1074748.6031062,8,0,67,0,8
15,562,699.465045705438,1,0,1074750.95601628,1074752.00306832,8,1,79,4,4
15,563,555.365134030581,0,0,1074753.85011581,1074754.89716245,8,0,89,16,16
15,564,616.425182204694,1,0,1074756.6500924,1074757.6971402,8,1,82,0,16
15,565,561.481417389587,0,0,1074759.50890204,1074760.55594637,8,0,99,0,16
15,566,586.32342889905,1,0,1074762.20298047,1074763.25002981,8,1,78,8,4
15,567,421.241524163634,0,0,1074764.89707776,1074765.94412749,8,0,96,4,8
15,568,522.105148993433,0,0,1074767.54411648,1074768.59116505,8,0,86,16,8
15,569,696.564354002476,0,0,1074770.26174113,1074771.30878778,8,0,63,16,16
15,570,565.244040451944,0,0,1074773.14407582,1074774.19112208,8,0,94,0,8
15,571,618.009687634185,0,0,1074775.88522477,1074776.9322768,8,0,81,4,8
15,572,445.52803481929,0,0,1074778.66167284,1074779.70872488,8,0,93,0,4
15,573,883.03438667208,0,0,1074781.17929604,1074782.22633999,8,0,70,4,0
15,574,586.495507042855,0,0,1074784.30869,1074785.35573664,8,0,69,8,16
15,575,680.941037833691,1,0,1074786.97925646,1074788.02630195,8,1,100,0,0
15,576,464.326520916075,0,0,1074789.89687104,1074790.94392307,8,0,68,4,8
15,577,608.908790396526,1,0,1074792.57920965,1074793.62625668,8,1,67,16,0
15,578,613.723130663857,1,0,1074795.42624136,1074796.47334729,8,1,80,16,4
15,579,629.210169659927,1,0,1074798.13209849,1074799.17914937,8,1,79,16,4
15,580,523.617666447535,0,0,1074800.86148952,1074801.90853309,8,0,70,8,8
15,581,663.035279838368,0,0,1074803.5791111,1074804.6261539,8,0,95,4,4
15,582,464.283020235598,1,0,1074806.43791419,1074807.48495968,8,1,94,16,16
15,583,497.507203835994,0,0,1074809.15553577,1074810.20258819,8,0,82,16,0
15,584,638.716432498768,1,0,1074811.75551552,1074812.80256525,8,1,93,16,4
15,585,507.922362769023,0,0,1074814.56724964,1074815.61430976,8,0,71,0,8
15,586,539.122028741986,1,0,1074817.22605319,1074818.27310407,8,1,95,8,16
15,587,468.50605821237,0,0,1074820.0025336,1074821.04955638,8,0,75,8,4
15,588,435.835450654849,1,0,1074822.52019183,1074823.56718458,8,1,79,8,0
15,589,504.165129270405,0,0,1074825.02599552,1074826.07304486,8,0,71,16,8
15,590,393.463789485395,0,0,1074827.75537501,1074828.80243705,8,0,73,16,0
15,591,439.941844902933,0,0,1074830.36714963,1074831.41418126,8,0,81,16,0
15,592,455.108595313504,0,0,1074833.03769222,1074834.08474349,8,0,96,0,4
15,593,677.709663286805,0,0,1074835.66120165,1074836.7082533,8,0,80,16,8
15,594,492.557741701603,0,1,1074838.55529309,1074839.60233704,8,1,96,8,0
15,595,466.05654200539,1,0,1074841.1788029,1074842.22584955,8,1,85,4,16
15,596,477.669704239815,1,0,1074843.80230732,1074844.84935743,8,1,86,4,16
15,597,472.822642186657,1,0,1074846.50816676,1074847.55521725,8,1,77,8,16
15,598,770.912150386721,0,0,1074849.2140312,1074850.26114098,8,0,92,4,4
15,599,694.495180621743,1,0,1074852.20224057,1074853.24928529,8,1,79,16,4
15,600,576.022988883778,0,0,1074855.07280773,1074856.11985591,8,0,89,4,8
15,601,541.76364117302,1,0,1074857.766967,1074858.81398554,8,1,74,0,8
15,602,719.342966564,0,0,1074860.39043485,1074861.43745301,8,0,73,8,8
15,603,697.819331195205,1,0,1074863.26097236,1074864.30806713,8,1,81,8,4
15,604,551.912021124735,1,0,1074866.21394266,1074867.26093926,8,1,72,8,8
15,605,613.16570523195,0,0,1074868.87269462,1074869.91973742,8,0,94,0,0
15,606,538.743995595723,1,0,1074871.66090831,1074872.70795842,8,1,96,0,0
15,607,562.531594885513,0,0,1074874.40205494,1074875.44910005,8,0,92,4,16
15,608,471.848686924204,1,0,1074877.06086773,1074878.10796981,8,1,63,4,16
15,609,780.424957163632,0,0,1074879.63730549,1074880.68435329,8,0,89,8,16
15,610,621.740358648822,0,0,1074882.61381855,1074883.66083016,8,0,97,0,0
15,611,657.998046372086,1,0,1074885.4608183,1074886.50783415,8,1,97,16,0
15,612,704.723632661626,1,0,1074888.30782229,1074889.35494401,8,1,82,16,16
15,613,448.740161489695,0,0,1074891.20192143,1074892.24896423,8,0,78,0,0
15,614,682.709170505404,0,0,1074893.86079967,1074894.90776894,8,0,79,8,0
15,615,458.699139999226,0,0,1074896.75481874,1074897.80186692,8,0,66,0,8
15,616,524.649365805089,0,0,1074899.40185938,1074900.44889948,8,0,70,16,16
15,617,545.800742227584,1,0,1074902.154772,1074903.20183289,8,1,64,4,4
15,618,624.110572272912,1,0,1074904.91944908,1074905.9665042,8,1,71,4,8
15,619,709.77472490631,0,0,1074907.60180618,1074908.6488328,8,0,68,8,16
15,620,636.381250107661,1,0,1074910.43705611,1074911.48409775,8,1,75,16,8
15,621,655.404169345275,1,0,1074913.17820505,1074914.22525901,8,1,98,0,16
15,622,637.93996325694,1,0,1074916.06059864,1074917.10764105,8,1,84,4,0
15,623,556.063840864226,1,0,1074918.8722781,1074919.91932743,8,1,62,8,0
15,624,434.454590314999,0,1,1074921.58993817,1074922.63695055,8,1,63,0,16
15,625,544.189289677888,0,0,1074924.16635514,1074925.21340101,8,0,98,0,16
15,626,789.978185202926,1,1,1074926.96632634,1074928.01337222,8,0,83,16,4
15,627,453.339307801798,1,0,1074929.97806616,1074931.02511588,8,1,64,0,4
15,628,499.629886588082,1,0,1074932.54275602,1074933.58978803,8,1,77,4,0
15,629,453.435548348352,1,0,1074935.236846,1074936.28390034,8,1,76,16,8
15,630,601.153722032905,1,0,1074937.76623596,1074938.81328915,8,1,91,8,4
15,631,613.265025429428,1,0,1074940.53091881,1074941.57797392,8,1,86,8,8
15,632,672.111539402977,1,0,1074943.31913287,1074944.36618375,8,1,79,4,16
15,633,556.807588553056,1,0,1074946.15448636,1074947.20145101,8,1,78,8,0
15,634,589.557143859565,1,1,1074948.8837904,1074949.93064222,8,0,96,4,4
15,635,856.922384351492,0,0,1074951.6602327,1074952.70728704,8,0,89,4,0
15,636,589.6683675237,1,0,1074954.58966562,1074955.63667454,8,1,94,8,4
15,637,547.65857104212,1,0,1074957.23666507,1074958.28371325,8,1,62,0,4
15,638,617.458806373179,0,0,1074959.989575,1074961.03664705,8,0,74,4,0
15,639,664.300651522353,0,0,1074962.71897219,1074963.76601691,8,0,71,8,8
15,640,649.887272389606,1,0,1074965.60133537,1074966.64834968,8,1,99,0,4
15,641,413.774792803451,1,0,1074976.14239238,1074977.18943402,9,1,75,0,8
15,642,503.243144135922,0,0,1074978.81295461,1074979.86000357,9,0,97,4,8
15,643,869.921411154792,0,0,1074981.5070496,1074982.55409701,9,0,70,8,4
15,644,465.746647445485,0,0,1074984.44822079,1074985.49525897,9,0,86,8,16
15,645,587.201913120225,0,0,1074987.11876839,1074988.16582081,9,0,91,0,8
15,646,638.162086484954,1,0,1074989.85991618,1074990.90696976,9,1,90,16,0
15,647,683.877916540951,0,0,1074992.7422859,1074993.78929213,9,0,79,0,4
15,648,705.265274969861,1,0,1074995.51870279,1074996.5657402,9,1,92,8,8
15,649,554.460857296363,0,0,1074998.33043807,1074999.37749126,9,0,85,8,8
15,650,594.352590618655,0,0,1075001.02453267,1075002.07158509,9,0,93,0,16
15,651,421.918673207983,1,0,1075003.80098421,1075004.84803278,9,1,74,0,0
15,652,599.973042262718,0,0,1075006.35390422,1075007.40094933,9,0,77,0,4
15,653,604.974089190364,0,0,1075009.10683494,1075010.15386927,9,0,74,4,0
15,654,596.349390689284,1,0,1075011.87150124,1075012.91854943,9,1,65,16,4
15,655,606.972044333816,0,0,1075014.70676426,1075015.75382169,9,0,89,16,4
15,656,508.367764297873,1,0,1075017.42440008,1075018.47144827,9,1,65,0,0
15,657,635.019253008068,0,0,1075020.1537892,1075021.20084316,9,0,95,4,8
15,658,564.33013943024,0,0,1075023.0243525,1075024.07139722,9,0,73,16,8
15,659,758.032076992095,0,0,1075025.65962176,1075026.70667303,9,0,83,0,4
15,660,643.172757700086,1,0,1075028.61254663,1075029.65958866,9,1,72,16,0
15,661,551.883533829823,1,0,1075031.44781466,1075032.49486246,9,1,64,16,16
15,662,608.54769567959,0,0,1075034.07131523,1075035.11836842,9,0,71,4,4
15,663,836.463170358911,0,0,1075036.82423594,1075037.8712822,9,0,94,16,4
15,664,659.084410406649,1,0,1075039.80068009,1075040.8477325,9,1,79,8,8
15,665,493.859299691394,0,0,1075042.69477923,1075043.74186244,9,0,68,8,4
15,666,591.814533108845,0,0,1075045.28298721,1075046.33003617,9,0,69,16,16
15,667,672.827954636887,0,0,1075047.9418462,1075048.98884511,9,0,67,0,16
15,668,681.514631956816,0,0,1075050.77706302,1075051.82411352,9,0,92,8,8
15,669,609.072784427553,1,0,1075053.60057083,1075054.6476117,9,1,90,0,8
15,670,584.44519713521,0,0,1075056.27113114,1075057.31818048,9,0,67,8,0
15,671,510.669069597498,1,0,1075059.02404954,1075060.07109695,9,1,78,4,16
15,672,473.739237524569,0,0,1075061.58875518,1075062.63578566,9,0,85,8,0
15,673,421.741975471377,0,0,1075064.29459768,1075065.34171362,9,0,85,4,0
15,674,669.322486501187,0,0,1075066.85928215,1075067.90632956,9,0,79,4,0
15,675,626.245574094355,1,0,1075069.61219516,1075070.65924681,9,1,72,16,8
15,676,563.366578659043,1,0,1075072.45923649,1075073.5062789,9,1,68,0,0
15,677,686.624623602256,1,0,1075075.23567725,1075076.28278395,9,1,63,16,8
15,678,571.844221558422,1,0,1075078.14153931,1075079.18858711,9,1,83,16,8
15,679,517.304667271674,0,0,1075080.95328536,1075082.00032892,9,0,74,8,16
15,680,579.184300266206,1,0,1075083.64737149,1075084.69442506,9,1,69,8,0
15,681,654.680824838579,1,0,1075086.42382072,1075087.47086274,9,1,98,0,4
15,682,536.693685920909,0,0,1075089.27085627,1075090.31791408,9,0,97,16,16
15,683,549.080237280577,1,0,1075091.95318796,1075093.00023615,9,1,96,4,16
15,684,596.958401380107,1,0,1075094.74139972,1075095.78845291,9,1,88,4,16
15,685,598.209529416636,1,0,1075097.45902476,1075098.50606525,9,1,79,8,16
15,686,598.746166797355,0,0,1075100.23551287,1075101.28252718,9,0,83,0,8
15,687,634.783271234483,1,0,1075103.0825084,1075104.12957429,9,1,74,8,8
15,688,447.9255808983,1,0,1075105.83542141,1075106.88247921,9,1,66,4,4
15,689,735.672688344494,0,0,1075108.37659545,1075109.42362131,9,0,61,0,16
15,690,611.151966499165,0,0,1075111.35301727,1075112.40006507,9,0,61,16,8
15,691,443.132798420265,1,0,1075114.20006168,1075115.24710717,9,1,64,8,4
15,692,562.55045812577,1,0,1075116.82356264,1075117.87061198,9,1,61,0,16
15,693,798.395004123449,0,0,1075119.61177593,1075120.65882489,9,0,100,8,0
15,694,837.442129617557,1,0,1075122.51763914,1075123.56468194,9,1,72,0,8
15,695,486.652802675962,0,0,1075125.57648566,1075126.62347764,9,0,86,4,0
15,696,488.333933753893,1,0,1075128.19993618,1075129.24698052,9,1,86,4,0
15,697,502.520184731111,0,0,1075130.91756931,1075131.96461442,9,0,87,8,4
15,698,790.234185289592,1,0,1075133.49401669,1075134.54105833,9,1,82,16,4
15,699,649.546965723857,1,0,1075136.51751519,1075137.56456568,9,1,97,16,16
15,700,527.308301301673,0,0,1075139.25866759,1075140.30572155,9,0,86,16,0
15,701,585.165846627206,0,0,1075141.99982693,1075143.04687435,9,0,87,16,0
15,702,539.844218408689,1,0,1075144.77627039,1075145.82341828,9,1,73,8,4
15,703,659.723832970485,0,1,1075147.37625014,1075148.42330487,9,1,61,16,0
15,704,535.67622997798,0,0,1075150.17625098,1075151.22327838,9,0,72,4,4
15,705,516.653695842251,0,0,1075152.81150253,1075153.85854571,9,0,73,0,4
15,706,446.970489341766,1,0,1075155.43500426,1075156.48205399,9,1,63,16,4
15,707,717.002394841984,1,0,1075157.98792466,1075159.03497323,9,1,79,4,16
15,708,632.536245277151,0,0,1075160.91731408,1075161.96435572,9,0,95,16,16
15,709,663.301673950627,1,0,1075163.75258557,1075164.79962875,9,1,65,4,8
15,710,635.555890854448,0,1,1075166.65842491,1075167.7054935,9,1,61,8,16
15,711,724.176554940641,1,0,1075169.49370641,1075170.54076384,9,1,70,4,4
15,712,628.557273419574,0,0,1075172.36427165,1075173.41132099,9,0,61,0,0
15,713,494.405176257715,0,0,1075175.05836971,1075176.10541405,9,0,66,4,8
15,714,494.998788461089,1,0,1075177.78775998,1075178.83480893,9,1,82,4,16
15,715,564.968022285029,1,0,1075180.38773934,1075181.43478329,9,1,77,4,8
15,716,448.121141875163,1,0,1075183.18771478,1075184.23476027,9,1,67,4,4
15,717,614.685536827892,0,0,1075185.76415523,1075186.81120765,9,0,88,8,16
15,718,592.243381310254,0,0,1075188.49358438,1075189.54060138,9,0,81,8,0
15,719,458.00505252555,0,1,1075191.28175995,1075192.32880467,9,1,89,0,16
15,720,614.426457090303,1,0,1075193.99938576,1075195.04643587,9,1,89,0,0
