sub_id,Trial,RT,Resp,Error,Fix_onset,Disp_onset,block,tid,tloc,fish_setsize,bird_setsize
19,1,702.029776875861,0,0,531323.43437589,531324.481414066,1,0,92,16,0
19,2,628.237480996177,0,0,531326.293141639,531327.340167881,1,0,97,16,16
19,3,672.023109276779,1,0,531329.069547753,531330.116646753,1,1,71,8,8
19,4,570.32758067362,0,0,531331.940061016,531332.987092647,1,0,64,4,0
19,5,413.627078407444,0,0,531334.692938995,531335.739968702,1,0,64,4,16
19,6,550.108968280256,0,0,531337.175229953,531338.222263124,1,0,75,16,16
19,7,511.904525454156,1,0,531339.904599045,531340.951617973,1,1,63,8,16
19,8,498.914352850989,0,0,531342.610398813,531343.65742698,1,0,65,16,4
19,9,447.353253141046,0,0,531345.327978431,531346.375007752,1,0,75,16,4
19,10,606.880919658579,1,0,531347.904386546,531348.951418178,1,1,88,4,16
19,11,598.148816497996,1,0,531350.5631747,531351.610185543,1,1,79,4,8
19,12,620.161353959702,0,0,531353.351318704,531354.398344561,1,0,96,4,4
19,13,553.122839191929,0,0,531356.151247947,531357.198285353,1,0,96,16,16
19,14,600.774260354228,1,0,531358.880605876,531359.927627499,1,1,70,0,8
19,15,703.129614586942,0,0,531361.7040621,531362.751087572,1,0,99,4,8
19,16,550.253714085557,0,0,531364.656924988,531365.70395739,1,0,84,8,4
19,17,634.794546291232,1,0,531367.280449427,531368.327429089,1,1,88,8,8
19,18,499.291231040843,0,0,531369.997973996,531371.045004472,1,0,69,0,0
19,19,659.650416346267,0,0,531372.562625358,531373.60965853,1,0,72,4,4
19,20,587.878403486684,0,0,531375.327265095,531376.374287873,1,0,91,0,4
19,21,579.090865910985,0,0,531377.986023222,531379.033052928,1,0,81,0,0
19,22,511.566528468393,1,0,531380.80948368,531381.856515312,1,1,85,4,16
19,23,707.704508211464,1,0,531383.562355115,531384.609400605,1,1,61,4,16
19,24,621.141083422117,0,0,531386.479934271,531387.526961283,1,0,74,16,8
19,25,958.664604579099,1,0,531389.256346929,531390.303442079,1,1,99,8,16
19,26,663.367998669855,1,0,531392.326847026,531393.373889051,1,1,64,8,0
19,27,597.14290953707,0,0,531395.067968637,531396.114999114,1,0,81,16,16
19,28,649.662950774655,1,0,531397.89143102,531398.938458032,1,1,90,0,0
19,29,447.925307322294,0,0,531400.750262212,531401.797219161,1,0,78,0,8
19,30,500.874966499396,1,0,531403.444234009,531404.491329544,1,1,76,16,4
19,31,616.914580692537,0,0,531406.10299252,531407.150022997,1,0,80,8,8
19,32,528.655011323281,1,0,531408.832332356,531409.879372072,1,1,100,8,4
19,33,538.046555011533,0,0,531411.502869563,531412.549891571,1,0,93,16,16
19,34,447.08031474147,0,0,531414.102821597,531415.14984014,1,0,94,8,8
19,35,831.098059890792,1,0,531416.643918262,531417.690958363,1,1,70,16,4
19,36,419.277557171881,0,0,531419.608561002,531420.655573,1,0,66,0,4
19,37,605.363397626206,1,0,531422.149671911,531423.196705083,1,1,82,16,0
19,38,672.585924388841,0,0,531424.855489002,531425.902516784,1,0,78,16,0
19,39,533.52170647122,1,0,531427.714236272,531428.761271753,1,1,75,16,8
19,40,545.913647511043,1,0,531430.478931059,531431.525920729,1,1,98,0,8
19,41,651.039576507173,0,0,531433.231760917,531434.278783695,1,0,63,8,16
19,42,711.035973159596,1,0,531435.972856351,531437.01991339,1,1,78,8,4
19,43,557.648457819596,1,0,531438.85514831,531439.902184946,1,1,91,0,4
19,44,455.131034366786,1,0,531441.478623474,531442.525650101,1,1,64,4,8
19,45,678.401552024297,1,0,531444.031498835,531445.078532776,1,1,81,4,0
19,46,448.873084853403,1,0,531446.807968083,531447.854955444,1,1,66,0,4
19,47,475.849328096956,0,0,531449.407839659,531450.454875525,1,0,66,0,0
19,48,670.984480646439,1,0,531452.101931564,531453.148928164,1,1,98,8,16
19,49,698.579358519055,1,0,531454.984178867,531456.031210113,1,1,81,4,4
19,50,724.675962468609,0,0,531457.889985486,531458.937024817,1,0,69,4,4
19,51,718.472292763181,1,0,531460.819329479,531461.866363036,1,1,92,16,8
19,52,670.43244454544,0,0,531463.772202377,531464.819233239,1,0,88,8,0
19,53,472.232990781777,0,0,531466.607425748,531467.654465848,1,0,97,0,8
19,54,485.887993592769,1,0,531469.242658819,531470.289689296,1,1,66,0,16
19,55,472.888966905884,1,0,531471.889693685,531472.936684895,1,1,78,4,4
19,56,423.252679407597,1,1,531474.595476128,531475.64250314,1,0,90,4,0
19,57,663.54277159553,1,0,531477.113056978,531478.160092075,1,1,93,4,8
19,58,590.341008268297,0,0,531479.854167811,531480.901207141,1,0,66,0,8
19,59,849.591655773111,1,0,531482.559990675,531483.607018842,1,1,80,4,0
19,60,785.207842011005,1,0,531485.489328124,531486.536360911,1,1,71,16,8
19,61,724.507733946666,0,0,531488.45396124,531489.500998646,1,0,97,8,0
19,62,706.911870627664,1,0,531491.418594355,531492.465710293,1,1,88,0,16
19,63,647.816285956651,1,0,531494.312668474,531495.359685477,1,1,82,4,0
19,64,370.773059315979,0,0,531497.206702172,531498.253729569,1,0,62,0,4
19,65,421.723608509637,1,0,531499.747872751,531500.794844713,1,1,64,0,16
19,66,630.461409105919,0,0,531502.288931305,531503.335960242,1,0,80,0,0
19,67,567.908861674368,1,0,531505.14768512,531506.194712517,1,1,77,4,8
19,68,524.873525253497,0,0,531507.853503365,531508.900532687,1,0,64,8,4
19,69,600.142921903171,1,0,531510.559316991,531511.606353627,1,1,84,16,4
19,70,498.970557353459,1,0,531513.300428208,531514.347525668,1,1,65,16,0
19,71,858.255235478282,1,0,531515.865078031,531516.912104273,1,1,79,4,16
19,72,464.269272750244,0,0,531518.864992184,531519.91203652,1,0,87,0,16
19,73,644.032875075936,0,0,531521.547293844,531522.594322011,1,0,70,8,0
19,74,694.099550601095,0,0,531524.441336011,531525.488368413,1,0,71,8,16
19,75,584.009145968594,0,0,531527.335454016,531528.382462935,1,0,61,0,16
19,76,587.836827500723,1,0,531530.135318971,531531.182349448,1,1,64,16,8
19,77,596.346422331408,0,0,531532.947014207,531533.994049689,1,0,72,8,0
19,78,740.20996701438,1,0,531535.594010192,531536.641045673,1,1,77,8,4
19,79,635.688429116271,1,0,531538.417481044,531539.464523839,1,1,88,16,0
19,80,574.270366108976,0,0,531541.14681857,531542.193851741,1,0,90,8,8
19,81,572.261247085407,1,0,531576.910671058,531577.957697685,2,1,94,8,4
19,82,680.702472571284,1,0,531579.734152689,531580.781163148,2,1,89,16,4
19,83,437.598689692095,1,0,531582.616412311,531583.663449717,2,1,86,8,4
19,84,566.310112713836,0,1,531585.298695877,531586.345741368,2,1,91,4,0
19,85,740.53487542551,0,0,531587.957463243,531589.004497184,2,0,61,8,16
19,86,591.258758679032,0,0,531590.851509645,531591.898548976,2,0,79,0,16
19,87,552.956150495447,0,0,531593.58085641,531594.627882267,2,0,89,0,4
19,88,705.98834566772,1,0,531596.322032686,531597.369001183,2,1,80,4,4
19,89,798.935217782855,1,0,531599.168961224,531600.216028272,2,1,74,0,8
19,90,653.691197745502,0,0,531602.157137873,531603.204150256,2,0,99,0,4
19,91,519.254613434896,0,0,531604.933527048,531605.98055637,2,0,67,0,8
19,92,563.602671842091,0,0,531607.651105126,531608.698153311,2,0,98,8,8
19,93,737.088306574151,1,0,531610.368689749,531611.41571984,2,1,83,4,16
19,94,646.723377634771,1,0,531613.203957005,531614.250945906,2,1,91,0,0
19,95,902.015071362257,0,0,531616.062674634,531617.109702031,2,0,89,8,0
19,96,725.623355130665,1,0,531619.039065272,531620.086097673,2,1,73,16,0
19,97,596.130073419772,0,0,531621.862532274,531622.909560441,2,0,71,4,0
19,98,661.522488808259,1,0,531624.67422828,531625.721262607,2,1,80,4,16
19,99,731.334657873958,1,0,531627.556511,531628.603536857,2,1,91,16,0
19,100,453.190053696744,0,0,531630.509376583,531631.55640937,2,0,78,4,4
19,101,686.860716785304,1,0,531633.132855212,531634.179941893,2,1,92,8,0
19,102,646.256803069264,1,0,531635.95631259,531637.003344607,2,1,99,4,0
19,103,677.020306815393,1,0,531638.838586071,531639.885624632,2,1,89,4,0
19,104,443.872037692927,0,0,531641.626776655,531642.673796353,2,0,76,4,4
19,105,669.036185718142,0,0,531644.238462729,531645.285508219,2,0,61,16,4
19,106,737.703091581352,1,0,531647.120755842,531648.167817886,2,1,92,4,4
19,107,458.473663195036,1,0,531650.003036252,531651.050070193,2,1,95,4,8
19,108,698.060429072939,0,0,531652.720610095,531653.767644037,2,0,80,16,8
19,109,460.390006192029,1,0,531655.638193486,531656.685222423,2,1,97,8,16
19,110,431.751110358164,0,0,531658.261678274,531659.308693352,2,0,78,0,16
19,111,855.437695397995,0,0,531660.838063292,531661.885094923,2,0,92,16,16
19,112,408.848539576866,0,0,531663.908569933,531664.955656229,2,0,74,0,0
19,113,616.468024323694,1,0,531666.532047407,531667.579081733,2,1,97,4,8
19,114,492.138628847897,0,0,531669.261394557,531670.308426188,2,0,84,8,4
19,115,677.846436272375,0,0,531671.849596381,531672.896604915,2,0,92,8,16
19,116,533.660292974673,1,0,531674.637741155,531675.684761238,2,1,86,16,16
19,117,606.478633824736,1,0,531677.331791484,531678.378819266,2,1,83,0,4
19,118,664.169875439256,0,0,531680.155249632,531681.202277799,2,0,61,4,16
19,119,551.564896246418,0,0,531682.966948718,531684.013981889,2,0,64,16,8
19,120,802.005293313414,1,0,531685.743348672,531686.790377224,2,1,91,16,0
19,121,725.48784839455,1,0,531688.766809823,531689.81383337,2,1,70,4,4
19,122,542.746561579406,1,0,531691.672615288,531692.719655004,2,1,80,8,4
19,123,414.935565786436,0,0,531694.28431907,531695.331351087,2,0,69,0,8
19,124,532.410704996437,0,0,531696.848964273,531697.896002064,2,0,74,0,4
19,125,592.956828069873,1,0,531699.625371157,531700.672424731,2,1,61,8,8
19,126,768.244471983053,1,0,531702.284144682,531703.331162455,2,1,81,8,16
19,127,554.721203283407,0,0,531705.15465294,531706.201676488,2,0,67,16,16
19,128,512.710636830889,0,0,531707.81343147,531708.860496208,2,0,98,4,16
19,129,583.249615039676,0,0,531710.483926716,531711.530967202,2,0,64,8,8
19,130,499.43790177349,1,0,531713.236810855,531714.28385673,2,1,64,0,0
19,131,698.745662346482,0,0,531715.860276395,531716.907331509,2,0,100,8,0
19,132,493.510250002146,0,0,531718.695540186,531719.74254872,2,0,88,16,0
19,133,484.116396517493,1,0,531721.413086312,531722.460117559,2,1,84,8,8
19,134,387.403821805492,0,0,531723.977728436,531725.024756218,2,0,87,0,4
19,135,421.457214513794,1,0,531726.424729886,531727.471744965,2,1,86,4,8
19,136,571.621439536102,0,0,531728.989380479,531730.036399407,2,0,84,16,4
19,137,418.153466773219,0,0,531731.765777739,531732.812807446,2,0,85,8,0
19,138,539.934795931913,0,0,531734.342220116,531735.389222875,2,0,65,8,8
19,139,443.811598583125,0,0,531737.083326714,531738.130321774,2,0,64,16,16
19,140,814.518497441895,1,0,531739.777351635,531740.824379032,2,1,99,16,0
19,141,472.667613532394,1,0,531742.777404375,531743.824312433,2,1,68,0,0
19,142,417.296925443225,0,0,531745.459567063,531746.506596,2,0,77,4,8
19,143,709.152351948433,1,0,531747.988916214,531749.035946691,2,1,94,16,8
19,144,535.602043615654,0,0,531750.918254048,531751.965288375,2,0,62,0,16
19,145,725.879355100915,1,0,531753.577012175,531754.624125803,2,1,78,16,16
19,146,547.259861254133,0,0,531756.435771379,531757.482802241,2,0,73,8,4
19,147,633.753992849961,1,0,531759.106284334,531760.15331943,2,1,96,16,8
19,148,635.830095270649,0,0,531761.859170013,531762.906201259,2,0,69,0,0
19,149,742.950129788369,1,0,531764.62380359,531765.670840226,2,1,73,0,8
19,150,415.252774837427,0,0,531767.43550614,531768.482533537,2,0,85,16,4
19,151,435.802070074715,0,0,531770.011983164,531771.059026344,2,0,64,0,8
19,152,464.196129934862,0,0,531772.670669688,531773.717709018,2,0,73,16,8
19,153,397.156075458042,1,0,531775.21179484,531776.258823777,2,1,66,0,16
19,154,384.747965959832,1,0,531777.694192818,531778.74111897,2,1,66,4,0
19,155,600.473219761625,1,0,531780.282253746,531781.329286918,2,1,69,16,4
19,156,570.288699585944,1,0,531782.976314854,531784.023343021,2,1,98,4,16
19,157,806.301089120097,1,0,531785.717425686,531786.764451158,2,1,82,4,8
19,158,744.614707306027,1,0,531788.682048792,531789.729093128,2,1,91,8,16
19,159,621.66155257728,0,0,531791.529047779,531792.576073251,2,0,66,8,0
19,160,578.420261270367,0,0,531794.258398779,531795.305426561,2,0,82,0,16
19,161,578.429500339553,1,0,531829.986945977,531831.033977993,3,1,69,0,0
19,162,484.387794975191,1,0,531832.633939651,531833.680972053,3,1,75,4,8
19,163,368.877889122814,0,0,531835.245647668,531836.292684304,3,0,64,8,8
19,164,431.1790560605,1,0,531837.716166859,531838.763198875,3,1,65,0,8
19,165,608.560895663686,0,0,531840.233762722,531841.280788964,3,0,84,8,0
19,166,593.247474753298,1,0,531843.05722241,531844.104252502,3,1,82,16,0
19,167,427.612379076891,1,0,531845.833670485,531846.880665545,3,1,62,0,16
19,168,730.953160091303,0,0,531848.339446077,531849.386555856,3,0,90,8,4
19,169,584.463016712107,0,0,531851.315846724,531852.362876431,3,0,94,4,16
19,170,623.486274620518,1,0,531854.009897823,531855.056932919,3,1,98,4,8
19,171,478.354278602637,0,0,531856.809825912,531857.856859083,3,0,94,4,16
19,172,653.304695500992,0,0,531859.539239275,531860.586201998,3,0,77,16,4
19,173,421.520733274519,0,0,531862.256759609,531863.303786621,3,0,94,8,4
19,174,468.677862780169,1,0,531864.856695859,531865.903728645,3,1,74,8,0
19,175,457.5512931915,0,0,531867.550742723,531868.597780129,3,0,87,16,8
19,176,419.433466973715,0,0,531870.197744481,531871.244769183,3,0,95,16,0
19,177,634.922353783622,0,0,531872.76238622,531873.809430555,3,0,62,16,16
19,178,553.088577580638,1,0,531875.479967378,531876.527000934,3,1,92,0,0
19,179,571.906311670318,0,0,531878.209358413,531879.256356938,3,0,92,4,4
19,180,638.187220320106,1,0,531880.973953879,531882.020986666,3,1,72,8,16
19,181,455.285789212212,1,0,531883.868000281,531884.915033452,3,1,71,8,8
19,182,619.429155369289,1,0,531886.38558652,531887.432617767,3,1,85,16,16
19,183,388.240345171653,0,1,531889.220813356,531890.267850377,3,1,89,0,8
19,184,699.51982179191,1,0,531891.679573484,531892.726615509,3,1,91,0,4
19,185,625.160861178301,1,0,531894.514793775,531895.561851199,3,1,64,4,4
19,186,449.954829295166,0,0,531897.397087273,531898.444115055,3,0,67,0,4
19,187,601.362867862917,1,0,531900.067617551,531901.114648413,3,1,71,0,16
19,188,454.662150121294,1,0,531902.832321962,531903.879318947,3,1,86,0,4
19,189,590.679390239529,0,0,531905.526318011,531906.573339248,3,0,83,8,16
19,190,393.212905037217,1,0,531908.34976846,531909.396800091,3,1,84,8,4
19,191,641.690763528459,0,0,531910.820294965,531911.867321592,3,0,96,8,0
19,192,790.314753772691,0,0,531913.655522185,531914.702554202,3,0,69,16,8
19,193,544.17977668345,0,0,531916.631922833,531917.67895177,3,0,92,16,4
19,194,555.270544718951,1,0,531919.290680574,531920.337715671,3,1,77,4,8
19,195,640.998216113076,0,0,531922.031794101,531923.078821498,3,0,71,16,8
19,196,563.427128945477,1,0,531924.843486258,531925.890519044,3,1,93,16,4
19,197,438.759736483917,1,0,531927.608139083,531928.655173024,3,1,95,4,4
19,198,751.397745567374,0,0,531930.243357911,531931.290388773,3,0,69,4,16
19,199,617.243338609114,0,0,531933.172694975,531934.219728146,3,0,79,16,16
19,200,746.712752617896,0,0,531935.843221788,531936.890256115,3,0,98,4,4
19,201,439.14469901938,0,0,531938.713748525,531939.760772457,3,0,96,8,0
19,202,549.865672015585,0,0,531941.254858279,531942.301956894,3,0,70,0,0
19,203,607.553064008243,0,1,531943.937141076,531944.984180406,3,1,91,16,8
19,204,657.312539406121,0,0,531946.713544495,531947.760576896,3,0,91,16,0
19,205,575.394456507638,0,0,531949.619359968,531950.66639468,3,0,81,16,0
19,206,377.733180299401,0,0,531952.33695152,531953.383978147,3,0,84,0,16
19,207,588.646788499318,0,0,531954.830996536,531955.878037022,3,0,93,4,0
19,208,650.122980820015,0,0,531957.548584238,531958.595610095,3,0,68,16,4
19,209,484.202243154868,1,0,531960.442629485,531961.489661117,3,1,77,0,16
19,210,784.866380388848,1,0,531963.136687128,531964.183718759,3,1,81,8,16
19,211,549.287843401544,1,0,531966.054259355,531967.101292911,3,1,68,0,16
19,212,577.261524274945,0,0,531968.748309683,531969.795347859,3,0,93,16,16
19,213,524.913176312111,0,0,531971.571785155,531972.618804083,3,0,88,8,8
19,214,681.194454547949,0,0,531974.230544051,531975.277575298,3,0,93,16,16
19,215,541.351457708515,0,0,531977.042229278,531978.089264374,3,0,62,4,4
19,216,666.328359860927,1,0,531979.78334242,531980.830378286,3,1,98,0,4
19,217,684.869306045584,1,0,531982.606802878,531983.653831815,3,1,90,0,8
19,218,492.464307113551,1,0,531985.34791756,531986.394951117,3,1,67,4,0
19,219,569.748597219586,1,0,531987.99490854,531989.041937092,3,1,64,16,0
19,220,533.752299030311,0,0,531990.653670901,531991.700712157,3,0,78,4,0
19,221,756.612061755732,1,0,531993.441839542,531994.488866169,3,1,99,8,16
19,222,551.316595403478,1,0,531996.371178916,531997.418212472,3,1,68,4,8
19,223,683.593155583367,1,0,531999.135817113,532000.182855289,3,1,83,0,8
19,224,733.893888187595,1,1,532001.900458389,532002.947488481,3,0,89,4,16
19,225,583.543341374025,1,0,532004.876855957,532005.923892978,3,1,87,8,8
19,226,527.898945030756,0,0,532007.535682222,532008.582690371,3,0,78,8,4
19,227,576.234059524722,1,0,532010.253242207,532011.300229568,3,1,75,16,8
19,228,689.61473798845,1,0,532013.064901641,532014.111925959,3,1,99,16,4
19,229,585.997091955505,1,0,532015.841301596,532016.888326683,3,1,68,0,0
19,230,443.199123488739,1,0,532018.547118686,532019.594146853,3,1,76,0,4
19,231,632.897451403551,0,0,532021.123527957,532022.170608094,3,0,80,4,8
19,232,833.250000025146,0,0,532023.841110269,532024.888137666,3,0,62,4,0
19,233,517.079575685784,0,0,532026.8292669,532027.876311235,3,0,94,0,0
19,234,586.769711691886,1,0,532029.417442162,532030.464543857,3,1,70,8,8
19,235,507.780037936755,0,0,532032.205605414,532033.252638971,3,0,85,4,16
19,236,528.583793202415,1,0,532034.805547439,532035.85258138,3,1,87,0,8
19,237,607.195818913169,0,0,532037.429018368,532038.47604538,3,0,79,8,4
19,238,714.775883359835,1,0,532040.205425252,532041.252502309,3,1,73,4,0
19,239,501.790407230146,0,0,532043.158293145,532044.205350954,3,0,66,8,0
19,240,549.6762705734,1,0,532045.899402437,532046.946457167,3,1,95,8,16
19,241,589.494090876542,1,0,532067.757696607,532068.804731318,4,1,74,16,0
19,242,400.145308696665,0,0,532070.487045682,532071.534074619,4,0,76,8,8
19,243,647.845928091556,1,0,532073.122273364,532074.169320779,4,1,87,4,4
19,244,569.729349110276,0,0,532075.96928467,532077.016297438,4,0,91,4,4
19,245,439.653619308956,0,0,532078.7691989,532079.816228992,4,0,61,8,8
19,246,562.156367930584,1,0,532081.439713395,532082.486751571,4,1,73,8,4
19,247,596.610121545382,0,0,532084.098505783,532085.145506618,4,0,93,8,16
19,248,498.264536145143,0,0,532086.933698357,532087.980734608,4,0,96,16,0
19,249,484.19916338753,1,0,532089.627754459,532090.6747961,4,1,75,16,8
19,250,565.201805788092,1,0,532092.274752753,532093.32178246,4,1,81,0,4
19,251,441.686605918221,1,0,532094.957043249,532096.004081425,4,1,96,0,8
19,252,711.205741739832,0,0,532097.568741257,532098.615777893,4,0,80,8,16
19,253,582.869272097014,0,0,532100.50964739,532101.556902507,4,0,97,16,4
19,254,439.587020780891,0,0,532103.180376516,532104.227405837,4,0,87,16,16
19,255,429.042514413595,1,0,532105.709723742,532106.756754604,4,1,87,0,4
19,256,550.289900624193,1,0,532108.36847109,532109.415528129,4,1,96,4,8
19,257,770.996953360736,0,0,532111.156653205,532112.203683297,4,0,92,4,4
19,258,395.66319109872,0,0,532114.086046473,532115.133047308,4,0,96,8,4
19,259,512.295647291467,0,0,532116.603580358,532117.650611604,4,0,79,0,8
19,260,540.538031957112,1,0,532119.262341564,532120.309371656,4,1,69,0,16
19,261,956.170432968065,0,0,532122.050506741,532123.097537987,4,0,61,16,0
19,262,544.778778334148,1,0,532125.226930024,532126.273982058,4,1,94,16,16
19,263,438.65695153363,0,0,532127.968016988,532129.015038226,4,0,86,4,4
19,264,543.303987127729,0,1,532130.603242746,532131.650279382,4,1,90,4,8
19,265,875.359501806088,1,0,532133.297294229,532134.344328555,4,1,90,8,16
19,266,461.379744694568,0,0,532136.250165587,532137.297199528,4,0,87,8,4
19,267,635.798528324813,0,0,532138.814818105,532139.861896702,4,0,99,0,0
19,268,412.489129463211,1,0,532141.591215364,532142.638250075,4,1,76,0,16
19,269,623.054731753655,0,0,532144.073513251,532145.120534874,4,0,86,16,4
19,270,516.294637112878,1,0,532146.779321873,532147.826351579,4,1,97,16,8
19,271,654.680166277103,1,0,532149.543961994,532150.590999015,4,1,93,0,16
19,272,781.953754485585,0,0,532152.355719594,532153.402709265,4,0,74,0,4
19,273,590.276334551163,1,0,532155.226181272,532156.273211364,4,1,89,0,16
19,274,629.688404500484,0,0,532157.9437555,532158.990791751,4,0,82,8,8
19,275,544.341845903546,1,0,532160.767222503,532161.814254519,4,1,99,16,4
19,276,666.965087759309,0,0,532163.402454805,532164.449490671,4,0,85,4,0
19,277,959.229344502091,0,0,532166.26120862,532167.308236787,4,0,92,4,8
19,278,573.090071207844,1,0,532169.355254559,532170.402285036,4,1,100,4,0
19,279,742.077419767156,0,0,532172.049305273,532173.096326511,4,0,78,16,16
19,280,633.277409360744,0,0,532174.955113817,532176.002145064,4,0,100,16,8
19,281,465.519245830365,0,0,532177.755045756,532178.802079697,4,0,97,8,16
19,282,386.332471389323,1,0,532180.307927662,532181.354962373,4,1,98,4,0
19,283,450.017193215899,1,0,532182.790218619,532183.837251791,4,1,77,0,0
19,284,598.121484159492,0,0,532185.34310399,532186.390131772,4,0,62,16,0
19,285,574.485560064204,1,0,532188.107736797,532189.154766119,4,1,86,16,0
19,286,468.479607021436,0,0,532190.848848784,532191.895881571,4,0,78,4,8
19,287,533.366566640325,1,0,532193.495841689,532194.54287255,4,1,94,0,0
19,288,604.690483305603,1,0,532196.213430931,532197.260473726,4,1,69,4,0
19,289,540.171162807383,1,0,532198.931011319,532199.978039486,4,1,97,16,8
19,290,547.890814719722,0,0,532201.707405499,532202.754449449,4,0,94,0,4
19,291,585.679113049991,1,0,532204.354416111,532205.401443123,4,1,69,4,16
19,292,610.754796653055,0,0,532207.154368838,532208.201406629,4,0,84,4,16
19,293,470.837117056362,0,0,532209.942510532,532210.989537929,4,0,79,8,4
19,294,495.464704348706,1,0,532212.483623751,532213.530649993,4,1,76,16,8
19,295,447.668152395636,1,0,532215.130622815,532216.177649442,4,1,94,16,16
19,296,564.640145632438,0,0,532217.789451774,532218.836405258,4,0,63,0,0
19,297,606.937124044634,0,0,532220.601080027,532221.648112813,4,0,69,4,0
19,298,595.234650769271,1,0,532223.353946842,532224.400976934,4,1,96,8,0
19,299,553.776505519636,0,0,532226.024475195,532227.071506057,4,0,94,16,16
19,300,647.777404636145,0,0,532228.683234092,532229.730271498,4,0,78,0,8
19,301,392.966529121622,1,0,532231.436108991,532232.483205682,4,1,76,8,4
19,302,681.557859061286,1,0,532233.965458528,532235.01249016,4,1,61,4,16
19,303,652.322656242177,0,0,532236.847739708,532237.894778654,4,0,69,16,4
19,304,428.383073885925,1,0,532239.706499682,532240.753525924,4,1,69,8,0
19,305,816.7928555049,1,0,532242.365281291,532243.412285976,4,1,82,8,8
19,306,650.999155361205,0,0,532245.271134491,532246.318136481,4,0,92,16,4
19,307,453.817157424055,0,0,532248.071002141,532249.118038777,4,0,87,4,16
19,308,411.488612066023,1,0,532250.600353603,532251.647379075,4,1,76,4,4
19,309,440.199880977161,1,0,532253.082667658,532254.129679657,4,1,67,4,16
19,310,502.068735077046,0,0,532255.764935441,532256.811972847,4,0,66,8,0
19,311,598.369014915079,1,0,532258.376633064,532259.423663926,4,1,99,0,8
19,312,551.378959440626,1,0,532261.129514508,532262.17653921,4,1,87,8,0
19,313,671.847181511112,0,0,532263.752980047,532264.800019763,4,0,69,8,8
19,314,707.88582554087,1,0,532266.494098579,532267.541119047,4,1,94,4,8
19,315,681.045859004371,1,0,532269.399893265,532270.446929901,4,1,80,0,8
19,316,402.561333030462,0,0,532272.235123949,532273.282157891,4,0,96,0,16
19,317,535.732160904445,0,0,532274.893889005,532275.940959133,4,0,68,0,4
19,318,601.796720526181,1,0,532277.587950883,532278.634981359,4,1,72,8,16
19,319,550.779572804458,1,0,532280.387953654,532281.434912528,4,1,88,0,0
19,320,672.619031160139,0,0,532283.176042223,532284.22306962,4,0,100,8,0
19,321,1259.6078395145,0,0,532305.010816343,532306.05789417,5,0,92,0,4
19,322,384.379171882756,0,0,532308.434253857,532309.481287029,5,0,76,8,0
19,323,632.507099420764,1,0,532311.045955715,532312.093008134,5,1,95,4,16
19,324,714.9429571582,1,0,532313.763529173,532314.810569659,5,1,64,4,16
19,325,604.376739007421,0,0,532316.634058604,532317.681083307,5,0,82,0,0
19,326,762.331063859165,1,0,532319.31634525,532320.363374572,5,1,76,4,8
19,327,569.66082577128,1,0,532322.280977981,532323.328027321,5,1,88,16,16
19,328,803.104361053556,1,0,532325.01033129,532326.057350603,5,1,61,16,0
19,329,576.488134800456,0,0,532328.022017595,532329.069051536,5,0,69,0,16
19,330,516.369704855606,0,0,532330.821951074,532331.868976546,5,0,72,0,4
19,331,488.830261630937,0,0,532333.492472113,532334.539504899,5,0,78,8,16
19,332,783.236449351534,0,0,532336.045347089,532337.092382185,5,0,82,4,4
19,333,483.058904646896,0,0,532338.998218062,532340.045256623,5,0,96,16,16
19,334,512.927370727994,0,0,532341.586396789,532342.633421107,5,0,95,0,16
19,335,528.382072923705,0,0,532344.151034678,532345.198075934,5,0,77,4,8
19,336,395.331353298388,1,0,532346.750980937,532347.798011414,5,1,76,8,4
19,337,598.196936771274,0,1,532349.233270355,532350.280303912,5,1,91,4,4
19,338,590.470355586149,0,0,532351.950850743,532352.997886994,5,0,80,0,0
19,339,544.876173720695,1,0,532354.668478481,532355.715466227,5,1,75,4,4
19,340,654.298668610863,0,0,532357.291900135,532358.338929072,5,0,64,0,8
19,341,675.890056998469,0,0,532360.115426807,532361.16244304,5,0,97,8,16
19,342,662.63695503585,0,0,532362.950585504,532363.99762137,5,0,62,16,4
19,343,719.132118392736,0,0,532365.821106466,532366.868134248,5,0,82,4,16
19,344,443.184879841283,1,0,532368.773977439,532369.821006376,5,1,75,0,8
19,345,597.275721724145,0,0,532371.326874743,532372.373888667,5,0,79,8,4
19,346,631.797998794355,0,0,532374.138551886,532375.185585057,5,0,83,0,4
19,347,593.457664246671,0,0,532376.926722837,532377.973740225,5,0,87,0,4
19,348,864.12668263074,1,0,532379.750178291,532380.797209922,5,1,96,8,8
19,349,506.448452826589,1,0,532382.820693401,532383.867730037,5,1,75,16,0
19,350,639.898378401995,0,0,532385.538286493,532386.58530773,5,0,81,4,4
19,351,598.827120265923,1,0,532388.432394104,532389.479352977,5,1,79,0,0
19,352,534.742422401905,1,0,532391.279378462,532392.326372752,5,1,69,0,16
19,353,689.008422312327,1,0,532393.985138963,532395.032167515,5,1,71,16,8
19,354,615.374346030876,0,0,532396.902706185,532397.949738972,5,0,98,0,16
19,355,681.49665009696,1,0,532399.761461925,532400.808493171,5,1,70,8,8
19,356,834.125404711813,1,0,532402.631980962,532403.679010669,5,1,91,8,8
19,357,554.946406395175,1,0,532405.573154466,532406.620170699,5,1,70,16,16
19,358,522.543732542545,1,0,532408.349490902,532409.396519839,5,1,81,0,8
19,359,670.007445965894,1,0,532411.12589894,532412.172934037,5,1,81,8,4
19,360,621.426725527272,0,0,532413.9846516,532415.031677458,5,0,91,8,0
19,361,679.118352127261,0,0,532416.725759738,532417.772793294,5,0,100,8,4
19,362,743.219218449667,1,0,532419.61980537,532420.666837771,5,1,70,4,16
19,363,802.18199105002,0,0,532422.572679422,532423.619709514,5,0,62,16,0
19,364,559.855062398128,1,0,532425.454963682,532426.502055753,5,1,95,0,4
19,365,656.23464458622,0,0,532428.219599954,532429.266630046,5,0,97,16,16
19,366,521.563233225606,0,0,532430.937184961,532431.984213513,5,0,66,8,8
19,367,667.785057798028,0,0,532433.690113371,532434.73711613,5,0,84,4,0
19,368,527.247973601334,1,0,532436.46646097,532437.513495296,5,1,69,16,16
19,369,656.312022125348,1,0,532439.21933433,532440.266373276,5,1,61,0,8
19,370,686.676319688559,0,0,532442.125146339,532443.17217874,5,0,93,8,0
19,371,467.081808368675,1,0,532444.889782226,532445.936824637,5,1,84,16,4
19,372,439.490780117922,1,0,532447.419142926,532448.466166859,5,1,75,4,0
19,373,494.88187127281,1,0,532450.0308879,532451.077874876,5,1,68,4,0
19,374,586.177639430389,0,0,532452.642540482,532453.689575963,5,0,83,16,8
19,375,363.379470654763,1,0,532455.442519001,532456.48952099,5,1,77,4,16
19,376,748.065125662833,1,0,532457.936535915,532458.983567931,5,1,81,4,4
19,377,584.687064867467,1,0,532460.759994833,532461.807023385,5,1,84,4,0
19,378,370.097450213507,1,0,532463.430520876,532464.477549428,5,1,76,4,0
19,379,572.838690830395,0,0,532465.912816069,532466.959906215,5,0,92,8,16
19,380,593.385291169398,1,0,532468.595090781,532469.642135886,5,1,71,16,8
19,381,547.97281161882,1,0,532471.359773634,532472.406776008,5,1,68,16,8
19,382,608.515470172279,0,0,532474.136146256,532475.183175962,5,0,100,16,0
19,383,487.678069039248,0,0,532476.841959496,532477.888984969,5,0,80,0,8
19,384,507.360813790001,1,0,532479.571308571,532480.618335583,5,1,64,4,8
19,385,679.699645494111,1,0,532482.288887034,532483.335918281,5,1,99,16,4
19,386,558.123886352405,0,0,532485.065286989,532486.112325935,5,0,65,8,16
19,387,510.982925305143,1,0,532487.853460249,532488.900483797,5,1,70,8,16
19,388,465.658602304757,1,0,532490.476929254,532491.523956651,5,1,82,0,0
19,389,432.748547871597,1,0,532493.041570992,532494.0886442,5,1,63,16,4
19,390,669.505839818157,1,0,532495.665035377,532496.712063929,5,1,81,8,0
19,391,556.778057711199,0,0,532498.582616843,532499.629707759,5,0,93,16,8
19,392,477.557021426037,1,0,532501.311962068,532502.358995624,5,1,65,4,8
19,393,459.982716012746,1,1,532503.888362484,532504.935399506,5,0,91,0,16
19,394,456.133091589436,0,0,532506.441239771,532507.488274867,5,0,65,8,0
19,395,454.171322868206,0,0,532508.994127836,532510.041147149,5,0,85,0,0
19,396,583.801651140675,0,0,532511.664645795,532512.711676657,5,0,78,16,0
19,397,677.242815145291,0,0,532514.441044595,532515.488107793,5,0,98,8,8
19,398,546.867584460415,0,0,532517.370395132,532518.417481429,5,0,84,16,4
19,399,482.183500076644,0,0,532519.98209237,532521.029114763,5,0,78,4,8
19,400,600.136377615854,1,0,532522.676145778,532523.72317818,5,1,90,8,4
19,401,552.526917308569,1,0,532549.428449009,532550.475485645,6,1,68,8,0
19,402,519.743515760638,1,0,532552.075439603,532553.122472005,6,1,99,0,0
19,403,506.923496490344,0,0,532554.68714223,532555.734176172,6,0,99,16,8
19,404,537.678531021811,0,0,532557.322376072,532558.369402314,6,0,70,4,0
19,405,572.867178008892,1,0,532559.922317327,532560.969363202,6,1,65,8,16
19,406,485.265124472789,0,0,532562.698713047,532563.745746988,6,0,97,8,0
19,407,566.290479502641,1,0,532565.345711341,532566.392735658,6,1,68,16,0
19,408,835.622523562051,0,0,532568.063288264,532569.11032721,6,0,65,8,4
19,409,1113.38024050929,1,0,532570.992630332,532572.039661579,6,1,93,0,4
19,410,571.668404969387,1,0,532574.251376679,532575.29840754,6,1,98,4,0
19,411,622.958876076154,1,0,532576.921896178,532577.968936664,6,1,63,16,16
19,412,739.161714329384,1,0,532579.615953821,532580.662978138,6,1,94,8,4
19,413,739.332252647728,1,0,532582.52176044,532583.568792072,6,1,91,4,16
19,414,696.162564214319,1,0,532585.321733955,532586.368758657,6,1,66,0,8
19,415,500.615501892753,1,0,532588.1922195,532589.239242663,6,1,94,0,0
19,416,586.817831965163,0,0,532590.745175704,532591.792127648,6,0,83,8,8
19,417,499.232331756502,0,0,532593.415619365,532594.462651382,6,0,94,8,16
19,418,492.379230330698,0,0,532596.062614194,532597.109646211,6,0,67,16,4
19,419,584.215485840105,1,0,532598.615491481,532599.662528502,6,1,65,0,0
19,420,475.124443764798,0,0,532601.403660507,532602.450691754,6,0,77,8,0
19,421,442.329108365811,1,0,532603.956527399,532605.003560956,6,1,76,0,4
19,422,511.519178049639,0,0,532606.56824273,532607.615272822,6,0,77,8,16
19,423,928.000421146862,0,0,532609.285828123,532610.332855905,6,0,94,16,4
19,424,461.534884525463,0,0,532612.356342078,532613.40336986,6,0,88,0,8
19,425,648.331750649959,0,0,532614.956275634,532616.00331227,6,0,83,16,8
19,426,762.489283457398,0,0,532617.850320881,532618.897353282,6,0,93,16,16
19,427,490.758923464455,1,0,532620.709072386,532621.756112102,6,1,83,0,16
19,428,589.218842680566,0,0,532623.391369426,532624.438394128,6,0,89,16,16
19,429,439.952350105159,0,0,532626.073651838,532627.120691168,6,0,87,8,0
19,430,441.660428536125,0,0,532628.708891454,532629.755940024,6,0,99,4,4
19,431,421.398700331338,0,0,532631.391170016,532632.438207037,6,0,86,4,4
19,432,589.665014180355,1,0,532633.955825998,532635.002853395,6,1,66,16,4
19,433,415.267788339406,0,0,532636.720454955,532637.767493516,6,0,67,8,4
19,434,434.00275555905,0,0,532639.308630218,532640.355667624,6,0,64,8,16
19,435,450.399075867608,0,0,532641.979149717,532643.026180579,6,0,84,4,0
19,436,491.128487396054,0,0,532644.508501564,532645.55554051,6,0,66,16,0
19,437,613.249353249557,0,0,532647.16726508,532648.214294402,6,0,100,8,4
19,438,539.070940110832,0,1,532649.955432181,532651.002461118,6,1,80,4,0
19,439,788.76951453276,0,0,532652.7318356,532653.778861072,6,0,70,8,0
19,440,433.021101285703,0,0,532655.743529604,532656.790557386,6,0,79,16,8
19,441,501.018557464704,1,0,532658.249346772,532659.296382253,6,1,66,4,0
19,442,534.308954724111,1,0,532660.955164632,532662.00218895,6,1,98,4,8
19,443,440.485138213262,0,0,532663.555105887,532664.602136364,6,0,85,8,8
19,444,457.654848112725,0,0,532666.060928059,532667.107953146,6,0,79,4,16
19,445,555.432228953578,0,0,532668.649099472,532669.696115705,6,0,85,16,16
19,446,486.043903511018,0,0,532671.331388428,532672.378415825,6,0,97,0,8
19,447,561.768710729666,0,0,532674.060718639,532675.107778373,6,0,93,4,8
19,448,689.100043382496,1,0,532676.837132068,532677.884166779,6,1,88,16,8
19,449,413.713695015758,1,0,532679.707658419,532680.754727392,6,1,67,4,16
19,450,516.15374092944,1,0,532682.225245428,532683.27227244,6,1,77,16,0
19,451,780.125182936899,1,0,532684.872239487,532685.919268039,6,1,92,16,0
19,452,742.408872465603,0,0,532687.789812869,532688.836839111,6,0,70,8,8
19,453,759.608224499971,1,0,532690.648563604,532691.69560024,6,1,88,16,4
19,454,567.960831569508,0,0,532693.554380233,532694.601425723,6,0,61,0,4
19,455,536.68725269381,0,0,532696.18960753,532697.236639931,6,0,61,0,0
19,456,722.288425429724,1,0,532698.966011719,532700.013042581,6,1,82,4,16
19,457,402.699149562977,0,0,532701.930652534,532702.977680316,6,0,67,0,16
19,458,630.258148885332,1,0,532704.459997066,532705.507029852,6,1,94,16,0
19,459,417.185286292806,1,0,532707.21287543,532708.259908601,6,1,94,0,4
19,460,553.06817451492,0,0,532709.695167158,532710.742198404,6,0,97,0,16
19,461,828.390619019046,1,0,532712.41275178,532713.459777252,6,1,88,16,8
19,462,781.087589100935,1,0,532715.447983928,532716.495001316,6,1,89,8,16
19,463,622.220902936533,1,0,532718.353780153,532719.400816404,6,1,90,4,4
19,464,595.179986092262,1,0,532721.036071804,532722.083093427,6,1,65,4,8
19,465,465.130048803985,1,0,532723.788944394,532724.835971406,6,1,97,0,16
19,466,447.867177892476,0,0,532726.471230655,532727.518295778,6,0,99,4,4
19,467,527.670277399011,1,0,532729.118232413,532730.165327179,6,1,90,16,4
19,468,584.301332361065,0,0,532731.847567244,532732.894662395,6,0,82,0,8
19,469,493.204974918626,0,0,532734.63573935,532735.682767132,6,0,99,8,4
19,470,497.893432504497,1,0,532737.270971652,532738.318020222,6,1,65,4,8
19,471,433.006857754663,0,0,532739.965023135,532741.012055152,6,0,77,0,0
19,472,602.69599291496,0,1,532742.600251588,532743.647284374,6,1,82,4,8
19,473,409.594211960211,1,0,532745.341366654,532746.388395591,6,1,63,0,16
19,474,490.67500163801,0,0,532747.847233097,532748.894217763,6,0,76,0,4
19,475,456.524983397685,1,0,532750.43534946,532751.482403035,6,1,87,8,8
19,476,631.655947538093,1,0,532753.094186889,532754.141152307,6,1,100,8,8
19,477,482.931867009029,1,0,532755.95288065,532756.999901503,6,1,85,16,16
19,478,609.460552921519,0,0,532758.623398224,532759.670426776,6,0,89,0,8
19,479,421.896841726266,1,0,532761.388033342,532762.435133496,6,1,99,4,4
19,480,511.226221686229,1,0,532764.058557075,532765.105593711,6,1,89,4,16
19,481,1635.3893133346,1,0,532799.7753506,532800.822374147,7,1,71,8,16
19,482,410.14855785761,1,0,532803.563488059,532804.610521231,7,1,76,8,4
19,483,384.366083075292,1,0,532806.128138267,532807.175166434,7,1,64,0,16
19,484,468.781417584978,1,0,532808.633959284,532809.680981292,7,1,97,0,4
19,485,481.106760096736,1,1,532811.21036586,532812.257390562,7,0,73,0,16
19,486,601.589610800147,1,0,532813.775002979,532814.822035765,7,1,98,16,0
19,487,484.273846144788,1,0,532816.504347819,532817.551390614,7,1,75,8,4
19,488,681.453919271007,1,0,532819.116056991,532820.163083233,7,1,92,16,0
19,489,470.491805695929,1,0,532821.857164743,532822.904185211,7,1,68,8,8
19,490,650.046373368241,0,0,532824.586512663,532825.63354006,7,0,71,4,8
19,491,570.754504064098,1,0,532827.48055945,532828.527618029,7,1,71,0,0
19,492,538.078506942838,1,0,532830.139319116,532831.186351518,7,1,82,16,4
19,493,482.756324228831,0,0,532832.821613461,532833.868645478,7,0,93,0,8
19,494,514.821000979282,1,0,532835.5627139,532836.609744376,7,1,65,8,4
19,495,603.875902714208,0,0,532838.221480495,532839.268500193,7,0,91,0,0
19,496,512.71256164182,1,0,532840.915537753,532841.962557836,7,1,91,0,8
19,497,588.324959971942,1,0,532843.539010222,532844.58602684,7,1,97,8,8
19,498,374.99186268542,1,0,532846.2212807,532847.268312717,7,1,77,8,8
19,499,467.887919745408,1,0,532848.715338805,532849.762374286,7,1,80,4,0
19,500,419.551650527865,0,0,532851.291741916,532852.338782786,7,0,86,4,4
19,501,611.326465965249,0,0,532853.832862834,532854.87989639,7,0,70,0,4
19,502,443.838161067106,0,0,532856.656324447,532857.703359928,7,0,75,0,16
19,503,557.676560012624,1,0,532859.291559829,532860.338593,7,1,89,0,0
19,504,522.189952083863,0,0,532861.915023443,532862.962048916,7,0,85,16,8
19,505,434.864686452784,1,0,532864.59730624,532865.644343261,7,1,94,0,0
19,506,510.109060676768,1,0,532867.150200465,532868.197220162,7,1,67,8,4
19,507,578.158486750908,0,0,532869.903056501,532870.950089672,7,0,96,16,4
19,508,387.572820298374,1,0,532872.667705092,532873.714734799,7,1,88,0,8
19,509,515.814204001799,0,0,532875.12646522,532876.173499931,7,0,66,0,8
19,510,567.00496992562,0,0,532877.785331136,532878.832307718,7,0,95,4,0
19,511,537.198482896201,1,0,532880.443996102,532881.491021574,7,1,75,4,8
19,512,753.654780331999,0,0,532883.220430703,532884.267444241,7,0,100,16,4
19,513,481.256125494838,1,0,532886.04384843,532887.090882757,7,1,94,8,8
19,514,530.673369416036,1,0,532888.761441907,532889.80845275,7,1,98,8,4
19,515,673.022086848505,1,0,532891.420191949,532892.467223581,7,1,76,16,4
19,516,526.504226145335,1,0,532894.255422634,532895.302455805,7,1,83,4,0
19,517,685.238869977184,1,0,532896.984764394,532898.031789482,7,1,61,16,8
19,518,581.6158343805,0,0,532899.749397972,532900.796433068,7,0,63,16,16
19,519,597.673002979718,1,0,532902.39639973,532903.443423663,7,1,72,4,0
19,520,643.338402849622,1,0,532905.231626951,532906.278653578,7,1,69,16,8
19,521,580.17338020727,0,0,532908.066848396,532909.113878873,7,0,94,16,16
19,522,581.090360647067,0,0,532910.713843995,532911.760878707,7,0,65,4,4
19,523,561.86764605809,1,0,532913.502009942,532914.549092004,7,1,96,16,4
19,524,453.839870286174,0,0,532916.196090298,532917.243105376,7,0,98,16,0
19,525,760.511731379665,0,0,532918.819527735,532919.866562446,7,0,74,4,16
19,526,435.231555718929,1,0,532921.666522872,532922.713556044,7,1,64,16,16
19,527,445.519676897675,0,0,532924.172346199,532925.219370516,7,0,65,4,8
19,528,699.341969098896,0,0,532926.866397682,532927.913422,7,0,91,16,0
19,529,541.548558394425,0,0,532929.71338358,532930.760416367,7,0,76,0,4
19,530,479.14576146286,0,0,532932.395677541,532933.442715717,7,0,84,4,8
19,531,483.107025036588,1,0,532934.93678768,532935.983820467,7,1,72,0,8
19,532,590.08577815257,0,0,532937.583782124,532938.630809521,7,0,90,0,4
19,533,510.397782549262,0,0,532940.254294309,532941.301340569,7,0,73,4,4
19,534,616.176222683862,0,0,532942.889540085,532943.936567482,7,0,99,8,0
19,535,706.104604294524,0,0,532945.736522518,532946.783558384,7,0,90,4,16
19,536,419.44540082477,0,0,532948.595283647,532949.642313354,7,0,86,8,0
19,537,793.813677388243,1,0,532951.20698435,532952.254012132,7,1,99,8,16
19,538,609.858604031615,0,0,532954.065737395,532955.11283678,7,0,84,16,8
19,539,688.416350050829,0,0,532956.889193233,532957.936233334,7,0,69,8,16
19,540,582.640219479799,0,0,532959.700950833,532960.747924336,7,0,83,8,0
19,541,680.256686056964,1,0,532962.371414128,532963.418453459,7,1,75,8,16
19,542,602.368004852906,1,0,532965.183114368,532966.230141765,7,1,79,4,16
19,543,504.445493221283,1,0,532967.97128455,532969.018318491,7,1,81,0,16
19,544,669.57359330263,1,0,532970.72415252,532971.771186846,7,1,98,4,16
19,545,474.95890990831,1,0,532973.547620292,532974.594656158,7,1,73,8,0
19,546,551.687314291485,1,0,532976.182857214,532977.229881916,7,1,72,4,4
19,547,659.104154794477,1,0,532978.794550602,532979.841583773,7,1,69,8,16
19,548,543.136143591255,0,0,532981.606260466,532982.653277084,7,0,72,8,8
19,549,587.359474040568,1,0,532984.312063313,532985.359101874,7,1,61,16,0
19,550,488.133479608223,1,1,532987.100232339,532988.147264741,7,0,100,0,4
19,551,559.23411808908,0,0,532989.841344711,532990.888372878,7,0,74,4,16
19,552,429.000168689527,0,0,532992.476578168,532993.523621349,7,0,86,8,0
19,553,414.648768724874,0,0,532995.017739892,532996.064731873,7,0,75,16,16
19,554,593.666698783636,1,0,532997.60586203,532998.652892892,7,1,89,16,8
19,555,857.469527167268,0,0,533000.299925447,533001.34694861,7,0,65,0,16
19,556,401.384117780253,0,0,533003.288078998,533004.33510986,7,0,64,4,8
19,557,588.402337394655,0,0,533005.782125169,533006.829158725,7,0,92,4,0
19,558,599.158187978901,0,0,533008.62912916,533009.676152323,7,0,91,4,4
19,559,470.430981600657,0,0,533011.381994051,533012.429019523,7,0,96,16,16
19,560,538.640937069431,0,0,533014.099623714,533015.146613769,7,0,81,0,0
19,561,1741.51537462603,0,0,533049.898714125,533050.945746526,8,0,70,16,8
19,562,588.639474241063,0,0,533053.85155584,533054.898594016,8,0,79,8,16
19,563,430.438773240894,1,0,533056.698552132,533057.745582609,8,1,65,4,0
19,564,491.436842363328,1,0,533059.239661117,533060.286699293,8,1,84,4,0
19,565,561.291357385926,0,0,533061.886659411,533062.933697202,8,0,96,16,4
19,566,412.919902475551,1,0,533064.510186544,533065.557189304,8,1,74,4,4
19,567,561.385673121549,0,0,533067.074769384,533068.121802555,8,0,89,4,16
19,568,426.039807498455,0,0,533069.75705757,533070.804089201,8,0,80,16,16
19,569,470.41981772054,1,0,533072.333469535,533073.380498857,8,1,98,0,8
19,570,716.584051959217,1,0,533075.039288165,533076.086317872,8,1,83,16,16
19,571,556.71107408125,1,0,533077.933331487,533078.980358884,8,1,66,0,16
19,572,487.593762227334,1,0,533080.580325547,533081.627363338,8,1,73,4,8
19,573,455.774306552485,0,0,533083.180262182,533084.227291504,8,0,77,4,0
19,574,635.778895346448,0,0,533085.791968659,533086.839052645,8,0,94,16,8
19,575,574.30770737119,0,0,533088.650715159,533089.697748716,8,0,61,8,16
19,576,657.963895937428,1,0,533091.43888611,533092.485925056,8,1,74,16,0
19,577,539.69958378002,0,0,533094.227083239,533095.274138738,8,0,68,4,0
19,578,451.702173799276,1,0,533097.026997469,533098.074031411,8,1,69,8,0
19,579,455.080604180694,0,0,533099.591627274,533100.638657751,8,0,76,0,16
19,580,622.999297105707,1,0,533102.226913085,533103.273953186,8,1,92,16,8
19,581,680.164680001326,1,0,533104.932680901,533105.979708683,8,1,61,16,0
19,582,618.133756797761,0,0,533107.838495989,533108.885530701,8,0,92,16,8
19,583,748.973637120798,1,0,533110.626663476,533111.673691643,8,1,90,8,16
19,584,793.958808295429,0,0,533113.473651299,533114.52068755,8,0,98,8,0
19,585,490.795110003091,1,0,533116.403005686,533117.450026923,8,1,83,0,4
19,586,400.91561852023,1,0,533119.061751494,533120.10878813,8,1,83,4,16
19,587,441.931826993823,1,0,533121.708745938,533122.755779494,8,1,92,0,16
19,588,500.55544776842,0,0,533124.3910245,533125.43806922,8,0,94,0,0
19,589,518.007335020229,1,0,533127.108658012,533128.155644988,8,1,98,0,16
19,590,380.129571422003,1,0,533129.708553072,533130.755597792,8,1,95,0,4
19,591,620.378087740391,1,0,533132.273192885,533133.320224517,8,1,89,0,4
19,592,425.000793882646,0,0,533135.002541575,533136.049573592,8,0,76,4,8
19,593,570.67982130684,0,0,533137.578944686,533138.625983632,8,0,95,4,8
19,594,355.388035182841,1,0,533140.35535619,533141.402379352,8,1,86,4,4
19,595,648.719407850876,1,0,533142.872942429,533143.919977525,8,1,81,0,0
19,596,661.202969960868,1,0,533145.602288424,533146.649312741,8,1,81,16,4
19,597,643.403846421279,0,0,533148.413982505,533149.461012212,8,0,61,4,0
19,598,471.33063885849,0,0,533151.155096032,533152.202117654,8,0,87,16,16
19,599,1772.18302269466,0,0,533153.884435098,533154.931468269,8,0,99,4,8
19,600,690.601396840066,0,0,533157.860813802,533158.907841584,8,0,69,8,4
19,601,401.2924968265,1,0,533160.790151251,533161.837180573,8,1,66,0,4
19,602,924.13693817798,0,0,533163.378326514,533164.4253593,8,0,91,16,4
19,603,584.353687358089,0,0,533166.542954547,533167.58998156,8,0,93,16,4
19,604,499.655790510587,0,0,533169.295831757,533170.342864543,8,0,71,16,0
19,605,630.596145871095,0,0,533171.895766467,533172.942799639,8,0,100,8,4
19,606,580.799714080058,1,0,533174.660407359,533175.70744284,8,1,96,0,8
19,607,485.604276414961,1,0,533177.495629575,533178.542665826,8,1,85,8,0
19,608,596.817231387831,0,0,533180.201507874,533181.24849177,8,0,61,0,0
19,609,613.53846010752,0,0,533182.930797279,533183.977820442,8,0,99,8,8
19,610,457.710282644257,0,0,533185.683671024,533186.730699191,8,0,95,8,4
19,611,389.753247494809,0,0,533188.342441854,533189.389456163,8,0,96,0,0
19,612,519.441705197096,0,1,533190.918840346,533191.965871978,8,1,89,4,4
19,613,554.197269491851,1,0,533193.601118523,533194.648156314,8,1,90,0,0
19,614,609.328895690851,1,0,533196.365767884,533197.412809139,8,1,73,8,8
19,615,547.798423678614,1,0,533199.024518696,533200.071554177,8,1,80,0,8
19,616,633.952633477747,1,0,533201.789159588,533202.836209698,8,1,97,8,8
19,617,405.015853582881,1,0,533204.530276964,533205.577345167,8,1,87,4,16
19,618,420.277304714546,1,0,533207.141971122,533208.189004679,8,1,97,16,4
19,619,595.576882478781,1,0,533209.753679524,533210.800714235,8,1,74,16,0
19,620,725.842783693224,1,0,533212.412431876,533213.459463508,8,1,71,8,16
19,621,708.591461763717,0,0,533215.212369204,533216.259404686,8,0,88,4,16
19,622,534.320888458751,0,0,533218.094646534,533219.141678551,8,0,83,4,4
19,623,626.214888412505,0,0,533220.729877296,533221.776910853,8,0,64,4,8
19,624,587.823738809675,1,0,533223.412255178,533224.45923561,8,1,100,0,4
19,625,670.652643078938,0,0,533226.247391933,533227.294427799,8,0,97,8,0
19,626,781.27660555765,0,0,533229.176730536,533230.223757933,8,0,91,16,16
19,627,473.75243762508,0,0,533232.200187838,533233.247287223,8,0,64,16,0
19,628,438.62268992234,1,0,533234.882481028,533235.92950727,8,1,63,0,16
19,629,393.543972750194,1,0,533237.482418818,533238.52944583,8,1,63,0,8
19,630,436.013029422611,0,0,533240.047059402,533241.094136459,8,0,77,4,16
19,631,562.83736648038,1,0,533242.635232355,533243.682260522,8,1,98,4,4
19,632,613.854514318518,0,0,533245.388113414,533246.435203945,8,0,62,8,0
19,633,538.364919018932,0,0,533248.211568482,533249.258593185,8,0,84,16,16
19,634,542.580642737448,1,0,533250.917387498,533251.96441374,8,1,87,8,4
19,635,598.3586210059,0,0,533253.599674914,533254.646697691,8,0,92,8,16
19,636,583.246535388753,1,0,533256.399597613,533257.446638869,8,1,79,8,8
19,637,425.059693050571,1,0,533259.081888879,533260.1289259,8,1,96,0,8
19,638,577.140261186287,0,0,533261.740654705,533262.787681332,8,0,70,8,8
19,639,507.565228850581,0,0,533264.458234323,533265.505260565,8,0,75,16,8
19,640,479.657376534306,0,0,533267.211111147,533268.258145088,8,0,69,8,4
19,641,503.944272059016,0,0,533300.586777517,533301.633807224,9,0,68,8,0
19,642,701.299888081849,0,0,533303.210231508,533304.257266604,9,0,82,16,0
19,643,459.300947492011,0,0,533306.057226645,533307.104254812,9,0,94,16,0
19,644,492.274135700427,0,0,533308.645405372,533309.692436234,9,0,82,4,0
19,645,425.851175794378,1,0,533311.233570626,533312.280603797,9,1,65,16,16
19,646,364.555530948564,0,0,533313.762925937,533314.809952949,9,0,64,4,0
19,647,573.582823155448,0,0,533316.209923538,533317.256959789,9,0,79,8,4
19,648,446.463219937868,1,0,533318.856916057,533319.903949614,9,1,96,4,16
19,649,398.056117468514,0,0,533321.374501142,533322.421528924,9,0,65,4,8
19,650,355.513148009777,0,0,533323.997971301,533325.045004472,9,0,64,0,0
19,651,391.606071847491,0,0,533326.409680935,533327.456749138,9,0,66,16,8
19,652,630.245060194284,1,0,533328.974318054,533330.021382407,9,1,62,8,16
19,653,558.359868358821,0,0,533331.680139379,533332.727167546,9,0,83,8,16
19,654,494.107326725498,0,0,533334.46830263,533335.515329643,9,0,85,8,16
19,655,462.570048635826,0,0,533337.032945909,533338.079980235,9,0,95,16,4
19,656,543.686254881322,0,1,533339.597600736,533340.644651616,9,1,98,16,8
19,657,635.20183658693,0,0,533342.221044333,533343.268094828,9,0,88,4,4
19,658,665.355559904128,1,0,533345.020994365,533346.068022147,9,1,93,4,4
19,659,464.161868323572,1,0,533347.762103657,533348.809124125,9,1,87,8,8
19,660,631.211700849235,0,0,533350.397334034,533351.444356427,9,0,61,16,4
19,661,523.591985343955,0,0,533353.126681184,533354.173705116,9,0,86,8,4
19,662,428.596343030222,0,0,533355.820726508,533356.867760064,9,0,64,0,8
19,663,574.362757033668,1,0,533358.408898691,533359.455932632,9,1,69,8,0
19,664,418.274345109239,1,0,533361.197066947,533362.244100889,9,1,75,4,0
19,665,395.132327801548,0,1,533363.749948083,533364.79698087,9,1,93,8,16
19,666,696.829704218544,0,1,533366.27934574,533367.326359279,9,1,92,4,8
19,667,635.663791443221,0,0,533369.22040568,533370.267435772,9,0,67,8,8
19,668,495.366538874805,0,0,533372.102691095,533373.149720416,9,0,84,0,16
19,669,487.913281074725,1,0,533374.820271867,533375.867313893,9,1,66,16,16
19,670,831.973464577459,1,0,533377.479029609,533378.526057776,9,1,100,16,16
19,671,577.290781307966,0,0,533380.43191521,533381.478942223,9,0,88,8,4
19,672,525.148388347588,1,0,533383.078890407,533384.125925118,9,1,74,16,16
19,673,625.727140926756,1,0,533385.749416065,533386.796442307,9,1,69,4,4
19,674,499.693131889217,1,0,533388.443471398,533389.49049841,9,1,61,0,4
19,675,467.443288071081,1,0,533391.125760354,533392.172787751,9,1,77,0,16
19,676,438.334352918901,1,0,533393.725696604,533394.772729391,9,1,65,16,4
19,677,576.473121182062,0,0,533396.231509922,533397.278546943,9,0,100,16,8
19,678,501.164073357359,1,0,533398.913810812,533399.960838979,9,1,81,0,8
19,679,506.083123502322,1,0,533401.560791782,533402.607831498,9,1,95,4,8
19,680,516.712321550585,1,0,533404.278447623,533405.325409961,9,1,79,16,0
19,681,381.983935600147,1,0,533406.995958332,533408.042994968,9,1,65,0,4
19,682,536.93093394395,1,0,533409.58413167,533410.631167536,9,1,84,16,0
19,683,740.402833092958,0,0,533412.266425246,533413.313449948,9,0,71,8,4
19,684,567.273673717864,0,0,533415.101650541,533416.148678708,9,0,90,0,0
19,685,377.420205855742,0,0,533417.9015794,533418.948613726,9,0,65,4,16
19,686,445.123935583979,1,0,533420.39563481,533421.442666442,9,1,68,0,4
19,687,455.347768147476,0,0,533422.948519411,533423.995550657,9,0,89,8,8
19,688,407.87650947459,1,0,533425.524924446,533426.571956463,9,1,74,0,8
19,689,500.006876187399,0,0,533428.019001414,533429.066010333,9,0,73,4,0
19,690,601.348239346407,0,0,533430.595393362,533431.642423068,9,0,65,0,0
19,691,638.697295566089,0,0,533433.312973749,533434.360006151,9,0,100,16,4
19,692,455.513686989434,1,0,533436.089378323,533437.13640572,9,1,89,0,16
19,693,552.367927855812,0,0,533438.677552816,533439.724580213,9,0,62,16,16
19,694,457.997464691289,1,0,533441.406928453,533442.453921973,9,1,85,8,0
19,695,494.874941883609,1,0,533443.948003561,533444.995037502,9,1,87,8,16
19,696,546.812919783406,1,0,533446.606765152,533447.653864152,9,1,84,16,0
19,697,571.413944824599,0,0,533449.371407199,533450.41844268,9,0,62,4,0
19,698,678.219464840367,1,0,533452.159570065,533453.206605932,9,1,100,4,8
19,699,558.423002134077,0,0,533455.065387849,533456.112419095,9,0,63,4,16
19,700,508.31128610298,0,0,533457.818253894,533458.865290145,9,0,98,0,0
19,701,564.272121526301,0,0,533460.512307302,533461.559345863,9,0,80,4,4
19,702,543.067620252259,1,0,533463.147342678,533464.19457778,9,1,80,8,0
19,703,551.473660161719,1,0,533465.818065648,533466.865096894,9,1,70,16,8
19,704,427.054183441214,0,0,533468.441527723,533469.488565899,9,0,95,0,16
19,705,487.007849384099,1,0,533471.088530251,533472.135563423,9,1,61,0,4
19,706,429.084860370494,1,0,533473.782582889,533474.829607977,9,1,94,8,4
19,707,567.585878190584,1,0,533476.464865686,533477.511903477,9,1,69,4,4
19,708,442.555081215687,0,0,533479.111856665,533480.158890607,9,0,68,16,4
19,709,555.054580792785,0,0,533481.676505718,533482.723534655,9,0,91,0,8
19,710,734.604913857766,1,0,533484.405849788,533485.452884885,9,1,71,16,8
19,711,616.690532537177,0,1,533487.311670267,533488.358702283,9,1,100,4,8
19,712,522.825140156783,1,0,533490.158658859,533491.205737456,9,1,99,0,4
19,713,472.295354818925,0,0,533492.88799754,533493.935034561,9,0,66,4,16
19,714,505.442160996608,0,0,533495.429112299,533496.47614393,9,0,97,8,8
19,715,475.556371617131,1,0,533498.134932469,533499.181957941,9,1,62,0,0
19,716,471.471920027398,0,0,533500.781927298,533501.82895585,9,0,78,8,0
19,717,424.885305110365,1,0,533503.499553112,533504.546539318,9,1,74,8,8
19,718,553.322634776123,0,0,533506.01709739,533507.064122477,9,0,92,0,16
19,719,467.844033963047,1,0,533508.640629913,533509.687634213,9,1,96,4,16
19,720,532.534277881496,0,0,533511.275791382,533512.322818779,9,0,90,0,8
