sub_id,Trial,RT,Resp,Error,Fix_onset,Disp_onset,block,tid,tloc,fish_setsize,bird_setsize
24,1,541.124310577288,1,0,1706102.79000987,1706103.83708251,1,1,83,16,4
24,2,488.511695992202,0,0,1706105.46063419,1706106.50771222,1,0,90,0,0
24,3,360.199972987175,1,0,1706108.04890612,1706109.09597338,1,1,90,0,4
24,4,545.949411112815,1,0,1706110.54305703,1706111.59011851,1,1,75,16,8
24,5,437.693384476006,0,0,1706113.33132773,1706114.37839075,1,0,83,0,4
24,6,384.380910778418,1,0,1706115.96664844,1706117.01371492,1,1,94,4,4
24,7,541.027685394511,1,0,1706118.55492653,1706119.6019857,1,1,66,16,8
24,8,657.667391933501,0,0,1706121.19024955,1706122.2373449,1,0,61,4,4
24,9,477.174595696852,0,0,1706123.9196986,1706124.96676315,1,0,78,8,8
24,10,348.732370883226,0,0,1706126.63737246,1706127.68444202,1,0,68,0,16
24,11,349.115791963413,0,0,1706129.16686933,1706130.2138823,1,0,66,4,8
24,12,541.849191999063,0,0,1706131.66096441,1706132.70809672,1,0,90,16,16
24,13,418.401835719123,0,0,1706134.33157911,1706135.37866176,1,0,70,16,16
24,14,730.859249597415,0,0,1706136.95519392,1706138.00221575,1,0,71,8,4
24,15,453.127624234185,1,0,1706139.82577351,1706140.87284346,1,1,64,0,4
24,16,434.248753590509,0,0,1706142.39051163,1706143.43758273,1,0,99,0,8
24,17,505.281365243718,0,1,1706145.03759867,1706146.08466399,1,1,83,8,0
24,18,601.859986083582,1,0,1706147.71998047,1706148.7670585,1,1,86,0,16
24,19,555.077605415136,0,0,1706150.53178653,1706151.57886456,1,0,88,4,8
24,20,534.966089995578,1,0,1706153.17891976,1706154.22595852,1,1,75,4,4
24,21,510.029088705778,1,0,1706155.89659671,1706156.94362739,1,1,75,16,0
24,22,781.652923440561,1,0,1706158.47306458,1706159.52013106,1,1,62,16,8
24,23,694.280258845538,1,0,1706161.36721187,1706162.41428528,1,1,81,16,0
24,24,598.617845214903,0,0,1706164.22607401,1706165.2731428,1,0,74,4,0
24,25,703.428470995277,0,0,1706166.93199194,1706167.97906304,1,0,99,4,8
24,26,523.764110868797,0,0,1706169.80261465,1706170.84973425,1,0,97,16,8
24,27,553.585111862049,1,0,1706172.39088042,1706173.43798193,1,1,77,8,4
24,28,680.25651620701,1,0,1706175.02620806,1706176.073278,1,1,63,16,0
24,29,542.607565177605,0,0,1706177.84977121,1706178.89685078,1,0,84,8,16
24,30,505.843793042004,1,0,1706180.46157427,1706181.50864267,1,1,66,4,16
24,31,678.758247988299,1,0,1706183.10866977,1706184.15573279,1,1,61,4,0
24,32,376.919597387314,0,0,1706186.02634972,1706187.07341697,1,0,78,0,8
24,33,466.579699888825,1,0,1706188.6028534,1706189.64991372,1,1,69,0,16
24,34,503.065145108849,1,0,1706191.23817411,1706192.28524983,1,1,84,0,8
24,35,477.795537561178,1,0,1706193.87351406,1706194.92058324,1,1,66,4,16
24,36,667.639420600608,1,0,1706196.52059417,1706197.56766219,1,1,71,4,4
24,37,657.714742003009,0,0,1706199.27356896,1706200.32064352,1,0,98,8,8
24,38,689.566412009299,1,0,1706202.16772779,1706203.21479735,1,1,63,16,8
24,39,534.473340027034,1,0,1706205.07364025,1706206.12071674,1,1,70,8,16
24,40,590.447818627581,0,0,1706207.81485602,1706208.86192096,1,0,87,16,0
24,41,532.029607798904,0,0,1706210.50901262,1706211.55607448,1,0,64,16,4
24,42,808.053931221366,1,0,1706213.26198163,1706214.30905543,1,1,94,16,16
24,43,486.530686728656,0,0,1706216.28554779,1706217.33261696,1,0,93,16,4
24,44,445.658226730302,0,0,1706218.89739088,1706219.94441271,1,0,83,8,4
24,45,610.208249650896,0,0,1706221.5797311,1706222.62680605,1,0,66,4,16
24,46,569.773105205968,0,0,1706224.26212022,1706225.30920325,1,0,61,4,4
24,47,597.087240312248,0,0,1706226.97979216,1706228.02686826,1,0,69,8,16
24,48,507.754739373922,1,0,1706229.75630885,1706230.80337841,1,1,65,0,0
24,49,550.755648640916,1,0,1706232.52104227,1706233.56811722,1,1,100,4,0
24,50,574.325653491542,1,0,1706235.19166582,1706236.23873461,1,1,92,0,4
24,51,423.69273933582,1,0,1706237.87408034,1706238.92118262,1,1,84,4,16
24,52,608.246103627607,1,0,1706240.45055822,1706241.49762971,1,1,100,0,0
24,53,639.186186017469,0,0,1706243.19176629,1706244.23884009,1,0,71,0,16
24,54,630.121895112097,0,0,1706245.94474223,1706246.99181834,1,0,92,0,8
24,55,454.17779777199,0,0,1706248.69771278,1706249.74478697,1,0,93,8,0
24,56,830.499464878812,1,0,1706251.36834635,1706252.41540628,1,1,61,16,4
24,57,561.194635229185,0,0,1706254.41543977,1706255.46250626,1,0,85,8,8
24,58,543.379026697949,1,0,1706257.16840994,1706258.21548143,1,1,70,4,16
24,59,562.010752269998,0,0,1706259.95668603,1706261.00374905,1,0,94,16,0
24,60,597.04720438458,0,0,1706262.72142753,1706263.76849479,1,0,92,8,0
24,61,527.133289258927,0,0,1706265.42733622,1706266.4744054,1,0,78,0,16
24,62,588.287032674998,1,0,1706268.03917008,1706269.08621038,1,1,86,8,4
24,63,592.300635529682,1,0,1706270.79211484,1706271.83917593,1,1,70,0,0
24,64,452.045883750543,1,0,1706273.47449471,1706274.52157159,1,1,70,0,8
24,65,560.184882488102,0,0,1706275.99217481,1706277.03924476,1,0,88,8,4
24,66,520.519274985418,1,0,1706278.65103627,1706279.69810313,1,1,65,0,4
24,67,453.152646776289,1,0,1706281.39224049,1706282.43931313,1,1,76,8,0
24,68,408.041381509975,0,0,1706284.03933907,1706285.08640363,1,0,66,8,8
24,69,434.774225577712,1,0,1706286.67471329,1706287.7217355,1,1,97,8,8
24,70,489.721628371626,1,0,1706289.27469227,1706290.32176183,1,1,68,4,8
24,71,684.442196507007,0,0,1706291.92178162,1706292.96885465,1,0,61,4,0
24,72,607.818411896005,0,0,1706294.73359192,1706295.78065917,1,0,95,8,16
24,73,476.809267653152,1,0,1706297.49832341,1706298.54545841,1,1,97,16,4
24,74,522.243130020797,0,0,1706300.21600728,1706301.26307762,1,0,76,16,16
24,75,505.661706905812,1,0,1706302.94545326,1706303.9925513,1,1,95,8,0
24,76,666.106891119853,0,0,1706305.55724938,1706306.60432818,1,0,69,8,16
24,77,461.721107596532,0,0,1706308.34551431,1706309.39258926,1,0,75,0,0
24,78,620.18451304175,1,0,1706310.96907985,1706312.01616212,1,1,61,4,0
24,79,592.447305796668,0,0,1706313.69852467,1706314.745595,1,0,82,4,8
24,80,510.477568255737,0,0,1706316.54561856,1706317.5926962,1,0,85,16,16
24,81,961.698394967243,1,0,1706342.98124616,1706344.02831341,2,1,81,8,0
24,82,502.305232221261,0,0,1706346.01657787,1706347.06365051,2,0,75,8,4
24,83,450.768968556076,1,0,1706348.69897546,1706349.74604502,2,1,94,0,0
24,84,520.178584614769,0,0,1706351.27547028,1706352.32254254,2,0,92,0,16
24,85,688.817662885413,0,0,1706353.89902812,1706354.9460946,2,0,70,8,16
24,86,513.759745517746,0,0,1706356.71088807,1706357.75789874,2,0,73,4,0
24,87,469.443039502949,0,0,1706359.39321713,1706360.44028785,2,0,75,16,8
24,88,506.970959017053,0,0,1706362.12266349,1706363.16973575,2,0,68,8,4
24,89,561.433695955202,0,0,1706364.85210792,1706365.89917825,2,0,91,8,16
24,90,466.494623571634,1,0,1706367.54625567,1706368.59332638,2,1,74,0,0
24,91,441.726235440001,1,0,1706370.26393762,1706371.31101064,2,1,74,16,8
24,92,514.131232863292,0,0,1706372.94632519,1706373.99339783,2,0,69,0,4
24,93,506.027419818565,0,0,1706375.68753018,1706376.73461052,2,0,65,16,4
24,94,780.501889996231,0,0,1706378.26403578,1706379.31110688,2,0,80,16,16
24,95,449.886637972668,0,0,1706381.13466773,1706382.18174499,2,0,64,16,4
24,96,500.761153642088,1,0,1706383.78175977,1706384.82882279,2,1,76,0,0
24,97,562.379159964621,0,0,1706386.37001862,1706387.41708664,2,0,63,16,4
24,98,378.588788211346,0,0,1706389.13476397,1706390.18183045,2,0,75,0,4
24,99,670.574362855405,1,0,1706391.58185108,1706392.62891718,2,1,100,16,0
24,100,568.815322360024,1,0,1706394.34666842,1706395.39365753,2,1,84,0,16
24,101,582.778626354411,1,0,1706397.05251244,1706398.09958854,2,1,88,8,16
24,102,500.797339947894,1,0,1706399.75842113,1706400.80549184,2,1,70,0,8
24,103,633.352102711797,0,0,1706402.42904199,1706403.47611732,2,0,84,8,4
24,104,575.516722630709,0,0,1706405.29966892,1706406.3467381,2,0,61,4,16
24,105,795.501894084737,1,0,1706408.00558801,1706409.05265256,2,1,82,4,4
24,106,687.193897319958,1,0,1706410.93503621,1706411.98209884,2,1,82,16,16
24,107,660.03066720441,1,0,1706413.78212818,1706414.82919697,2,1,97,4,8
24,108,620.997550431639,0,0,1706416.58215328,1706417.62923015,2,0,75,16,0
24,109,392.635243711993,1,0,1706419.27631604,1706420.32338175,2,1,87,0,0
24,110,687.15848098509,1,0,1706421.84105107,1706422.88811794,2,1,84,16,16
24,111,434.078986058012,1,0,1706424.64107964,1706425.68815728,2,1,95,8,4
24,112,509.097868110985,0,0,1706427.29994071,1706428.34701681,2,0,98,0,16
24,113,620.835481910035,1,0,1706429.94703044,1706430.99415698,2,1,95,4,4
24,114,780.614298768342,1,0,1706432.64118127,1706433.68825083,2,1,73,16,16
24,115,739.315686980262,0,0,1706435.61768902,1706436.6647582,2,0,71,16,8
24,116,626.549842534587,0,0,1706438.48831365,1706439.53538245,2,0,87,16,4
24,117,553.446910809726,1,0,1706441.2883503,1706442.33541486,2,1,67,8,8
24,118,641.504036029801,1,0,1706443.93544273,1706444.98251306,2,1,83,0,16
24,119,592.719473177567,0,0,1706446.80607006,1706447.85313269,2,0,92,4,4
24,120,431.720715016127,1,0,1706449.50021357,1706450.54728967,2,1,95,4,8
24,121,639.143070206046,0,0,1706452.18259652,1706453.22966724,2,0,68,8,8
24,122,557.120593264699,0,0,1706455.0296908,1706456.07676844,2,0,75,0,16
24,123,603.422927670181,1,0,1706457.74737621,1706458.79444346,2,1,80,4,4
24,124,682.481205323711,1,0,1706460.46505739,1706461.51212657,2,1,92,8,16
24,125,579.859852325171,1,0,1706463.2768596,1706464.32396651,2,1,69,8,8
24,126,503.819668432698,1,0,1706465.93571451,1706466.9828168,2,1,65,4,8
24,127,556.206310866401,0,0,1706468.65339107,1706469.70046295,2,0,87,0,0
24,128,563.373129116371,0,0,1706471.31226754,1706472.35932325,2,0,74,16,0
24,129,590.920165646821,1,0,1706474.04169619,1706475.08877076,2,1,73,4,0
24,130,441.107603022829,1,0,1706476.75937391,1706477.80645309,2,1,85,4,16
24,131,619.291018461809,0,0,1706479.27705401,1706480.32412357,2,0,92,4,16
24,132,534.295103047043,0,0,1706482.01826477,1706483.06533279,2,0,78,0,8
24,133,446.897031040862,1,0,1706484.6535951,1706485.70067775,2,1,68,0,4
24,134,574.897705577314,0,0,1706487.15950194,1706488.20660577,2,0,87,16,16
24,135,666.002951562405,1,0,1706489.91247865,1706490.95957824,2,1,92,16,0
24,136,673.412680160254,0,0,1706492.68898225,1706493.73605336,2,0,77,8,4
24,137,722.911730175838,1,0,1706495.5243152,1706496.57138515,2,1,95,16,8
24,138,758.34007258527,0,0,1706498.34787605,1706499.39494676,2,0,61,8,0
24,139,595.954685006291,0,0,1706501.18320707,1706502.23027702,2,0,63,16,0
24,140,621.494150254875,1,0,1706503.90088633,1706504.94795974,2,1,77,8,16
24,141,727.555129444227,0,0,1706506.61856173,1706507.66563861,2,0,73,4,8
24,142,563.264955300838,1,0,1706509.40683782,1706510.45391162,2,1,96,8,0
24,143,711.185049731284,0,0,1706512.05392255,1706513.10100289,2,0,89,8,8
24,144,538.945816457272,0,0,1706514.88932094,1706515.936337,2,0,63,4,16
24,145,438.396708108485,1,0,1706517.57164615,1706518.61871879,2,1,86,0,8
24,146,892.255672253668,1,0,1706520.17167672,1706521.21875206,2,1,91,4,16
24,147,563.577158609405,0,0,1706523.18347654,1706524.23054957,2,0,95,4,0
24,148,506.108646281064,1,0,1706525.95998168,1706527.00705047,2,1,68,0,8
24,149,539.766553323716,0,0,1706528.70120284,1706529.74827741,2,0,75,4,8
24,150,542.197581613436,1,0,1706531.43064573,1706532.47770836,2,1,94,8,0
24,151,780.556939542294,1,0,1706534.19538031,1706535.24244987,2,1,71,4,0
24,152,498.616536147892,1,0,1706537.05424438,1706538.10130663,2,1,87,8,0
24,153,700.607477454469,0,0,1706539.74839059,1706540.79546284,2,0,73,16,8
24,154,478.138152975589,1,0,1706542.53666321,1706543.58372546,2,1,88,0,4
24,155,467.885872349143,0,0,1706545.07791139,1706546.12493514,2,0,85,0,8
24,156,657.662002369761,1,0,1706547.77201949,1706548.81913602,2,1,62,4,0
24,157,710.691144457087,0,0,1706550.66617062,1706551.71324519,2,0,93,4,4
24,158,535.198991186917,0,0,1706553.45444325,1706554.50151281,2,0,97,8,8
24,159,629.699593177065,1,0,1706556.17212019,1706557.21919669,2,1,82,0,4
24,160,668.204158078879,0,0,1706558.9603909,1706560.00746469,2,0,100,16,4
24,161,864.963094936684,1,0,1706592.13728277,1706593.18434694,3,1,71,16,4
24,162,830.010949401185,0,0,1706595.18437004,1706596.23143883,3,0,90,0,16
24,163,668.554857606068,0,0,1706598.11382055,1706599.16089127,3,0,83,8,16
24,164,620.398936094716,1,0,1706601.00797862,1706602.05504048,3,1,91,16,8
24,165,543.591910274699,1,0,1706603.83154177,1706604.87860786,3,1,63,8,4
24,166,550.670957192779,0,0,1706606.53750743,1706607.58461549,3,0,89,8,16
24,167,669.223919976503,1,0,1706609.20810019,1706610.25514203,3,1,63,4,0
24,168,452.831974020228,1,0,1706611.94928477,1706612.99637435,3,1,95,0,0
24,169,660.621967166662,0,0,1706614.59637335,1706615.64346794,3,0,89,8,4
24,170,651.220065774396,1,0,1706617.47876662,1706618.52583464,3,1,96,16,4
24,171,538.964294595644,0,0,1706620.26703193,1706621.31410111,3,0,74,0,4
24,172,652.532782405615,0,0,1706622.93765318,1706623.9847185,3,0,61,4,8
24,173,482.34885581769,1,0,1706625.78475169,1706626.83181817,3,1,88,8,8
24,174,716.545245843008,1,0,1706628.50242671,1706629.54950012,3,1,93,16,0
24,175,476.153679192066,1,0,1706631.29069394,1706632.33776697,3,1,74,8,0
24,176,446.891256608069,0,0,1706633.92602428,1706634.97309538,3,0,96,4,0
24,177,413.403887534514,0,0,1706636.50252295,1706637.54960059,3,0,75,0,8
24,178,564.755909144878,1,0,1706639.12612044,1706640.17316305,3,1,65,16,0
24,179,611.627985723317,1,0,1706641.86730464,1706642.91436573,3,1,100,0,16
24,180,793.483543675393,1,0,1706644.60850732,1706645.65557996,3,1,91,8,8
24,181,634.02385963127,0,0,1706647.5497157,1706648.59679065,3,0,80,4,0
24,182,513.106851605698,0,0,1706650.40857669,1706651.45564587,3,0,97,16,4
24,183,906.532334396616,0,0,1706653.03213453,1706654.0792091,3,0,72,16,8
24,184,484.401852590963,1,0,1706656.02040746,1706657.06748627,3,1,95,0,4
24,185,640.291023999453,1,0,1706658.66750913,1706659.71457523,3,1,88,8,0
24,186,483.767436817288,0,0,1706661.45577367,1706662.50288404,3,0,95,8,0
24,187,482.698400504887,1,0,1706664.09109939,1706665.13817549,3,1,95,4,8
24,188,448.014187626541,1,0,1706666.71466531,1706667.7617341,3,1,85,0,0
24,189,502.184354467317,1,0,1706669.37352061,1706670.42058401,3,1,96,4,16
24,190,735.092280199751,1,0,1706672.03237783,1706673.07944431,3,1,95,16,16
24,191,666.380213340744,1,0,1706674.99711964,1706676.0441815,3,1,82,4,4
24,192,579.976110486314,0,0,1706677.82072321,1706678.86774889,3,0,90,0,8
24,193,419.782690703869,0,0,1706680.56188547,1706681.60895695,3,0,79,4,4
24,194,835.250653093681,1,0,1706683.15016318,1706684.19722927,3,1,91,8,4
24,195,528.457554988563,1,0,1706686.10315521,1706687.1502113,3,1,75,4,4
24,196,637.854991015047,0,0,1706688.87963956,1706689.92673722,3,0,72,16,0
24,197,408.83671073243,1,0,1706691.69143831,1706692.73851788,3,1,95,4,16
24,198,470.766920363531,0,0,1706694.29147388,1706695.33855614,3,0,98,0,0
24,199,446.817729156464,0,0,1706696.98563356,1706698.0326908,3,0,75,0,8
24,200,432.013670448214,0,0,1706699.55035666,1706700.59743623,3,0,65,8,8
24,201,449.921669205651,0,0,1706702.05627466,1706703.10334384,3,0,78,0,4
24,202,619.89040276967,1,0,1706704.5974855,1706705.64457855,3,1,76,8,0
24,203,714.121531927958,1,0,1706707.31515783,1706708.36223586,3,1,91,0,8
24,204,847.479708027095,0,0,1706710.24460834,1706711.29168252,3,0,93,16,16
24,205,508.985459571704,0,0,1706713.17405462,1706714.22112457,3,0,75,4,4
24,206,526.097359368578,0,0,1706715.83291261,1706716.87998141,3,0,73,16,8
24,207,578.443965874612,1,0,1706718.49176983,1706719.53883786,3,1,90,0,16
24,208,539.803894469514,0,0,1706721.2212135,1706722.26828575,3,0,67,8,16
24,209,500.482442090288,0,0,1706723.90359915,1706724.95067564,3,0,98,4,8
24,210,687.615044647828,0,0,1706726.62128571,1706727.66835836,3,0,70,16,16
24,211,511.040381388739,0,0,1706729.38601798,1706730.43309601,3,0,95,8,16
24,212,535.45691515319,0,0,1706731.96252781,1706733.00959622,3,0,75,0,16
24,213,701.709620654583,1,0,1706734.63316946,1706735.68027829,3,1,61,0,4
24,214,763.485845876858,1,0,1706737.42141514,1706738.46848701,3,1,95,4,16
24,215,613.932361826301,0,0,1706740.39792675,1706741.44501286,3,0,81,4,8
24,216,648.648526519537,1,0,1706743.08030008,1706744.12737387,3,1,90,16,4
24,217,439.874573145062,1,0,1706745.79799049,1706746.84505698,3,1,85,4,4
24,218,650.877065490931,1,0,1706748.39802453,1706749.44509717,3,1,78,8,8
24,219,540.394424460828,1,0,1706751.18628907,1706752.2333594,3,1,93,4,0
24,220,884.012118214741,0,0,1706753.80984729,1706754.85696266,3,0,100,16,8
24,221,490.643224678934,1,0,1706756.90406418,1706757.95107253,3,1,90,8,16
24,222,735.064562875777,1,0,1706759.57462498,1706760.62169454,3,1,94,8,0
24,223,613.173604011536,0,0,1706762.38642257,1706763.43349598,3,0,90,16,16
24,224,674.30117004551,1,0,1706765.1982294,1706766.24529319,3,1,81,0,0
24,225,597.489524399862,0,0,1706768.05708231,1706769.10415726,3,0,83,16,16
24,226,568.979700561613,0,0,1706770.78652867,1706771.83359861,3,0,75,4,16
24,227,695.622232975438,0,0,1706773.51597233,1706774.56304382,3,0,70,0,8
24,228,687.939951894805,1,0,1706776.292474,1706777.33954819,3,1,98,8,4
24,229,571.041551651433,0,0,1706779.19842766,1706780.24547027,3,0,96,16,0
24,230,446.150591829792,1,0,1706781.99843466,1706783.04550615,3,1,98,16,8
24,231,741.150410845876,1,0,1706784.55140337,1706785.59846985,3,1,72,4,16
24,232,564.163069007918,1,0,1706787.36320365,1706788.41027321,3,1,84,0,16
24,233,920.949507271871,0,0,1706790.0573564,1706791.10442442,3,0,72,16,0
24,234,567.405980313197,0,0,1706793.23386331,1706794.28093595,3,0,70,8,4
24,235,524.98212759383,0,0,1706795.90449764,1706796.95157875,3,0,64,4,0
24,236,740.715404972434,1,0,1706798.65752401,1706799.70452236,3,1,63,8,8
24,237,615.756307030097,1,0,1706801.45749714,1706802.50458133,3,1,80,0,0
24,238,724.484680686146,0,0,1706804.29282509,1706805.33989465,3,0,72,16,4
24,239,641.934422310442,0,0,1706807.06933177,1706808.11645407,3,0,78,4,8
24,240,450.852119829506,0,0,1706809.81055601,1706810.85761094,3,0,85,0,4
24,241,534.680448938161,0,0,1706841.552104,1706842.59922014,4,0,66,0,0
24,242,722.777378978208,0,0,1706844.19924454,1706845.24627022,4,0,61,16,4
24,243,519.892943324521,1,0,1706847.01104983,1706848.05806358,4,1,79,16,4
24,244,454.817217774689,0,0,1706849.71690732,1706850.76401692,4,0,97,4,8
24,245,400.532717816532,1,0,1706852.30517618,1706853.3522442,4,1,98,8,0
24,246,696.485315216705,1,0,1706854.79932746,1706855.84638971,4,1,72,8,16
24,247,414.135313360021,1,0,1706857.63465233,1706858.6817269,4,1,66,8,4
24,248,474.389402894303,0,0,1706860.19940045,1706861.24646386,4,0,74,4,16
24,249,578.055925201625,1,0,1706862.89353819,1706863.94061006,4,1,73,16,0
24,250,625.684835249558,0,0,1706865.5759812,1706866.62299302,4,0,73,8,16
24,251,566.940947435796,1,0,1706868.38772451,1706869.43483757,4,1,80,4,8
24,252,603.253160137683,1,0,1706871.16422349,1706872.21130229,4,1,76,8,4
24,253,675.347493728623,1,0,1706873.87014065,1706874.91721406,4,1,71,16,8
24,254,437.394269509241,1,0,1706876.77606466,1706877.82313422,4,1,97,0,8
24,255,540.091075235978,0,0,1706879.41138768,1706880.45846301,4,0,62,0,4
24,256,405.980685260147,0,0,1706882.01141978,1706883.05848703,4,0,64,8,16
24,257,388.371801003814,0,0,1706884.52910489,1706885.57616906,4,0,74,4,4
24,258,442.415700294077,0,0,1706887.14089139,1706888.1879829,4,0,76,4,0
24,259,662.343512522057,1,0,1706889.72916102,1706890.77623058,4,1,82,8,0
24,260,550.138171296567,0,0,1706892.52919266,1706893.57626723,4,0,91,4,0
24,261,642.539195949212,0,0,1706895.24687653,1706896.29394687,4,0,80,0,4
24,262,568.057334050536,0,0,1706898.08219986,1706899.12927789,4,0,100,0,4
24,263,715.242538135499,0,0,1706900.74106439,1706901.78813588,4,0,72,8,8
24,264,532.993549946696,0,0,1706903.62344843,1706904.67052646,4,0,82,0,16
24,265,631.524692988023,1,0,1706906.21171304,1706907.258788,4,1,75,16,0
24,266,433.623192133382,1,0,1706908.96469168,1706910.01176278,4,1,94,4,16
24,267,716.15258581005,1,0,1706911.55296053,1706912.60003164,4,1,68,16,0
24,268,533.684939844534,0,0,1706914.42358285,1706915.47065319,4,0,78,8,4
24,269,710.763902170584,1,0,1706917.08244739,1706918.12950425,4,1,71,16,8
24,270,429.056400200352,0,0,1706920.00011848,1706921.04719189,4,0,75,8,4
24,271,413.124406011775,0,0,1706922.56485891,1706923.61193001,4,0,66,0,0
24,272,429.604584584013,0,0,1706925.18842098,1706926.23548669,4,0,85,4,16
24,273,1107.36531298608,1,0,1706927.72962566,1706928.77669484,4,1,91,16,4
24,274,630.232379073277,1,0,1706931.07084043,1706932.11791307,4,1,90,8,8
24,275,625.219802372158,1,0,1706933.7767522,1706934.82383023,4,1,71,4,4
24,276,670.031568035483,0,0,1706936.47090764,1706937.51797913,4,0,83,0,16
24,277,867.361016804352,1,0,1706939.34153266,1706940.38860338,4,1,61,16,8
24,278,484.445738140494,1,0,1706942.3415727,1706943.3886411,4,1,73,0,16
24,279,558.897188166156,1,0,1706945.02395873,1706946.0710256,4,1,96,0,8
24,280,519.556487677619,0,0,1706947.7651822,1706948.81223752,4,0,79,0,16
24,281,652.014625258744,0,0,1706950.43578304,1706951.4828526,4,0,63,8,0
24,282,838.399248896167,0,0,1706953.30640882,1706954.353478,4,0,91,4,8
24,283,437.934754882008,1,0,1706956.34174631,1706957.38881587,4,1,86,16,0
24,284,568.184756208211,0,0,1706958.89471155,1706959.9417815,4,0,96,8,8
24,285,787.639451213181,1,0,1706961.53005151,1706962.57710298,4,1,80,0,8
24,286,564.847144763917,0,0,1706964.49478292,1706965.54188829,4,0,82,8,8
24,287,626.867820275947,1,0,1706967.24775424,1706968.29486192,4,1,81,4,4
24,288,535.328723257408,0,0,1706969.96543311,1706971.01250537,4,0,80,16,8
24,289,602.332718437538,0,0,1706972.73017885,1706973.77724456,4,0,86,4,4
24,290,589.989330153912,0,0,1706975.55374162,1706976.60081272,4,0,85,16,16
24,291,717.595034744591,0,0,1706978.20083559,1706979.24790091,4,0,73,0,0
24,292,437.264922773466,1,0,1706981.08322308,1706982.13028726,4,1,65,0,0
24,293,867.784858914092,0,0,1706983.7656045,1706984.81269716,4,0,100,4,0
24,294,575.897064292803,1,0,1706986.82447003,1706987.87153575,4,1,93,8,8
24,295,678.68164088577,1,0,1706989.50685414,1706990.55392525,4,1,87,16,4
24,296,432.951050344855,0,0,1706992.37747569,1706993.42454872,4,0,87,16,0
24,297,809.441330609843,1,0,1706995.01280218,1706996.05986943,4,1,72,0,8
24,298,567.590761464089,1,0,1706998.01283297,1706999.0599291,4,1,82,8,16
24,299,626.769655151293,1,0,1707000.73054071,1707001.77764415,4,1,67,0,8
24,300,413.989798165858,0,0,1707003.43649213,1707004.48351088,4,0,69,4,0
24,301,482.482052175328,1,0,1707006.02469477,1707007.07176857,4,1,88,0,4
24,302,600.735515356064,0,0,1707008.57767426,1707009.62474151,4,0,89,8,4
24,303,486.921807285398,0,0,1707011.35419133,1707012.40124819,4,0,88,4,4
24,304,477.237729122862,1,0,1707014.07185634,1707015.11892975,4,1,85,4,16
24,305,482.295346213505,0,0,1707016.67188999,1707017.71895532,4,0,73,8,0
24,306,532.340271165594,1,0,1707019.27192055,1707020.31899358,4,1,96,16,16
24,307,697.084699524567,1,0,1707022.01312901,1707023.06020165,4,1,82,0,4
24,308,500.2314473968,0,0,1707024.88375787,1707025.93082281,4,0,67,4,8
24,309,527.518635150045,1,0,1707027.495549,1707028.54262279,4,1,96,4,0
24,310,567.396741127595,1,0,1707030.14264181,1707031.18971522,4,1,64,8,0
24,311,666.050301631913,1,0,1707032.82502669,1707033.87209317,4,1,94,16,16
24,312,487.943493528292,1,0,1707035.62505756,1707036.67217832,4,1,93,16,16
24,313,753.643163945526,0,0,1707038.26038212,1707039.30745899,4,0,84,16,16
24,314,712.497381493449,1,0,1707041.16629958,1707042.21338108,4,1,71,8,16
24,315,507.296636002138,0,0,1707044.10751913,1707045.15458176,4,0,77,4,8
24,316,478.70558523573,1,0,1707046.73108082,1707047.77816193,4,1,85,16,8
24,317,448.930009966716,0,0,1707049.38993111,1707050.43705918,4,0,67,0,16
24,318,655.736812390387,0,0,1707051.98996706,1707053.03704047,4,0,83,16,4
24,319,707.785459235311,1,0,1707054.88412743,1707055.93118737,4,1,92,4,16
24,320,396.025210153311,0,0,1707057.75474629,1707058.80181855,4,0,85,0,0
24,321,988.055902300403,1,0,1707078.88441,1707079.93148726,5,1,78,4,16
24,322,437.568657100201,1,0,1707082.01386274,1707083.06093154,5,1,88,4,0
24,323,401.830806164071,1,0,1707084.67274961,1707085.71984034,5,1,80,8,0
24,324,768.022610805929,1,0,1707087.28451417,1707088.33159104,5,1,71,4,4
24,325,434.791163774207,1,1,1707090.1316685,1707091.17869148,5,0,81,8,16
24,326,585.196181200445,0,0,1707092.64928585,1707093.69635695,5,0,73,4,16
24,327,488.748831907287,1,0,1707095.37873144,1707096.42580485,5,1,85,4,0
24,328,444.809772772715,1,0,1707097.978762,1707099.02583387,5,1,64,4,4
24,329,611.958282301202,1,0,1707100.5552626,1707101.60233293,5,1,70,16,16
24,330,421.703645959497,0,0,1707103.34354562,1707104.39064328,5,0,76,8,4
24,331,477.218096144497,1,0,1707105.87297666,1707106.92004699,5,1,95,0,8
24,332,476.69300949201,0,0,1707108.4377167,1707109.48478241,5,0,83,8,0
24,333,484.179730061442,0,0,1707110.97892407,1707112.02599209,5,0,96,8,16
24,334,581.875892821699,1,0,1707113.61425094,1707114.66132589,5,1,84,4,16
24,335,578.243786236271,0,0,1707116.43780986,1707117.48488096,5,0,78,8,0
24,336,778.673325665295,0,0,1707119.20255752,1707120.24963362,5,0,99,0,4
24,337,416.942063719034,0,0,1707122.07317329,1707123.12033063,5,0,89,4,16
24,338,418.194726575166,0,0,1707124.73203436,1707125.77910085,5,0,78,16,16
24,339,485.488982405514,0,0,1707127.402671,1707128.44972093,5,0,87,8,16
24,340,583.409577375278,1,0,1707130.10856583,1707131.15564079,5,1,85,0,16
24,341,477.298167999834,0,0,1707132.8027209,1707133.8497893,5,0,67,4,0
24,342,543.880245881155,0,0,1707135.43804776,1707136.48512233,5,0,70,8,8
24,343,745.46274356544,1,0,1707138.12042571,1707139.16749373,5,1,66,4,0
24,344,624.982281355187,0,0,1707141.03811066,1707142.0851887,5,0,88,8,8
24,345,435.336268506944,0,0,1707143.81461657,1707144.8616846,5,0,70,0,4
24,346,531.791316810995,1,0,1707146.44994229,1707147.49701724,5,1,69,0,0
24,347,535.731392446905,1,0,1707149.09707436,1707150.14410697,5,1,72,4,16
24,348,611.405863193795,1,0,1707151.72059217,1707152.76765211,5,1,81,16,4
24,349,475.192431593314,0,0,1707154.41474184,1707155.4618114,5,0,95,16,8
24,350,735.462227603421,0,1,1707156.94418789,1707157.99125976,5,1,91,8,4
24,351,633.232379797846,0,0,1707159.93246082,1707160.97953116,5,0,84,4,4
24,352,425.466254353523,1,0,1707162.65013815,1707163.69720233,5,1,87,8,0
24,353,533.012797823176,1,0,1707165.32076286,1707166.3678944,5,1,75,16,4
24,354,507.826342247427,1,0,1707168.01491754,1707169.06200134,5,1,93,8,16
24,355,556.182058295235,0,0,1707170.74435581,1707171.79143153,5,0,77,16,0
24,356,566.747311968356,0,0,1707173.41497551,1707174.46204353,5,0,80,16,0
24,357,487.044609617442,1,0,1707176.2385429,1707177.28561477,5,1,79,0,16
24,358,580.642477842048,0,0,1707178.82680521,1707179.87387515,5,0,74,0,16
24,359,623.965984443203,0,0,1707181.59154902,1707182.63862166,5,0,77,0,8
24,360,705.235478002578,1,0,1707184.40334392,1707185.45041502,5,1,94,16,4
24,361,557.939020218328,0,0,1707187.2974989,1707188.34456538,5,0,72,4,8
24,362,629.356208024547,0,0,1707190.07405408,1707191.12108861,5,0,95,4,8
24,363,639.41100332886,0,0,1707192.82697883,1707193.874043,5,0,84,16,4
24,364,703.306823503226,0,0,1707195.57999981,1707196.62704204,5,0,66,8,0
24,365,754.30953130126,0,0,1707198.53292794,1707199.58000289,5,0,91,16,0
24,366,920.358592178673,1,0,1707201.43885195,1707202.48591419,5,1,82,8,8
24,367,506.122505059466,0,0,1707204.42712026,1707205.47419021,5,0,83,16,16
24,368,543.230431852862,0,0,1707207.18009466,1707208.2271596,5,0,84,16,0
24,369,496.736001688987,0,0,1707209.81549005,1707210.86248685,5,0,64,0,0
24,370,740.320435026661,0,0,1707212.39191519,1707213.43898822,5,0,91,0,8
24,371,635.88745566085,1,0,1707215.36842834,1707216.41549636,5,1,74,0,0
24,372,651.004487415776,0,0,1707218.13316676,1707219.18023902,5,0,78,4,8
24,373,756.926110945642,0,0,1707221.02736486,1707222.074394,5,0,73,16,16
24,374,494.870865950361,1,0,1707223.87442257,1707224.92148636,5,1,96,16,8
24,375,857.382828835398,1,0,1707226.4626791,1707227.50975329,5,1,72,0,4
24,376,497.398904524744,0,0,1707229.52157159,1707230.56860573,5,0,92,0,4
24,377,834.796014241874,1,0,1707232.14510325,1707233.1921782,5,1,76,16,8
24,378,656.559089198709,1,0,1707235.07455453,1707236.12161871,5,1,76,0,0
24,379,766.363428905606,1,0,1707237.87458695,1707238.92165343,5,1,80,8,4
24,380,660.367123084143,0,0,1707240.8275632,1707241.87463006,5,0,77,8,8
24,381,522.235045908019,0,0,1707243.56876742,1707244.61584314,5,0,96,0,8
24,382,662.808160530403,1,0,1707246.25116307,1707247.29822455,5,1,69,8,8
24,383,600.806733127683,1,0,1707249.11011222,1707250.15708246,5,1,80,8,4
24,384,563.858180074021,1,0,1707251.95711411,1707253.00417405,5,1,76,16,16
24,385,831.71055209823,1,0,1707254.60428122,1707255.65128149,5,1,82,8,4
24,386,602.063245605677,1,0,1707257.67482339,1707258.72189488,5,1,89,4,8
24,387,579.908357234672,0,0,1707260.42779702,1707261.47487467,5,0,62,16,0
24,388,597.973035415635,0,0,1707263.18077489,1707264.22784137,5,0,70,0,4
24,389,586.463857674971,0,0,1707265.85139074,1707266.89846569,5,0,82,8,16
24,390,735.927645582706,1,0,1707268.58083787,1707269.6279055,5,1,83,16,8
24,391,622.330285375938,1,0,1707271.55734254,1707272.60441365,5,1,74,16,4
24,392,453.281993744895,1,0,1707274.40443759,1707275.45150484,5,1,83,4,8
24,393,588.522628881037,1,0,1707276.98094435,1707278.02801352,5,1,96,4,4
24,394,592.697915388271,0,0,1707279.79279006,1707280.83981342,5,0,79,4,0
24,395,530.514016514644,0,1,1707282.47512643,1707283.52219522,5,1,91,0,0
24,396,488.281874218956,1,0,1707285.12220847,1707286.16928149,5,1,85,0,16
24,397,529.647084418684,1,0,1707287.69871753,1707288.74578709,5,1,67,0,8
24,398,468.222328228876,1,0,1707290.41639371,1707291.46346712,5,1,69,0,16
24,399,659.622223582119,0,0,1707293.05176985,1707294.0987986,5,0,95,4,4
24,400,639.105729060248,0,0,1707295.81646208,1707296.86352663,5,0,98,16,8
24,401,647.636078996584,0,0,1707322.62855647,1707323.67562218,6,0,91,4,16
24,402,462.401333730668,1,0,1707325.47564343,1707326.52271839,6,1,96,0,0
24,403,531.23812796548,0,0,1707328.12274318,1707329.16980658,6,0,66,4,0
24,404,497.311903396621,1,0,1707330.76982598,1707331.81689323,6,1,69,4,0
24,405,448.400688590482,0,0,1707333.33455563,1707334.3816583,6,0,84,0,4
24,406,448.840314056724,1,0,1707335.89934725,1707336.94637408,6,1,67,4,4
24,407,472.265958320349,0,0,1707338.53462677,1707339.58169671,6,0,65,4,8
24,408,485.609860159457,1,0,1707341.20525648,1707342.25232296,6,1,65,4,8
24,409,651.469135424122,0,0,1707343.85233428,1707344.89940731,6,0,89,0,4
24,410,513.198087457567,1,0,1707346.73472948,1707347.78180096,6,1,70,8,8
24,411,887.157634366304,1,0,1707349.39358323,1707350.44065048,6,1,67,16,16
24,412,434.045879403129,1,0,1707352.5347923,1707353.58187072,6,1,63,0,4
24,413,464.722263393924,0,0,1707355.06423912,1707356.11130522,6,0,69,4,4
24,414,530.515171354637,1,0,1707357.6642693,1707358.71136042,6,1,95,16,8
24,415,574.744491139427,1,0,1707360.28783715,1707361.33496561,6,1,89,0,8
24,416,781.687954906374,0,0,1707362.98198182,1707364.02907486,6,0,78,8,0
24,417,470.704556675628,0,1,1707365.88793123,1707366.93497308,6,1,91,0,8
24,418,649.883096339181,0,0,1707368.54677344,1707369.59383068,6,0,77,4,0
24,419,711.375990184024,0,0,1707371.41737921,1707372.46444376,6,0,82,0,0
24,420,767.791249090806,0,0,1707374.25270908,1707375.29983022,6,0,71,8,0
24,421,495.220025768504,0,0,1707377.1115643,1707378.15862924,6,0,66,0,0
24,422,742.597094038501,1,0,1707379.74689386,1707380.79396457,6,1,82,8,4
24,423,781.537820119411,1,0,1707382.54692974,1707383.59399699,6,1,70,8,4
24,424,698.966773692518,0,0,1707385.52343518,1707386.5705059,6,0,93,8,16
24,425,468.921032734215,1,0,1707388.37052099,1707389.41759479,6,1,84,8,4
24,426,638.718073489144,0,0,1707390.91173683,1707391.9588064,6,0,88,4,4
24,427,680.346981855109,0,0,1707393.70004411,1707394.74710097,6,0,75,8,4
24,428,597.652747994289,0,0,1707396.57062293,1707397.61774138,6,0,64,16,4
24,429,625.790314516053,0,0,1707399.32360464,1707400.37067767,6,0,78,16,8
24,430,573.534173890948,1,0,1707402.1589272,1707403.20599907,6,1,87,16,0
24,431,508.044615155086,1,0,1707404.88836855,1707405.93544658,6,1,96,4,4
24,432,498.39248880744,0,0,1707407.55899403,1707408.60606397,6,0,75,8,0
24,433,417.206916958094,1,0,1707410.25313369,1707411.30022288,6,1,96,4,8
24,434,475.641681114212,1,0,1707412.88846902,1707413.93557824,6,1,64,0,0
24,435,513.763980008662,0,0,1707415.59443777,1707416.64145035,6,0,98,16,16
24,436,703.948553418741,1,0,1707418.20617346,1707419.25325418,6,1,94,4,4
24,437,420.546453213319,1,0,1707421.02974238,1707422.07680771,6,1,84,4,8
24,438,599.226468242705,0,0,1707423.52388867,1707424.57095938,6,0,62,4,8
24,439,548.918999964371,0,0,1707426.20627817,1707427.25334542,6,0,84,0,16
24,440,501.146499533206,1,0,1707428.87689902,1707429.92396858,6,1,96,8,16
24,441,619.504286907613,0,0,1707431.44162713,1707432.48870477,6,0,95,16,16
24,442,619.536623824388,1,0,1707434.20638711,1707435.25344397,6,1,79,0,8
24,443,655.076989438385,1,0,1707436.93581576,1707437.98288455,6,1,93,0,0
24,444,591.283953748643,0,0,1707439.74761912,1707440.79469831,6,0,77,16,0
24,445,625.503903487697,0,0,1707442.55941209,1707443.60648589,6,0,70,4,16
24,446,790.453131077811,0,0,1707445.31239111,1707446.3594576,6,0,75,16,8
24,447,672.717825509608,0,0,1707448.27714139,1707449.32422905,6,0,71,16,0
24,448,718.174785841256,0,0,1707451.04186634,1707452.08893821,6,0,91,16,4
24,449,700.693708378822,1,0,1707453.93607522,1707454.98311899,6,1,68,16,4
24,450,719.304646132514,1,0,1707456.8654653,1707457.91253563,6,1,66,0,4
24,451,482.156375190243,1,0,1707459.66550734,1707460.71257228,6,1,85,4,16
24,452,735.405253479257,0,0,1707462.27730115,1707463.32436764,6,0,99,16,16
24,453,798.736720811576,0,0,1707465.10087008,1707466.14793887,6,0,83,8,8
24,454,711.228935280815,0,0,1707468.01854348,1707469.06561651,6,0,100,4,16
24,455,443.656044779345,0,0,1707470.90094214,1707471.94800709,6,0,76,8,0
24,456,688.020023750141,1,0,1707473.51272711,1707474.5598009,6,1,68,16,4
24,457,742.612107656896,1,0,1707476.40688748,1707477.4539555,6,1,97,16,16
24,458,488.040118711069,1,0,1707479.21867699,1707480.26575078,6,1,78,8,16
24,459,582.911822712049,0,0,1707481.81871679,1707482.86578405,6,0,83,8,16
24,460,381.370131159201,0,0,1707484.54815892,1707485.59522347,6,0,86,16,0
24,461,600.312058115378,1,0,1707487.10112916,1707488.14820719,6,1,72,16,0
24,462,555.345153436065,0,0,1707489.80716604,1707490.85410933,6,0,82,4,0
24,463,533.341554692015,1,0,1707492.50120022,1707493.54826439,6,1,97,0,16
24,464,588.703560410067,1,0,1707495.17181415,1707496.21888217,6,1,99,8,0
24,465,729.71322061494,1,0,1707497.83067715,1707498.87773554,6,1,64,8,4
24,466,549.143047304824,1,0,1707500.74834747,1707501.79542165,6,1,80,16,8
24,467,457.822608062997,0,0,1707503.38370667,1707504.4307439,6,0,76,8,8
24,468,1360.3073770646,0,0,1707505.97194742,1707507.01901314,6,0,90,0,4
24,469,442.646677140146,1,0,1707509.39552266,1707510.44262225,6,1,78,8,16
24,470,450.73008723557,0,0,1707511.94848675,1707512.99556901,6,0,80,8,8
24,471,506.539802532643,1,0,1707514.59557533,1707515.64264643,6,1,77,4,0
24,472,734.585671452805,0,0,1707517.34854896,1707518.39561852,6,0,71,8,8
24,473,526.671336265281,0,0,1707520.20741034,1707521.25452147,6,0,72,0,8
24,474,539.45819940418,1,0,1707522.90155346,1707523.94863226,6,1,74,16,4
24,475,931.118251057342,0,0,1707525.57218086,1707526.61925158,6,0,61,4,16
24,476,479.593305382878,0,0,1707528.65459908,1707529.70164824,6,0,62,0,16
24,477,692.123322514817,1,0,1707531.38401079,1707532.43108959,6,1,86,16,8
24,478,481.186658609658,1,0,1707534.13700059,1707535.19589307,6,1,75,0,8
24,479,531.939526787028,1,0,1707536.78407839,1707537.83121648,6,1,80,0,16
24,480,660.07724753581,1,0,1707539.44293792,1707540.49000787,6,1,93,0,16
24,481,924.399142619222,1,0,1707566.19620335,1707567.24327715,7,1,85,4,8
24,482,690.985378110781,0,0,1707569.3256484,1707570.37279341,7,0,80,16,0
24,483,853.882763767615,1,0,1707572.11391371,1707573.16098712,7,1,93,8,4
24,484,458.935145288706,0,0,1707575.07866014,1707576.12573548,7,0,83,0,16
24,485,538.925413507968,0,0,1707577.78458076,1707578.83164109,7,0,67,4,4
24,486,701.037093764171,0,0,1707580.49049022,1707581.53756363,7,0,95,16,8
24,487,627.533802762628,1,0,1707583.26699382,1707584.31406223,7,1,69,8,0
24,488,572.443194454536,1,0,1707586.00820651,1707587.05527761,7,1,88,0,4
24,489,499.644381925464,0,0,1707588.67885586,1707589.72589385,7,0,65,4,16
24,490,448.04152008146,1,0,1707591.29062812,1707592.33768998,7,1,76,0,0
24,491,679.781859042123,1,0,1707593.84359182,1707594.89067408,7,1,89,0,4
24,492,416.124406736344,1,0,1707596.71421606,1707597.76128986,7,1,76,0,0
24,493,520.933108171448,1,0,1707599.34954716,1707600.39661095,7,1,89,4,16
24,494,782.010167138651,1,0,1707602.11428212,1707603.16135361,7,1,82,4,0
24,495,474.112231051549,1,0,1707604.97314196,1707606.02020344,7,1,93,0,8
24,496,446.043187519535,0,0,1707607.51434587,1707608.56142121,7,0,74,16,8
24,497,583.207472926006,0,0,1707610.18496788,1707611.23203475,7,0,92,8,16
24,498,567.783242091537,1,0,1707612.90271373,1707613.94971323,7,1,95,4,16
24,499,597.328995587304,0,0,1707615.58502509,1707616.63210504,7,0,74,16,0
24,500,683.971774298698,0,0,1707618.37329733,1707619.42041732,7,0,70,16,0
24,501,867.657436756417,1,0,1707621.22039969,1707622.26751545,7,1,80,8,16
24,502,823.051625164226,1,0,1707624.33807186,1707625.3851445,7,1,90,4,4
24,503,770.124882459641,1,0,1707627.34987938,1707628.39694817,7,1,84,16,4
24,504,529.069643002003,1,0,1707630.29109854,1707631.33815617,7,1,61,0,0
24,505,674.579496728256,1,0,1707633.02053643,1707634.06760368,7,1,81,0,8
24,506,525.192316155881,0,0,1707635.90295241,1707636.94998617,7,0,74,8,0
24,507,573.12419032678,1,0,1707638.60883877,1707639.65590833,7,1,100,0,16
24,508,607.659423025325,0,0,1707641.38534738,1707642.4323973,7,0,78,4,0
24,509,582.764382706955,0,0,1707644.04420152,1707645.09126338,7,0,94,0,0
24,510,657.084560953081,0,0,1707646.76190002,1707647.80894533,7,0,71,4,4
24,511,640.672135399655,0,0,1707649.59725337,1707650.64427866,7,0,98,8,8
24,512,1339.76893988438,1,0,1707652.4561032,1707653.50313966,7,1,74,16,16
24,513,771.327500464395,0,0,1707655.89140166,1707656.93846544,7,0,85,8,16
24,514,546.805179212242,1,0,1707658.76203553,1707659.80914666,7,1,78,8,8
24,515,530.326925450936,1,0,1707661.38558297,1707662.43265022,7,1,80,16,16
24,516,592.595130670816,0,0,1707664.1503237,1707665.19738903,7,0,61,0,0
24,517,490.081566851586,1,0,1707666.89152484,1707667.93859941,7,1,83,4,8
24,518,785.954092163593,1,0,1707669.53862305,1707670.58568645,7,1,82,8,8
24,519,810.590823646635,0,0,1707672.37395369,1707673.42101824,7,0,93,8,8
24,520,858.252455480397,0,0,1707675.30340228,1707676.35046221,7,0,92,4,16
24,521,611.469766823575,1,0,1707678.4093189,1707679.45638653,7,1,70,8,0
24,522,549.310890026391,0,0,1707681.25640932,1707682.30348235,7,0,62,4,8
24,523,509.535184130073,0,0,1707683.92702517,1707684.97409705,7,0,67,16,8
24,524,393.323938827962,0,0,1707686.51529711,1707687.56236782,7,0,84,4,0
24,525,464.793866034597,1,0,1707688.99773172,1707690.04474778,7,1,71,0,16
24,526,551.359652541578,0,0,1707691.57418112,1707692.62124375,7,0,77,16,16
24,527,612.596547463909,0,0,1707694.19775167,1707695.24481738,7,0,85,16,8
24,528,529.428811278194,1,0,1707696.89189133,1707697.9389605,7,1,79,0,8
24,529,523.856886429712,0,0,1707699.60957058,1707700.65664014,7,0,96,8,8
24,530,455.713406903669,1,0,1707702.25666879,1707703.30373219,7,1,88,16,4
24,531,674.617607844993,0,0,1707704.76257447,1707705.80974489,7,0,61,8,4
24,532,594.958791043609,0,0,1707707.6684877,1707708.71556265,7,0,71,0,16
24,533,698.669198667631,0,0,1707710.45675802,1707711.5038272,7,0,90,16,4
24,534,499.569699633867,1,0,1707713.36267472,1707714.40974928,7,1,64,8,0
24,535,499.100816901773,1,0,1707716.04506421,1707717.09213532,7,1,75,4,8
24,536,618.807122576982,0,0,1707718.63332768,1707719.68043458,7,0,95,4,4
24,537,542.189497500658,1,0,1707721.4568916,1707722.50396694,7,1,65,0,4
24,538,443.092077039182,0,0,1707724.10397671,1707725.15105359,7,0,86,0,4
24,539,449.909350369126,0,0,1707726.75106914,1707727.79816257,7,0,87,4,16
24,540,724.640205269679,1,0,1707729.37462891,1707730.42170155,7,1,89,16,16
24,541,514.66093910858,0,0,1707732.18646076,1707733.23350068,7,0,63,4,4
24,542,615.406762575731,0,0,1707734.88058117,1707735.92764843,7,0,77,8,16
24,543,626.118686283007,0,0,1707737.56296836,1707738.61003446,7,0,69,4,0
24,544,547.921951161698,0,0,1707740.25712073,1707741.30423687,7,0,65,16,0
24,545,638.593731215224,0,0,1707743.04538912,1707744.09245868,7,0,72,0,4
24,546,629.843568429351,1,0,1707745.91600913,1707746.96307754,7,1,61,4,0
24,547,634.470799006522,1,0,1707748.7513417,1707749.79840625,7,1,80,4,8
24,548,706.218283390626,1,0,1707751.58666425,1707752.63373651,7,1,83,8,4
24,549,566.283819032833,1,0,1707754.44552563,1707755.49258903,7,1,90,16,8
24,550,609.943396411836,0,0,1707757.08084133,1707758.12792167,7,0,96,0,8
24,551,672.983448486775,0,0,1707759.83382382,1707760.88089068,7,0,72,16,0
24,552,420.523740584031,0,0,1707762.61032819,1707763.65739313,7,0,84,8,4
24,553,436.071928823367,0,0,1707765.09270929,1707766.13977462,7,0,73,0,8
24,554,622.470411239192,0,0,1707767.76332823,1707768.81040241,7,0,92,8,4
24,555,551.57176614739,1,0,1707770.48105483,1707771.52807396,7,1,89,16,4
24,556,430.883809924126,1,0,1707773.24574667,1707774.29282432,7,1,75,16,4
24,557,359.261438017711,1,0,1707775.81050019,1707776.85755127,7,1,76,8,0
24,558,403.786022914574,1,0,1707778.33993546,1707779.38699501,7,1,78,8,16
24,559,820.321097271517,1,0,1707780.9164272,1707781.96349715,7,1,91,16,16
24,560,414.962979499251,1,0,1707783.81057872,1707784.85764443,7,1,83,0,16
24,561,663.19158161059,0,0,1707810.10500687,1707811.15207913,8,0,94,16,0
24,562,536.125977290794,0,0,1707812.89328181,1707813.9403583,8,0,67,4,16
24,563,475.216684164479,0,0,1707815.65801946,1707816.70509095,8,0,79,8,8
24,564,615.013717440888,0,0,1707818.30511227,1707819.35218491,8,0,95,16,8
24,565,702.300920616835,1,0,1707821.01103059,1707822.05809553,8,1,69,8,16
24,566,525.762443197891,0,0,1707823.95224243,1707824.99937166,8,0,87,8,0
24,567,439.705190248787,0,0,1707826.59932831,1707827.64640326,8,0,65,4,4
24,568,447.412878740579,0,0,1707829.22288769,1707830.26996149,8,0,88,16,4
24,569,520.908855600283,0,0,1707831.85821071,1707832.90532339,8,0,97,16,16
24,570,514.531977241859,0,0,1707834.44651344,1707835.49357415,8,0,89,0,0
24,571,482.485516928136,0,0,1707837.04651167,1707838.09358161,8,0,95,4,8
24,572,766.661003930494,1,0,1707839.65831511,1707840.70537967,8,1,96,16,16
24,573,639.881040668115,1,0,1707842.51721344,1707843.5642422,8,1,100,8,8
24,574,564.926061779261,1,0,1707845.22308479,1707846.27018823,8,1,90,16,16
24,575,614.301924360916,1,0,1707848.04664371,1707849.09371212,8,1,76,16,8
24,576,447.146100690588,0,0,1707850.78785216,1707851.83491903,8,0,64,0,4
24,577,572.446658974513,1,0,1707853.35258912,1707854.39966061,8,1,87,8,16
24,578,699.213148793206,0,0,1707856.10556776,1707857.15263155,8,0,71,8,0
24,579,516.226190375164,0,0,1707858.95265434,1707859.99972852,8,0,61,0,16
24,580,669.52611412853,1,0,1707861.71739314,1707862.76446078,8,1,96,8,8
24,581,657.631205627695,0,0,1707864.57624836,1707865.62332177,8,0,71,4,16
24,582,427.314836997539,0,0,1707867.41158362,1707868.4586501,8,0,83,0,0
24,583,436.733291717246,0,0,1707869.98816082,1707871.03515224,8,0,95,4,8
24,584,480.30971782282,0,0,1707872.57634691,1707873.62341955,8,0,71,0,8
24,585,426.634610863402,1,0,1707875.24696507,1707876.29405119,8,1,97,0,16
24,586,397.69786526449,1,0,1707877.74112214,1707878.78819131,8,1,87,0,4
24,587,522.243515355513,1,0,1707880.28233028,1707881.32939215,8,1,88,16,8
24,588,719.42398394458,0,0,1707882.98824706,1707884.03530776,8,0,73,16,0
24,589,413.037019781768,1,0,1707885.87062454,1707886.91769449,8,1,96,8,4
24,590,401.041636243463,1,0,1707888.48241759,1707889.52949562,8,1,79,8,4
24,591,458.641804987565,1,1,1707891.10597813,1707892.15305423,8,0,90,4,8
24,592,450.045241741464,1,0,1707893.78836724,1707894.83544951,8,1,69,16,4
24,593,397.748680319637,1,0,1707896.37663571,1707897.42371143,8,1,77,4,4
24,594,477.019841317087,1,0,1707898.88255102,1707899.92965946,8,1,79,16,4
24,595,501.955302432179,1,0,1707901.49434214,1707902.54141247,8,1,73,0,0
24,596,840.78754670918,0,0,1707904.12967478,1707905.17674319,8,0,78,4,0
24,597,658.781468868256,1,0,1707907.14146883,1707908.18857343,8,1,100,4,0
24,598,578.155630035326,0,0,1707910.05919729,1707911.10622104,8,0,90,4,4
24,599,554.198354715481,1,0,1707912.70623774,1707913.75331539,8,1,94,16,16
24,600,586.759122787043,1,0,1707915.38862955,1707916.43569911,8,1,92,16,0
24,601,815.392056945711,0,0,1707918.22396019,1707919.27102359,8,0,80,4,4
24,602,533.620266476646,1,0,1707921.23580621,1707922.28283073,8,1,76,0,4
24,603,467.239907942712,0,0,1707923.87108265,1707924.91814643,8,0,84,0,0
24,604,538.932727649808,0,0,1707926.4711136,1707927.5181847,8,0,66,0,4
24,605,759.842960163951,1,0,1707929.21236478,1707930.25940047,8,1,61,8,0
24,606,741.878371918574,1,0,1707932.07122501,1707933.11831074,8,1,97,8,0
24,607,525.362469023094,0,0,1707934.89474504,1707935.94180883,8,0,91,4,8
24,608,648.644292028621,1,0,1707937.65947885,1707938.7065511,8,1,99,16,4
24,609,594.821359962225,0,0,1707940.53010617,1707941.57717612,8,0,95,4,16
24,610,556.196301942691,0,0,1707943.24778235,1707944.29485499,8,0,77,4,0
24,611,547.700983472168,1,0,1707945.87134712,1707946.91841013,8,1,76,8,16
24,612,469.998538261279,1,0,1707948.49490188,1707949.54200377,8,1,65,0,16
24,613,596.328867133707,1,0,1707951.21258883,1707952.25965916,8,1,94,4,4
24,614,619.884628336877,1,0,1707954.04791562,1707955.0949975,8,1,73,4,16
24,615,893.70466535911,0,0,1707956.83621519,1707957.8832528,8,0,69,4,16
24,616,643.572816159576,1,0,1707959.88327552,1707960.93034392,8,1,83,0,0
24,617,722.216875990853,0,0,1707962.6244859,1707963.67155661,8,0,80,16,0
24,618,550.777206430212,0,0,1707965.49511014,1707966.54218201,8,0,82,16,16
24,619,616.130104288459,0,0,1707968.22455419,1707969.27162336,8,0,61,16,0
24,620,386.85313006863,1,0,1707970.96576611,1707972.01282758,8,1,75,0,16
24,621,471.405955730006,1,0,1707973.58932818,1707974.63639389,8,1,66,4,0
24,622,509.324995102361,1,0,1707976.14229688,1707977.1893726,8,1,85,0,8
24,623,479.605239117518,0,0,1707978.85999269,1707979.90704147,8,0,96,8,4
24,624,709.21597420238,0,0,1707981.43647905,1707982.48355323,8,0,86,8,8
24,625,593.463602708653,1,0,1707984.30709675,1707985.35416862,8,1,82,0,4
24,626,508.657472906634,1,0,1707986.96595435,1707988.01302584,8,1,71,0,8
24,627,824.673080816865,1,0,1707989.67189461,1707990.71893414,8,1,75,8,0
24,628,437.551333801821,1,0,1707992.62485931,1707993.67191886,8,1,85,8,16
24,629,590.268041938543,0,0,1707995.30722571,1707996.35429565,8,0,72,16,4
24,630,589.954683789983,1,0,1707998.09550064,1707999.14257406,8,1,73,4,8
24,631,680.68228289485,1,0,1708000.9308617,1708001.97790162,8,1,67,16,8
24,632,649.82727682218,1,0,1708003.78968997,1708004.83675144,8,1,87,0,8
24,633,1081.62759314291,0,0,1708006.54271865,1708007.58972892,8,0,76,0,8
24,634,650.915946578607,0,0,1708009.75446642,1708010.80156755,8,0,71,0,16
24,635,605.08826887235,0,0,1708012.51919792,1708013.56628057,8,0,87,8,4
24,636,743.423990206793,0,0,1708015.23688718,1708016.28395636,8,0,98,4,0
24,637,837.705163983628,0,0,1708018.06048729,1708019.10752144,8,0,82,16,8
24,638,674.648789688945,1,0,1708021.0604819,1708022.10756917,8,1,95,8,16
24,639,468.730476917699,1,0,1708023.9546365,1708025.00170221,8,1,65,8,8
24,640,1108.21261187084,0,0,1708026.48406984,1708027.53114826,8,0,96,8,4
24,641,475.540821440518,0,0,1708057.39032377,1708058.43739602,9,0,78,16,8
24,642,534.780538873747,0,0,1708060.10806115,1708061.15508683,9,0,70,16,0
24,643,392.584044020623,1,0,1708062.79039329,1708063.837459,9,1,79,0,16
24,644,634.947765851393,1,0,1708065.41400849,1708066.4610411,9,1,83,4,16
24,645,541.780669009313,1,0,1708068.30811343,1708069.35517029,9,1,68,16,4
24,646,441.295848926529,1,0,1708071.04931418,1708072.09640376,9,1,89,4,4
24,647,741.196220973507,0,0,1708073.59051925,1708074.63759767,9,0,74,16,0
24,648,517.302156193182,1,0,1708076.55526145,1708077.60233062,9,1,77,16,8
24,649,449.952466180548,1,0,1708079.23764632,1708080.28471858,9,1,83,0,0
24,650,495.754351373762,1,0,1708081.88483114,1708082.93184566,9,1,79,4,8
24,651,480.699683073908,1,0,1708084.47300068,1708085.52007486,9,1,72,0,4
24,652,649.542790837586,1,0,1708087.12009426,1708088.16716613,9,1,74,16,0
24,653,617.561003891751,1,0,1708090.02608025,1708091.07308206,9,1,72,0,0
24,654,439.471134217456,0,0,1708092.7672198,1708093.81429167,9,0,65,8,4
24,655,709.031577920541,1,0,1708095.4025432,1708096.44962238,9,1,86,4,8
24,656,472.237086389214,0,0,1708098.32027781,1708099.36732543,9,0,76,8,4
24,657,973.071296699345,1,0,1708100.92025795,1708101.96733213,9,1,91,8,16
24,658,588.787481887266,0,0,1708104.04971762,1708105.09677756,9,0,98,0,16
24,659,739.052758552134,1,0,1708106.8262116,1708107.87328231,9,1,70,4,8
24,660,470.171385677531,0,0,1708109.68507529,1708110.73213946,9,0,67,8,0
24,661,583.390714135021,0,0,1708112.34392712,1708113.39099706,9,0,61,16,16
24,662,751.042752759531,1,0,1708115.13218627,1708116.17926315,9,1,81,4,0
24,663,612.305131973699,0,0,1708117.9439854,1708118.99105766,9,0,86,8,0
24,664,626.377764856443,1,0,1708120.75578915,1708121.80286218,9,1,69,8,0
24,665,818.941781995818,0,0,1708123.48524167,1708124.5323043,9,0,89,8,0
24,666,527.801581425592,1,0,1708126.48526938,1708127.53234472,9,1,63,4,0
24,667,503.158690407872,1,0,1708129.20294825,1708130.25002051,9,1,78,4,4
24,668,581.433187704533,0,0,1708131.76768714,1708132.81475439,9,0,100,8,16
24,669,1058.49836836569,0,0,1708134.56777653,1708135.61478988,9,0,92,8,4
24,670,495.522219920531,0,0,1708137.87363301,1708138.92070335,9,0,95,16,8
24,671,767.082920996472,1,0,1708140.61485764,1708141.66191719,9,1,91,0,4
24,672,709.45349521935,0,0,1708143.47371362,1708144.52077741,9,0,100,4,16
24,673,604.590899311006,1,0,1708146.29727485,1708147.34434056,9,1,72,16,4
24,674,600.672766566277,1,0,1708149.00319625,1708150.05026773,9,1,96,8,16
24,675,785.153373377398,1,0,1708151.67380979,1708152.72087666,9,1,84,8,8
24,676,574.209010461345,1,0,1708154.67384097,1708155.720914,9,1,73,4,16
24,677,626.55831174925,1,0,1708157.40328694,1708158.45035881,9,1,92,0,0
24,678,994.210657896474,0,0,1708160.08567144,1708161.13274023,9,0,91,16,0
24,679,567.234672605991,1,0,1708163.19159575,1708164.23866031,9,1,91,16,4
24,680,1222.34660759568,0,0,1708166.00338372,1708167.05045328,9,0,70,16,16
24,681,502.150477608666,0,0,1708169.29754009,1708170.34461581,9,0,75,8,16
24,682,561.648119240999,1,0,1708171.96816634,1708173.01523705,9,1,67,16,16
24,683,429.929876700044,0,0,1708174.63878835,1708175.68586022,9,0,96,0,4
24,684,715.40807117708,0,0,1708177.32116861,1708178.36824087,9,0,61,0,16
24,685,617.817387916148,1,0,1708180.28592197,1708181.33298345,9,1,94,16,16
24,686,627.337087644264,1,0,1708182.96830184,1708184.01537102,9,1,68,4,8
24,687,477.276225341484,0,0,1708185.67420591,1708186.7212824,9,0,86,0,4
24,688,408.852494088933,0,0,1708188.29781264,1708189.34491146,9,0,97,0,8
24,689,602.137543028221,1,0,1708190.86251111,1708191.90958221,9,1,97,16,0
24,690,639.731290750206,0,0,1708193.54493217,1708194.59196247,9,0,93,4,4
24,691,637.488893000409,0,0,1708196.39198179,1708197.43906098,9,0,69,4,0
24,692,547.170122386888,1,0,1708199.27437699,1708200.321435,9,1,63,0,0
24,693,670.675607630983,0,0,1708201.89794099,1708202.94500054,9,0,71,4,0
24,694,740.765064721927,1,0,1708204.8156398,1708205.86269666,9,1,89,8,8
24,695,514.962748391554,1,0,1708207.78035813,1708208.82742538,9,1,86,0,0
24,696,539.270723471418,1,0,1708210.39215503,1708211.43922728,9,1,63,8,8
24,697,1249.98564994894,0,0,1708213.02748536,1708214.07455838,9,0,80,0,8
24,698,596.237246412784,0,0,1708216.39222778,1708217.43929658,9,0,91,16,16
24,699,528.973017819226,0,0,1708219.13349206,1708220.18051889,9,0,72,16,4
24,700,673.577828332782,0,0,1708221.72170548,1708222.76876734,9,0,93,4,16
24,701,688.979346305132,1,0,1708224.59232318,1708225.63943585,9,1,97,0,8
24,702,513.470254838467,0,0,1708227.47472915,1708228.52178255,9,0,74,4,16
24,703,856.022376799956,1,0,1708230.15709825,1708231.2041655,9,1,65,0,16
24,704,877.657952718437,0,0,1708233.08656224,1708234.13361832,9,0,89,16,4
24,705,411.326638422906,0,0,1708236.1336395,1708237.18071522,9,0,76,16,8
24,706,597.754762740806,0,0,1708238.74542947,1708239.79250981,9,0,97,0,4
24,707,565.764121711254,0,0,1708241.46311065,1708242.51024834,9,0,85,8,8
24,708,549.620783887804,1,0,1708244.1454986,1708245.19257317,9,1,69,0,8
24,709,638.746560551226,0,0,1708246.81611869,1708247.86322059,9,0,96,8,8
24,710,566.626819083467,0,0,1708249.6985008,1708250.74558306,9,0,82,4,4
24,711,637.829968472943,1,0,1708252.52209744,1708253.569162,9,1,87,16,8
24,712,533.707267604768,1,0,1708255.32214372,1708256.36918441,9,1,69,4,0
24,713,484.352577710524,0,0,1708257.95748675,1708259.00450165,9,0,93,0,8
24,714,597.412917297333,0,1,1708260.51039771,1708261.55747613,9,1,72,8,4
24,715,460.900370962918,1,0,1708263.23984792,1708264.28692056,9,1,65,8,16
24,716,769.694881048054,1,0,1708265.78107223,1708266.82813371,9,1,91,8,4
24,717,575.642989948392,0,0,1708268.76932861,1708269.81638932,9,0,73,4,4
24,718,536.534420913085,1,1,1708271.52229185,1708272.56937103,9,0,69,4,8
24,719,581.032058224082,0,0,1708274.25173628,1708275.29881585,9,0,95,8,0
24,720,579.941463889554,0,0,1708276.95766114,1708278.00472954,9,0,67,0,16
