sub_id,Trial,RT,Resp,Error,Fix_onset,Disp_onset,block,tid,tloc,fish_setsize,bird_setsize
14,1,1007.86064146087,0,0,2287630.67478293,2287631.72187675,1,0,74,8,4
14,2,488.092510960996,0,0,2287633.74546061,2287634.79255173,1,0,69,8,8
14,3,854.352068621665,0,0,2287636.310248,2287637.35733142,1,0,91,4,16
14,4,607.051607221365,1,0,2287639.34562399,2287640.39270741,1,1,80,8,8
14,5,498.911069240421,1,0,2287642.09864689,2287643.14579961,1,1,74,0,0
14,6,419.090953655541,0,1,2287644.75754569,2287645.80462949,1,1,86,4,0
14,7,759.550812654197,1,0,2287647.28703408,2287648.33411134,1,1,91,16,0
14,8,862.002782989293,1,0,2287650.16946662,2287651.21655428,1,1,70,8,4
14,9,591.34173579514,0,0,2287653.14602327,2287654.19310977,1,0,70,0,8
14,10,724.591352976859,0,0,2287655.86380608,2287656.91083483,1,0,94,8,16
14,11,572.397422045469,1,0,2287658.75794643,2287659.80503101,1,1,92,4,0
14,12,601.696030702442,1,0,2287661.56979638,2287662.61687903,1,1,74,8,16
14,13,490.13280402869,0,0,2287664.25222322,2287665.29930394,1,0,65,0,0
14,14,594.426042865962,1,0,2287666.92288488,2287667.96997408,1,1,89,16,8
14,15,566.109084058553,0,0,2287669.61708845,2287670.66416532,1,0,76,8,16
14,16,832.095935475081,1,0,2287672.35833771,2287673.40541805,1,1,82,4,16
14,17,505.262539722025,1,0,2287675.33488974,2287676.38197624,1,1,75,0,16
14,18,546.457212418318,1,0,2287678.0996809,2287679.14676547,1,1,70,4,0
14,19,521.465931553394,0,1,2287680.80563963,2287681.85272036,1,1,84,4,8
14,20,833.430980332196,0,0,2287683.45276902,2287684.49985282,1,0,76,4,8
14,21,714.449556078762,1,0,2287686.46462158,2287687.51171231,1,1,70,8,4
14,22,679.185207467526,0,0,2287689.35882391,2287690.40591388,1,0,91,16,0
14,23,614.720414858311,0,0,2287692.28832909,2287693.33543984,1,0,93,0,16
14,24,865.962876006961,1,0,2287695.1472282,2287696.19431508,1,1,90,8,8
14,25,468.441409058869,0,0,2287698.22967144,2287699.2767564,1,0,98,0,4
14,26,649.47892492637,0,0,2287700.79444766,2287701.84153878,1,0,95,16,8
14,27,738.903046119958,0,0,2287703.5592369,2287704.60631262,1,0,64,4,4
14,28,544.072378892452,0,0,2287706.52402337,2287707.57110871,1,0,79,4,16
14,29,688.015826977789,1,0,2287709.1829264,2287710.23000982,1,1,71,0,8
14,30,590.66574415192,0,0,2287712.06535701,2287713.11243966,1,0,62,0,8
14,31,621.897626668215,1,0,2287714.78310594,2287715.83017743,1,1,82,0,8
14,32,598.010798916221,0,0,2287717.59492047,2287718.64205971,1,0,84,0,16
14,33,634.866576641798,0,0,2287720.39504989,2287721.44215295,1,0,63,16,0
14,34,631.495858542621,1,0,2287723.08919995,2287724.13629069,1,1,95,8,0
14,35,628.517030738294,1,0,2287725.84221824,2287726.88930705,1,1,62,8,4
14,36,514.136659912765,1,0,2287728.6187715,2287729.66585376,1,1,80,0,8
14,37,584.286940749735,1,0,2287731.19535409,2287732.24239863,1,1,85,4,4
14,38,540.695116855204,0,0,2287734.00715977,2287735.05424704,1,0,63,8,0
14,39,457.511212676764,1,0,2287736.76018075,2287737.80726609,1,1,67,0,0
14,40,671.296972315758,0,0,2287739.36026213,2287740.40734324,1,0,99,8,8
14,41,617.181470151991,1,0,2287742.20739682,2287743.25447986,1,1,73,16,8
14,42,553.523170761764,0,0,2287744.92511842,2287745.97220531,1,0,74,4,0
14,43,568.808045703918,1,0,2287747.64289662,2287748.68993153,1,1,96,16,16
14,44,670.364596880972,0,0,2287750.33703897,2287751.3841274,1,0,63,16,16
14,45,859.593696892262,1,0,2287753.14888468,2287754.19597041,1,1,96,16,4
14,46,541.080462746322,1,0,2287756.1842726,2287757.23135795,1,1,79,4,8
14,47,720.847992226481,1,0,2287758.81967877,2287759.86677798,1,1,61,4,4
14,48,567.266277503222,0,0,2287761.65500941,2287762.70209668,1,0,63,4,4
14,49,649.057007394731,0,0,2287764.33744588,2287765.38459089,1,0,89,8,16
14,50,480.581922922283,0,0,2287767.2198761,2287768.26696145,1,0,87,0,0
14,51,918.983549345285,0,0,2287769.90231218,2287770.94939252,1,0,91,8,0
14,52,614.107557106763,0,0,2287773.05533917,2287774.10242836,1,0,99,16,16
14,53,564.85719140619,1,0,2287775.76130214,2287776.80838825,1,1,82,4,4
14,54,493.239824194461,0,0,2287778.57314361,2287779.62022742,1,0,98,0,4
14,55,488.046700600535,1,0,2287781.22027608,2287782.26742725,1,1,77,0,4
14,56,493.664821144193,0,0,2287783.8674147,2287784.91450005,1,0,79,16,4
14,57,471.785949543118,0,0,2287786.51454909,2287787.56163174,1,0,99,8,0
14,58,496.854222379625,0,0,2287789.23227146,2287790.27936528,1,0,95,0,4
14,59,668.208815623075,1,0,2287791.90293659,2287792.9500227,1,1,77,16,8
14,60,669.722097460181,1,0,2287794.64419278,2287795.69130854,1,1,92,0,16
14,61,547.367644961923,0,0,2287797.47956846,2287798.52665688,1,0,81,0,4
14,62,604.284508153796,1,0,2287800.22082234,2287801.26791076,1,1,81,8,16
14,63,533.121394924819,0,0,2287803.06795665,2287804.115047,1,0,85,0,0
14,64,580.427322536707,1,0,2287805.79745998,2287806.8445434,1,1,75,8,8
14,65,491.607590112835,0,0,2287808.5034141,2287809.5505029,1,0,94,0,16
14,66,509.639546275139,0,0,2287811.05643361,2287812.10351434,1,0,77,16,0
14,67,525.874119717628,1,0,2287813.77415213,2287814.82123902,1,1,97,16,4
14,68,512.761194258928,0,0,2287816.43312946,2287817.48020172,1,0,65,16,16
14,69,668.070999439806,0,0,2287819.04489479,2287820.09198168,1,0,82,4,0
14,70,522.586937993765,0,1,2287821.78617062,2287822.83323248,1,1,71,4,8
14,71,618.307481054217,0,0,2287824.37445448,2287825.42154445,1,0,79,16,16
14,72,461.614125873894,1,0,2287827.04512693,2287828.09220688,1,1,73,4,16
14,73,598.440415691584,1,0,2287829.58637472,2287830.63346276,1,1,66,16,0
14,74,487.901185639203,1,0,2287832.41001102,2287833.45707057,1,1,65,4,8
14,75,577.205584384501,0,0,2287835.03358387,2287836.08067345,1,0,71,8,4
14,76,524.81278218329,1,0,2287837.68072018,2287838.72781169,1,1,92,16,4
14,77,522.687028162181,1,0,2287840.32786959,2287841.37497303,1,1,83,16,4
14,78,902.278168592602,0,0,2287843.01028526,2287844.05737523,1,0,80,8,0
14,79,653.228444978595,0,0,2287846.0574272,2287847.10451947,1,0,95,16,8
14,80,595.440414734185,1,0,2287848.88104117,2287849.92813421,1,1,75,4,16
14,81,2500,-1,-1,2287881.89374988,2287882.940841,2,1,73,0,4
14,82,707.307760138065,1,0,2287886.99978584,2287888.04686733,2,1,78,8,8
14,83,502.322593238205,1,0,2287889.95281213,2287890.99989478,2,1,78,4,4
14,84,679.589031729847,0,0,2287892.62347495,2287893.67056299,2,0,63,16,16
14,85,603.374075144529,1,0,2287895.45885101,2287896.50593366,2,1,83,16,16
14,86,737.589174881577,0,0,2287898.28246306,2287899.32954224,2,0,100,4,16
14,87,595.247934572399,1,0,2287901.17666154,2287902.22374342,2,1,97,16,16
14,88,666.109238285571,1,0,2287903.96498152,2287905.01206725,2,1,82,4,4
14,89,553.842303343117,0,0,2287906.85920849,2287907.90632117,2,0,79,4,4
14,90,638.358557596803,0,0,2287909.54161185,2287910.58869065,2,0,65,16,4
14,91,674.883268773556,1,0,2287912.32991912,2287913.37700754,2,1,70,16,0
14,92,667.705286294222,0,0,2287915.16530096,2287916.21238746,2,0,98,16,8
14,93,500.129470601678,0,0,2287918.04773773,2287919.09482231,2,0,66,8,16
14,94,657.630088273436,0,0,2287920.77722797,2287921.82431409,2,0,97,4,16
14,95,700.633307453245,1,0,2287923.68318547,2287924.7302739,2,1,70,4,16
14,96,558.081108611077,0,0,2287926.50680175,2287927.55388479,2,0,77,8,0
14,97,919.167560525239,1,0,2287929.16570132,2287930.21278666,2,1,90,16,0
14,98,590.714634396136,1,0,2287932.25990665,2287933.30705744,2,1,70,0,8
14,99,546.112672425807,0,0,2287935.02468935,2287936.07177623,2,0,79,4,4
14,100,616.575926542282,1,0,2287937.66006549,2287938.70714968,2,1,99,4,16
14,101,768.188951537013,0,0,2287940.38955458,2287941.43663992,2,0,92,8,4
14,102,1019.40870052204,0,0,2287943.413165,2287944.4602515,2,0,70,8,0
14,103,969.149737153202,1,0,2287946.55443259,2287947.60152409,2,1,97,8,8
14,104,512.426278553903,1,1,2287949.71922629,2287950.76632318,2,0,99,0,8
14,105,736.00352043286,0,0,2287952.35460243,2287953.40168932,2,0,78,4,8
14,106,522.618889808655,1,0,2287955.24885135,2287956.29588511,2,1,77,16,4
14,107,424.204775132239,0,0,2287957.88417244,2287958.93126125,2,0,78,8,16
14,108,645.647023338825,0,0,2287960.44895174,2287961.49603593,2,0,61,4,8
14,109,469.567804597318,0,0,2287963.21377216,2287964.26082825,2,0,69,0,0
14,110,436.306022573262,0,0,2287965.80205103,2287966.84913483,2,0,78,0,0
14,111,540.015275590122,1,0,2287968.34329728,2287969.39038494,2,1,76,8,4
14,112,536.740797571838,0,0,2287970.99042821,2287972.03757438,2,0,96,16,0
14,113,562.281032558531,0,0,2287973.70816097,2287974.75524516,2,0,69,4,8
14,114,698.634974658489,1,0,2287976.43765121,2287977.4847354,2,1,62,8,0
14,115,575.418595224619,0,0,2287979.3789131,2287980.42599575,2,0,97,16,0
14,116,651.164283975959,1,0,2287982.07310088,2287983.12019123,2,1,73,8,0
14,117,567.996933124959,0,0,2287984.81436208,2287985.86144627,2,0,67,4,0
14,118,729.93114637211,1,0,2287987.47326203,2287988.52034468,2,1,93,16,16
14,119,694.230636581779,0,0,2287990.343924,2287991.39101858,2,0,79,4,8
14,120,587.484426796436,0,0,2287993.21460021,2287994.26168517,2,0,96,0,4
14,121,727.405032608658,1,0,2287995.92056665,2287996.96765199,2,1,68,16,0
14,122,858.537749387324,1,0,2287998.73242583,2287999.77949693,2,1,89,0,4
14,123,482.979074586183,1,0,2288001.80308041,2288002.85016999,2,1,96,8,8
14,124,617.980649229139,1,0,2288004.3561007,2288005.40322724,2,1,71,0,16
14,125,551.67458858341,1,0,2288007.05034238,2288008.09737537,2,1,93,8,4
14,126,800.410568714142,0,0,2288009.83860692,2288010.88569496,2,0,87,8,4
14,127,1223.7309650518,0,0,2288012.76815136,2288013.81521708,2,0,93,16,4
14,128,567.272051237524,0,0,2288016.19173392,2288017.23881926,2,0,63,4,0
14,129,424.212474375963,1,0,2288018.99180598,2288020.03890057,2,1,78,0,16
14,130,438.25431028381,1,0,2288021.5565926,2288022.60367217,2,1,88,0,0
14,131,464.690734166652,0,0,2288024.08608254,2288025.13316519,2,0,87,4,8
14,132,519.787887111306,1,0,2288026.63909474,2288027.6861797,2,1,98,16,8
14,133,516.040677204728,0,0,2288029.35681211,2288030.40390592,2,0,64,8,16
14,134,386.188339907676,0,1,2288031.96865674,2288033.01574516,2,1,93,0,0
14,135,532.167846336961,1,0,2288034.47460285,2288035.52170051,2,1,66,16,8
14,136,610.759936738759,0,0,2288037.15703777,2288038.20412697,2,0,93,8,16
14,137,553.920450620353,1,0,2288039.87476553,2288040.92188783,2,1,79,0,4
14,138,529.819199349731,0,0,2288042.62779306,2288043.6748707,2,0,70,16,4
14,139,551.785842049867,1,0,2288045.28668877,2288046.33382147,2,1,85,16,8
14,140,525.287054013461,0,0,2288048.05147031,2288049.09855643,2,0,92,4,4
14,141,474.429476540536,0,0,2288050.76919615,2288051.81628573,2,0,81,8,4
14,142,440.228390041739,1,0,2288053.31044202,2288054.35752967,2,1,65,0,4
14,143,524.213398341089,0,1,2288055.87522671,2288056.92231629,2,1,72,8,0
14,144,555.453749839216,1,0,2288058.59294485,2288059.6400352,2,1,75,4,0
14,145,456.832910887897,1,0,2288061.31067608,2288062.35778875,2,1,63,0,16
14,146,473.922482691705,0,0,2288063.9225184,2288064.96965148,2,0,61,0,8
14,147,452.921323012561,1,0,2288066.53435572,2288067.58144684,2,1,81,0,16
14,148,490.964705124497,1,0,2288069.22859508,2288070.2756427,2,1,92,16,16
14,149,434.90168498829,0,0,2288071.78157534,2288072.82869071,2,0,93,16,4
14,150,418.38839976117,1,0,2288074.32281274,2288075.3698977,2,1,83,0,8
14,151,569.501360878348,1,0,2288076.87583072,2288077.9229203,2,1,76,4,0
14,152,474.468357395381,0,0,2288079.58178676,2288080.62887749,2,0,79,0,8
14,153,513.872576877475,0,0,2288082.15833817,2288083.20547317,2,0,78,8,8
14,154,576.446826104075,1,0,2288084.74664629,2288085.79373125,2,1,76,8,16
14,155,624.473785981536,1,0,2288087.48789516,2288088.53498551,2,1,97,0,16
14,156,554.200317244977,0,0,2288090.18209796,2288091.22918023,2,0,95,4,16
14,157,655.069327913225,0,0,2288092.84099753,2288093.88808018,2,0,100,16,8
14,158,729.643580503762,0,0,2288095.72343314,2288096.77051849,2,0,71,4,0
14,159,580.631352029741,1,0,2288098.67645674,2288099.72354748,2,1,79,8,8
14,160,570.740164723247,0,0,2288101.38241817,2288102.42951044,2,0,97,0,0
14,161,1001.96688901633,0,0,2288121.18299376,2288122.23007564,3,0,93,0,16
14,162,856.298431288451,1,0,2288124.41837853,2288125.46546734,3,1,81,4,16
14,163,585.317096672952,0,0,2288127.37140328,2288128.4184867,3,0,97,16,4
14,164,506.339660845697,1,0,2288130.17148459,2288131.21857609,3,1,80,16,4
14,165,640.433882363141,0,0,2288132.87744255,2288133.92452866,3,0,93,0,8
14,166,576.480702497065,0,0,2288135.73635359,2288136.78344009,3,0,63,8,8
14,167,412.378774490207,0,1,2288138.38348143,2288139.43057101,3,1,62,4,0
14,168,569.791621062905,0,0,2288140.92474078,2288141.97187617,3,0,81,0,4
14,169,521.035930607468,0,0,2288143.63069566,2288144.67778409,3,0,65,16,4
14,170,541.331842076033,0,0,2288146.34841495,2288147.39550453,3,0,70,0,0
14,171,763.502052053809,1,0,2288149.06615003,2288150.11323191,3,1,95,0,4
14,172,417.934145778418,1,0,2288152.04276557,2288153.08979125,3,1,86,0,4
14,173,724.680278915912,0,0,2288154.68984183,2288155.73692218,3,0,79,16,8
14,174,711.320208385587,1,0,2288157.57226744,2288158.61935702,3,1,61,4,0
14,175,649.975909851491,0,0,2288160.51353626,2288161.56068089,3,0,92,8,4
14,176,714.98003276065,1,0,2288163.37244268,2288164.41952918,3,1,77,4,16
14,177,461.262656841427,0,0,2288166.2431085,2288167.29019423,3,0,96,8,0
14,178,532.92698925361,0,0,2288168.93731129,2288169.98439779,3,0,77,16,8
14,179,604.769559111446,0,0,2288171.57272016,2288172.61976508,3,0,65,16,8
14,180,516.098421066999,1,0,2288174.24334602,2288175.29043252,3,1,95,0,4
14,181,816.11967086792,1,0,2288176.85517756,2288177.90226984,3,1,62,16,16
14,182,640.893140807748,0,0,2288179.85526456,2288180.90235799,3,0,81,16,4
14,183,529.430389404297,0,0,2288182.63182321,2288183.6789024,3,0,67,0,16
14,184,681.084219831973,0,0,2288185.31424928,2288186.36134425,3,0,96,4,8
14,185,557.01707676053,1,0,2288188.06726872,2288189.11441066,3,1,76,4,8
14,186,675.92150811106,1,0,2288190.72617445,2288191.77326095,3,1,96,16,16
14,187,477.487991563976,0,0,2288193.50271924,2288194.54980382,3,0,74,16,16
14,188,540.143082849681,1,0,2288196.19691472,2288197.24400623,3,1,77,16,0
14,189,609.203154221177,0,0,2288198.80875974,2288199.85585894,3,0,84,0,0
14,190,554.197237361223,0,0,2288201.56178072,2288202.60886414,3,0,71,8,16
14,191,412.522364873439,1,0,2288204.37362605,2288205.420706,3,1,85,8,16
14,192,581.614927388728,0,0,2288206.89134272,2288207.93843307,3,0,76,8,0
14,193,537.27820282802,1,0,2288209.63259467,2288210.67967925,3,1,99,0,16
14,194,590.902880299836,0,0,2288212.25620371,2288213.30329984,3,0,73,8,16
14,195,477.652369998395,0,0,2288215.00927821,2288216.05631043,3,0,68,0,4
14,196,627.894933801144,1,0,2288217.67988867,2288218.72697825,3,1,99,0,0
14,197,734.128760639578,0,1,2288220.4446756,2288221.49175902,3,1,92,16,0
14,198,1064.73477371037,1,0,2288223.37420041,2288224.42126112,3,1,86,8,16
14,199,746.247331611812,1,0,2288226.51543835,2288227.56252139,3,1,99,8,16
14,200,525.355577468872,1,0,2288229.32728868,2288230.37437133,3,1,71,0,16
14,201,684.085760265589,0,0,2288231.91560027,2288232.96268061,3,0,66,16,8
14,202,564.209687057883,1,0,2288234.77450322,2288235.8215851,3,1,100,4,16
14,203,513.436416164041,1,0,2288237.44516835,2288238.49224984,3,1,79,0,8
14,204,710.948721505702,0,0,2288240.06876969,2288241.11591432,3,0,100,8,0
14,205,615.284382831305,0,0,2288242.93944244,2288243.98652701,3,0,84,8,8
14,206,703.638312872499,1,0,2288245.77486046,2288246.82196429,3,1,61,0,8
14,207,568.588618189096,0,0,2288248.56314002,2288249.61022344,3,0,73,0,0
14,208,730.891623999923,1,0,2288251.38679556,2288252.43389823,3,1,100,0,8
14,209,464.410867542028,1,0,2288254.36330563,2288255.41038597,3,1,85,4,0
14,210,595.118202734739,0,0,2288256.90454881,2288257.95163993,3,0,92,8,4
14,211,700.352285988629,1,0,2288259.63404521,2288260.68112978,3,1,98,8,8
14,212,600.388317834586,0,0,2288262.38706157,2288263.4341473,3,0,82,16,0
14,213,703.861590009183,0,0,2288265.16361829,2288266.21070672,3,0,79,8,0
14,214,523.753369692713,1,0,2288268.01076031,2288269.05784103,3,1,83,4,4
14,215,712.982470169663,1,0,2288270.58730556,2288271.63438628,3,1,91,4,4
14,216,815.001359209418,0,0,2288273.54033031,2288274.58741065,3,0,79,16,0
14,217,613.287975080311,1,0,2288276.50512255,2288277.5522079,3,1,91,16,16
14,218,642.401417717338,0,0,2288279.26990563,2288280.3169929,3,0,100,4,4
14,219,666.398729197681,0,0,2288282.02293162,2288283.07001003,3,0,73,4,0
14,220,477.235842496157,0,0,2288284.91713395,2288285.96421237,3,0,98,4,4
14,221,542.007833719254,0,1,2288287.56426449,2288288.61135022,3,1,85,4,16
14,222,458.434348925948,1,0,2288290.19963332,2288291.24672328,3,1,95,16,0
14,223,565.574758686125,0,0,2288292.81147756,2288293.85855867,3,0,97,8,4
14,224,632.029414642602,1,0,2288295.58801658,2288296.63511386,3,1,82,8,4
14,225,449.962898157537,0,1,2288298.43515936,2288299.48231477,3,1,98,8,4
14,226,654.555790126324,1,0,2288301.07053781,2288302.11762123,3,1,67,4,4
14,227,461.093273945153,1,0,2288303.90591118,2288304.95299614,3,1,67,16,8
14,228,656.593388877809,0,0,2288306.43539804,2288307.48248531,3,0,61,4,8
14,229,579.723998438567,0,0,2288309.24724067,2288310.2943264,3,0,82,8,8
14,230,591.894539538771,0,0,2288312.01202721,2288313.0591191,3,0,73,16,4
14,231,507.063772063702,0,0,2288314.71798633,2288315.76507437,3,0,79,4,0
14,232,458.24533328414,0,1,2288317.48277749,2288318.52986014,3,1,89,0,8
14,233,535.33415030688,0,0,2288320.09464676,2288321.14170786,3,0,68,4,8
14,234,663.631244562566,1,0,2288322.82410467,2288323.87119194,3,1,73,4,8
14,235,571.781484410167,1,0,2288325.73007256,2288326.77717831,3,1,63,0,0
14,236,604.469289071858,1,0,2288328.37721003,2288329.42428999,3,1,84,16,16
14,237,552.838710136712,0,0,2288331.14201197,2288332.18908192,3,0,92,0,16
14,238,487.912734039128,0,0,2288333.90678196,2288334.95386885,3,0,96,8,0
14,239,735.93961680308,1,0,2288336.61273685,2288337.6598245,3,1,92,4,16
14,240,556.05698376894,1,0,2288339.57753717,2288340.62462367,3,1,94,8,8
14,241,514.116642065346,0,0,2288353.89559192,2288354.94268265,4,0,63,0,0
14,242,441.010630689561,0,0,2288356.49567407,2288357.5427548,4,0,64,4,16
14,243,438.397130463272,1,0,2288359.07221085,2288360.11930236,4,1,77,0,8
14,244,553.437324240804,0,0,2288361.57817043,2288362.62525693,4,0,83,16,4
14,245,520.465803332627,0,0,2288364.34295274,2288365.39004232,4,0,94,16,8
14,246,535.433085635304,1,0,2288366.99008867,2288368.03717594,4,1,88,16,16
14,247,543.954581022263,0,0,2288369.77840865,2288370.82549861,4,0,79,16,0
14,248,453.531100880355,0,0,2288372.55496383,2288373.60203955,4,0,73,0,4
14,249,616.360348649323,1,0,2288375.249157,2288376.29624004,4,1,78,4,16
14,250,930.626693647355,1,0,2288378.08455039,2288379.13166307,4,1,97,16,16
14,251,594.736706465483,0,0,2288381.14345904,2288382.19052745,4,0,93,8,16
14,252,560.902102850378,1,0,2288383.89649966,2288384.9435569,4,1,77,4,4
14,253,509.098290931433,1,0,2288386.70831611,2288387.75539915,4,1,97,0,0
14,254,572.269999887794,0,0,2288389.43779827,2288390.48488207,4,0,71,0,16
14,255,605.980645865202,0,0,2288392.21440581,2288393.26144727,4,0,63,16,0
14,256,585.25203820318,0,0,2288394.8967749,2288395.94386987,4,0,68,0,0
14,257,564.757486339659,0,0,2288397.61450536,2288398.66159301,4,0,74,8,16
14,258,535.396898631006,1,0,2288400.41458782,2288401.46168202,4,1,89,8,4
14,259,557.613765820861,0,0,2288403.02642976,2288404.07351395,4,0,97,4,4
14,260,703.758420888335,1,0,2288405.7441529,2288406.79126596,4,1,63,4,8
14,261,527.207624632865,1,0,2288408.52071039,2288409.56779304,4,1,65,0,16
14,262,568.440793082118,1,0,2288411.2737256,2288412.32080825,4,1,61,4,0
14,263,600.143482908607,0,0,2288414.02674427,2288415.07382961,4,0,71,16,8
14,264,540.298606734723,0,0,2288416.7915312,2288417.83861654,4,0,76,8,4
14,265,635.411681141704,1,0,2288419.43866405,2288420.48575555,4,1,99,0,0
14,266,509.947129990906,1,0,2288422.17992101,2288423.2270129,4,1,95,4,16
14,267,682.568244636059,1,0,2288424.92120761,2288425.96826754,4,1,84,4,8
14,268,609.742869623005,1,0,2288427.73305986,2288428.78016522,4,1,92,0,16
14,269,518.177595455199,1,0,2288430.46251623,2288431.50960812,4,1,85,8,8
14,270,605.377797037363,1,0,2288433.16848266,2288434.21556493,4,1,100,0,8
14,271,605.601459741592,0,0,2288435.94509251,2288436.99212127,4,0,82,0,8
14,272,654.606989584863,1,0,2288438.68628749,2288439.73336822,4,1,75,8,4
14,273,530.481717549264,1,0,2288441.43930886,2288442.48638573,4,1,91,4,4
14,274,550.960870925337,1,0,2288444.16879602,2288445.21588983,4,1,97,16,8
14,275,523.653665091842,1,0,2288446.80416369,2288447.8512525,4,1,63,16,4
14,276,477.74052573368,0,0,2288449.47483613,2288450.52195766,4,0,97,4,0
14,277,423.541102558374,1,0,2288452.11020612,2288453.15728915,4,1,78,8,0
14,278,465.647362638265,0,0,2288454.62792779,2288455.67501352,4,0,86,0,16
14,279,503.83048504591,0,0,2288457.23976242,2288458.28687817,4,0,86,16,16
14,280,556.976270396262,0,0,2288459.89866891,2288460.94575811,4,0,82,8,4
14,281,489.793653599918,1,0,2288462.59285362,2288463.63994396,4,1,97,0,4
14,282,321.4968056418,1,0,2288465.14588045,2288466.19296233,4,1,76,0,8
14,283,309.056792408228,0,0,2288467.58123819,2288468.62832815,4,0,95,8,8
14,284,349.001111462712,0,0,2288470.12249176,2288471.16957518,4,0,72,8,8
14,285,380.526334512979,1,1,2288472.69904048,2288473.74611966,4,0,90,4,4
14,286,546.417945995927,1,0,2288475.29911146,2288476.34619411,4,1,83,4,8
14,287,457.879620138556,1,0,2288478.08742336,2288479.1345522,4,1,67,0,16
14,288,588.08034658432,1,0,2288480.75808694,2288481.80518268,4,1,84,16,4
14,289,560.996802989393,0,0,2288483.54640846,2288484.59350381,4,0,68,4,4
14,290,665.665378794074,1,0,2288486.34649515,2288487.39357703,4,1,98,16,0
14,291,627.944593783468,0,0,2288489.21715558,2288490.26424978,4,0,70,16,16
14,292,495.206974446774,1,0,2288491.93489412,2288492.98197754,4,1,82,8,8
14,293,753.121964633465,1,0,2288494.67613838,2288495.72323489,4,1,66,16,16
14,294,501.875653397292,0,0,2288497.52328655,2288498.57037536,4,0,64,16,4
14,295,438.892575446516,1,0,2288500.18218304,2288501.22932844,4,1,84,0,4
14,296,545.407423749566,0,0,2288502.86461796,2288503.91170138,4,0,71,8,4
14,297,507.904142141342,0,0,2288505.58240847,2288506.62942491,4,0,100,16,8
14,298,426.901041530073,0,0,2288508.25301008,2288509.30012892,4,0,95,4,0
14,299,518.984473310411,0,1,2288510.91190695,2288511.95899383,4,1,92,16,0
14,300,481.815722770989,0,0,2288513.65321703,2288514.70031585,4,0,96,8,0
14,301,470.939420629293,0,0,2288516.26500354,2288517.3120935,4,0,79,8,0
14,302,524.494034703821,0,0,2288518.99449647,2288520.04157835,4,0,97,4,16
14,303,599.57643551752,0,0,2288521.65339104,2288522.70047831,4,0,67,16,0
14,304,521.841653622687,0,0,2288524.32405924,2288525.37115421,4,0,67,8,8
14,305,803.582646884024,1,0,2288527.01825242,2288528.06535008,4,1,71,16,4
14,306,674.042128957808,1,0,2288530.04187054,2288531.08902518,4,1,84,4,16
14,307,806.025994475931,1,0,2288532.90077542,2288533.94787231,4,1,79,8,16
14,308,712.025842163712,0,0,2288535.80674793,2288536.85383713,4,0,75,0,4
14,309,720.955396536738,1,0,2288538.60682385,2288539.65396424,4,1,67,4,8
14,310,837.06270204857,0,0,2288541.41867379,2288542.46575683,4,0,97,8,16
14,311,624.908791389316,1,0,2288544.35994646,2288545.4070268,4,1,65,0,4
14,312,647.669223602861,0,0,2288547.06589865,2288548.11299516,4,0,100,0,0
14,313,555.371752940118,1,0,2288549.94833157,2288550.99541807,4,1,98,0,8
14,314,619.376132730395,1,0,2288552.56017197,2288553.60725847,4,1,84,4,0
14,315,822.213217616081,0,0,2288555.30142508,2288556.34851658,4,0,100,4,0
14,316,916.570228990167,1,0,2288558.38389565,2288559.43096329,4,1,92,8,0
14,317,779.539525508881,0,0,2288561.38396417,2288562.43104297,4,0,61,4,8
14,318,691.518971696496,0,0,2288564.24286597,2288565.28995671,4,0,100,16,8
14,319,440.660316497087,1,0,2288567.10180203,2288568.14885658,4,1,84,8,0
14,320,673.831170424819,0,0,2288569.66655401,2288570.7136509,4,0,65,8,16
14,321,601.622502785176,0,0,2288583.89051582,2288584.93763505,5,0,78,16,8
14,322,585.514966864139,0,0,2288586.57292727,2288587.62001415,5,0,92,4,0
14,323,454.368775710464,1,0,2288589.38477452,2288590.43185871,5,1,86,8,4
14,324,571.528180036694,1,0,2288591.93779096,2288592.98487746,5,1,70,16,0
14,325,437.228774186224,1,0,2288594.73787457,2288595.78495337,5,1,65,8,16
14,326,467.628756538033,1,0,2288597.30264733,2288598.34973883,5,1,62,16,0
14,327,577.668691985309,1,0,2288599.96155421,2288601.00863802,5,1,61,16,8
14,328,682.462764903903,1,0,2288602.66751179,2288603.71460137,5,1,80,4,4
14,329,1007.0741660893,1,0,2288605.54994856,2288606.59703275,5,1,96,4,16
14,330,552.187741268426,0,0,2288608.76180297,2288609.80889448,5,0,74,0,0
14,331,483.482218813151,0,0,2288611.43247272,2288612.47955652,5,0,84,0,16
14,332,666.118477471173,0,0,2288614.02078161,2288615.06786541,5,0,79,4,4
14,333,452.45359512046,0,0,2288616.84439173,2288617.89147746,5,0,67,0,16
14,334,644.224592950195,1,0,2288619.432701,2288620.4797875,5,1,84,8,8
14,335,631.417711731046,1,0,2288622.15043492,2288623.19752027,5,1,94,8,0
14,336,723.665906582028,1,0,2288624.96228025,2288626.00936097,5,1,99,4,8
14,337,525.202747434378,0,0,2288627.9035379,2288628.95062786,5,0,86,4,8
14,338,553.952017333359,0,0,2288630.49185449,2288631.53893829,5,0,67,0,4
14,339,653.652671724558,0,0,2288633.18604265,2288634.23314186,5,0,91,4,0
14,340,555.881056934595,0,0,2288635.90376657,2288636.95085999,5,0,79,16,4
14,341,793.457019142807,1,0,2288638.52737638,2288639.57446595,5,1,92,16,16
14,342,658.274898305535,1,0,2288641.52746761,2288642.57454988,5,1,96,8,4
14,343,901.746152434498,1,0,2288644.31578104,2288645.36291297,5,1,78,16,4
14,344,525.852947030216,0,0,2288647.41001217,2288648.45707134,5,0,66,4,0
14,345,746.451361104846,0,0,2288650.01006314,2288651.05715195,5,0,98,4,16
14,346,589.563601184636,0,0,2288652.86896686,2288653.91605798,5,0,84,16,0
14,347,495.806358754635,0,0,2288655.63379845,2288656.68084992,5,0,85,0,16
14,348,672.923817299306,0,0,2288658.18677447,2288659.23385519,5,0,69,8,8
14,349,750.841070432216,1,0,2288660.99861594,2288662.04575172,5,1,92,16,8
14,350,635.119881015271,1,0,2288663.81046781,2288664.85755316,5,1,87,0,0
14,351,576.387542299926,0,0,2288666.52818749,2288667.57527168,5,0,80,8,8
14,352,605.049810372293,0,1,2288669.32826995,2288670.3753603,5,1,98,0,4
14,353,820.975953247398,0,0,2288672.02246851,2288673.06962007,5,0,72,8,0
14,354,590.897105634212,0,0,2288674.92842793,2288675.97558681,5,0,83,8,0
14,355,740.324322134256,1,0,2288677.70510977,2288678.75207,5,1,100,8,16
14,356,659.525251016021,0,0,2288680.61095101,2288681.65804252,5,0,96,16,4
14,357,674.126050435007,0,0,2288683.39926676,2288684.44635249,5,0,79,8,4
14,358,511.779543943703,1,0,2288686.24640954,2288687.29349796,5,1,66,4,0
14,359,501.339402981102,1,0,2288688.87001126,2288689.91709853,5,1,76,16,16
14,360,723.201643675566,1,0,2288691.47010727,2288692.51717837,5,1,99,0,0
14,361,583.080088719726,1,0,2288694.32900022,2288695.37607979,5,1,72,0,4
14,362,514.346463605762,1,0,2288697.09378137,2288698.14087326,5,1,100,0,8
14,363,550.942777190357,1,0,2288699.82327508,2288700.87036158,5,1,92,16,16
14,364,597.8425713256,0,0,2288702.47048338,2288703.51749943,5,0,75,4,0
14,365,496.798403095454,0,0,2288705.23520178,2288706.28230676,5,0,99,0,8
14,366,656.275025568902,1,0,2288707.96468702,2288709.01177853,5,1,64,4,4
14,367,455.719604156911,0,0,2288710.78830368,2288711.8353871,5,0,64,16,4
14,368,509.224173612893,0,0,2288713.47072783,2288714.5178151,5,0,65,0,16
14,369,551.386637147516,1,0,2288716.23551437,2288717.28260318,5,1,74,4,16
14,370,547.093167901039,1,0,2288718.96501116,2288720.01209958,5,1,96,8,16
14,371,880.022420082241,0,0,2288721.71802868,2288722.76514944,5,0,61,8,16
14,372,595.664847176522,0,0,2288724.76523682,2288725.81226134,5,0,93,4,8
14,373,578.233430162072,0,0,2288727.58878843,2288728.63587146,5,0,97,4,8
14,374,521.647633053362,0,0,2288730.22415687,2288731.27124722,5,0,92,0,4
14,375,584.501749370247,1,0,2288732.82423402,2288733.87132013,5,1,63,0,8
14,376,447.174240835011,0,0,2288735.61255014,2288736.65963741,5,0,74,4,8
14,377,429.452947806567,0,0,2288738.27145471,2288739.31853351,5,0,95,4,4
14,378,457.913111895323,1,0,2288740.81270405,2288741.85978516,5,1,82,0,16
14,379,572.639562189579,0,0,2288743.34218513,2288744.38927163,5,0,89,4,16
14,380,515.70653077215,0,0,2288746.14226951,2288747.1893564,5,0,92,4,4
14,381,566.33621128276,1,0,2288748.84822632,2288749.89532052,5,1,64,8,0
14,382,477.847159840167,1,0,2288751.53065894,2288752.57774852,5,1,95,8,16
14,383,527.642630040646,1,0,2288754.11897245,2288755.16605933,5,1,100,16,16
14,384,527.948674745858,1,0,2288756.74257456,2288757.78966568,5,1,70,16,0
14,385,533.786222338676,0,0,2288759.48383691,2288760.53091609,5,0,68,8,4
14,386,520.55934863165,1,0,2288762.2368498,2288763.28393669,5,1,68,16,8
14,387,652.208298444748,0,0,2288764.87222209,2288765.91931437,5,0,62,0,8
14,388,646.851951256394,1,0,2288767.61348406,2288768.66057017,5,1,87,16,0
14,389,513.08918138966,1,0,2288770.51945157,2288771.56653768,5,1,69,0,0
14,390,588.340194895864,0,0,2288773.09599336,2288774.14307986,5,0,87,16,4
14,391,460.794544778764,1,1,2288775.91961425,2288776.96669921,5,0,80,16,16
14,392,591.718997340649,1,0,2288778.53144118,2288779.57860929,5,1,68,8,4
14,393,399.670057930052,1,0,2288781.22569017,2288782.27272624,5,1,86,0,0
14,394,556.128586642444,0,0,2288783.7080682,2288784.755152,5,0,94,8,0
14,395,489.272801205516,1,0,2288786.31991129,2288787.36699317,5,1,67,0,8
14,396,674.404377583414,1,0,2288788.93174206,2288789.97883857,5,1,63,0,4
14,397,490.895026829094,1,0,2288791.75536642,2288792.80245793,5,1,67,4,16
14,398,591.431816574186,0,0,2288794.34366569,2288795.39075335,5,0,79,8,8
14,399,496.172071900219,0,0,2288797.02610254,2288798.07319135,5,0,66,8,8
14,400,570.104979444295,0,0,2288799.7791189,2288800.82620694,5,0,85,16,8
14,401,578.107547480613,1,0,2288824.33277707,2288825.37986395,6,1,68,8,0
14,402,591.265513096005,0,0,2288827.14462932,2288828.19171236,6,0,68,16,16
14,403,565.634427592158,1,0,2288829.81528868,2288830.86238134,6,1,65,0,0
14,404,608.778157271445,1,0,2288832.48595381,2288833.53304185,6,1,73,4,8
14,405,460.636710282415,1,0,2288835.27427417,2288836.3213599,6,1,74,8,8
14,406,524.5067384094,0,0,2288837.87434823,2288838.92143358,6,0,71,8,8
14,407,658.2937608473,1,0,2288840.61560173,2288841.66268823,6,1,81,8,16
14,408,807.938865851611,0,0,2288843.41569112,2288844.46276992,6,0,91,8,16
14,409,416.13368364051,1,0,2288846.3334188,2288847.38050799,6,1,83,4,16
14,410,646.488163154572,0,0,2288848.94525458,2288849.992343,6,0,100,4,4
14,411,522.859490476549,0,0,2288851.76887663,2288852.81597968,6,0,88,0,4
14,412,482.166807167232,0,0,2288854.49835994,2288855.54544606,6,0,79,0,0
14,413,952.653005253524,0,0,2288857.074941,2288858.12199093,6,0,90,8,16
14,414,539.338514208794,0,0,2288860.15734882,2288861.20443532,6,0,95,8,4
14,415,819.77756973356,1,0,2288862.94566533,2288863.99276184,6,1,91,16,16
14,416,531.864881981164,1,0,2288865.95751674,2288867.00461055,6,1,95,8,16
14,417,475.520456209779,0,0,2288868.7458371,2288869.79292514,6,0,87,8,8
14,418,626.067908946425,1,0,2288871.42826779,2288872.47535391,6,1,79,8,4
14,419,474.625421687961,1,0,2288874.1577742,2288875.20484607,6,1,83,0,0
14,420,450.865631457418,0,0,2288876.81666684,2288877.8637414,6,0,76,0,4
14,421,410.138301551342,0,0,2288879.48732542,2288880.53440538,6,0,87,0,4
14,422,441.794411279261,0,0,2288882.12269925,2288883.16978152,6,0,97,0,8
14,423,422.74500336498,0,0,2288884.64041477,2288885.68753553,6,0,87,4,8
14,424,479.921329766512,0,1,2288887.25225594,2288888.29934591,6,1,70,8,16
14,425,605.731576215476,1,0,2288889.7935099,2288890.84060564,6,1,73,16,4
14,426,468.620031140745,0,0,2288892.49946632,2288893.54657861,6,0,89,0,4
14,427,715.239881072193,0,0,2288895.18189547,2288896.22898351,6,0,93,16,0
14,428,683.623422402889,1,0,2288898.05257015,2288899.09965819,6,1,86,16,16
14,429,577.015413437039,0,0,2288900.82912071,2288901.8762099,6,0,99,16,8
14,430,693.873392883688,1,0,2288903.58213938,2288904.6292255,6,1,81,4,0
14,431,582.216620910913,0,0,2288906.45281406,2288907.4998994,6,0,90,4,16
14,432,678.039563819766,1,0,2288909.28819397,2288910.33528894,6,1,70,8,8
14,433,644.224977586418,1,0,2288912.05298013,2288913.10006509,6,1,94,16,4
14,434,913.886666297913,0,0,2288914.84129664,2288915.88837852,6,0,68,16,8
14,435,578.483270015568,1,0,2288917.88844127,2288918.93552892,6,1,66,16,0
14,436,452.38237734884,1,0,2288920.62969515,2288921.67677895,6,1,96,0,4
14,437,471.987669356167,1,0,2288923.32389333,2288924.37097405,6,1,88,4,16
14,438,673.6229066737,0,0,2288925.90044127,2288926.947527,6,0,91,0,16
14,439,512.512124609202,1,0,2288928.75933961,2288929.80643073,6,1,66,4,0
14,440,508.289487566799,0,0,2288931.45354856,2288932.50062197,6,0,78,0,16
14,441,532.526629976928,0,0,2288934.07717993,2288935.1242364,6,0,87,16,0
14,442,592.09086978808,0,0,2288936.75957713,2288937.80666363,6,0,65,0,0
14,443,1009.36891837046,0,0,2288939.52436136,2288940.57145056,6,0,92,8,0
14,444,633.570028003305,1,0,2288942.58327001,2288943.63036575,6,1,83,8,8
14,445,570.774041116238,0,0,2288945.34806618,2288946.39515229,6,0,68,4,4
14,446,709.39925359562,1,0,2288948.08932429,2288949.13640309,6,1,67,16,8
14,447,907.888589892536,1,0,2288950.92469728,2288951.97178108,6,1,91,0,16
14,448,846.388766076416,1,0,2288953.94831425,2288954.99539844,6,1,97,4,8
14,449,758.984535001218,0,0,2288956.99546234,2288958.04255038,6,0,67,16,8
14,450,526.904659811407,0,0,2288959.98380149,2288961.03091571,6,0,85,8,4
14,451,726.955013349652,0,0,2288962.5956211,2288963.64275726,6,0,100,4,0
14,452,653.119885828346,1,0,2288965.40747605,2288966.45455562,6,1,71,0,8
14,453,603.399482555687,0,0,2288968.1840193,2288969.23110542,6,0,93,4,8
14,454,599.994503427297,0,0,2288971.01940114,2288972.06648533,6,0,69,8,0
14,455,797.657713294029,1,0,2288973.70183568,2288974.74891756,6,1,80,8,4
14,456,804.483070969582,0,0,2288976.54897422,2288977.59605187,6,0,80,4,0
14,457,699.172380845994,0,0,2288979.59611654,2288980.64319958,6,0,66,16,16
14,458,671.114115975797,0,0,2288982.44326202,2288983.49034236,6,0,74,16,8
14,459,854.492964223027,1,0,2288985.17275072,2288986.2198403,6,1,74,8,0
14,460,955.940186511725,0,0,2288988.14930853,2288989.19639349,6,0,82,16,4
14,461,550.060062203556,1,0,2288991.20822565,2288992.25530945,6,1,76,4,4
14,462,553.362642414868,0,0,2288993.98477198,2288995.03185501,6,0,94,4,4
14,463,719.042525626719,0,0,2288996.76132216,2288997.80842213,6,0,72,16,16
14,464,671.760465484113,1,0,2288999.56141116,2289000.6085223,6,1,80,0,16
14,465,559.694094583392,1,0,2289002.36148207,2289003.40857665,6,1,68,4,0
14,466,726.656283251941,0,0,2289005.02039395,2289006.0674766,6,0,69,0,16
14,467,946.954812854528,1,0,2289007.89106362,2289008.93814858,6,1,81,0,8
14,468,603.569635655731,1,0,2289011.06762096,2289012.11470515,6,1,73,0,8
14,469,896.606538444757,1,0,2289013.72652476,2289014.77361473,6,1,64,16,4
14,470,786.761393304914,0,0,2289016.84426122,2289017.89135619,6,0,94,4,4
14,471,647.922142874449,1,0,2289019.76198737,2289020.80907887,6,1,72,0,0
14,472,707.760474644601,1,0,2289022.60919097,2289023.65628748,6,1,84,16,0
14,473,599.181080702692,0,0,2289025.38567956,2289026.43277068,6,0,64,0,8
14,474,816.590478178114,0,0,2289028.20929584,2289029.2563858,6,0,100,4,16
14,475,511.440008878708,1,0,2289031.25644701,2289032.30352851,6,1,87,16,0
14,476,1281.25029196963,1,0,2289033.90357601,2289034.95066559,6,1,97,16,4
14,477,661.122454330325,1,0,2289037.30368287,2289038.3507663,6,1,83,8,4
14,478,577.140910550952,1,0,2289040.16258621,2289041.20967656,6,1,93,8,0
14,479,718.109765090048,0,0,2289042.82148924,2289043.86857844,6,0,62,4,16
14,480,778.631787747145,1,0,2289045.75099519,2289046.79807168,6,1,62,4,8
14,481,921.139716170728,0,0,2289067.41043794,2289068.45752136,7,0,78,0,4
14,482,504.908760543913,1,0,2289070.56346993,2289071.6105572,7,1,62,16,8
14,483,427.507739979774,0,0,2289073.14001441,2289074.18710515,7,0,74,4,0
14,484,683.329697232693,1,0,2289075.78715458,2289076.83424262,7,1,98,4,16
14,485,691.773045808077,0,0,2289078.71665668,2289079.76373933,7,0,91,16,16
14,486,876.102747861296,0,0,2289081.64615069,2289082.69323373,7,0,88,8,16
14,487,539.994872640818,0,0,2289084.74035718,2289085.78743868,7,0,80,0,16
14,488,604.286817833781,1,0,2289087.36396199,2289088.41104464,7,1,70,4,0
14,489,638.74929305166,0,0,2289090.04639306,2289091.09350304,7,0,61,16,0
14,490,851.900637615472,0,0,2289092.858238,2289093.90532835,7,0,97,0,8
14,491,805.927444715053,1,0,2289095.95244834,2289096.99953099,7,1,81,8,16
14,492,642.775214742869,0,0,2289098.99958604,2289100.04668063,7,0,70,16,4
14,493,644.195720553398,1,0,2289101.74085301,2289102.78793913,7,1,100,0,16
14,494,735.792561899871,1,0,2289104.57622292,2289105.62331134,7,1,62,0,8
14,495,459.018719382584,0,0,2289107.54101593,2289108.58810166,7,0,66,8,0
14,496,566.881701350212,1,0,2289110.18823462,2289111.23524144,7,1,100,8,8
14,497,760.353071149439,1,0,2289113.01176313,2289114.05885117,7,1,80,8,4
14,498,661.991311237216,1,0,2289116.00008765,2289117.04717954,7,1,80,16,16
14,499,734.391688834876,0,0,2289118.823702,2289119.87078965,7,0,72,4,8
14,500,603.546152822673,0,0,2289121.64730634,2289122.69439785,7,0,70,0,16
14,501,657.362540252507,1,0,2289124.38856484,2289125.43565673,7,1,64,8,8
14,502,871.28226691857,1,0,2289127.2945285,2289128.34162193,7,1,100,4,0
14,503,478.078136686236,1,0,2289130.34168738,2289131.38877041,7,1,77,4,4
14,504,650.776628404856,0,0,2289132.91822878,2289133.96531297,7,0,100,8,4
14,505,708.847219590098,1,0,2289135.78889768,2289136.83604231,7,1,64,4,4
14,506,182.263355236501,1,0,2289138.56544824,2289139.61253782,7,1,78,0,8
14,507,502.657124307007,1,0,2289140.9890793,2289142.03613809,7,1,73,16,8
14,508,561.968444380909,1,0,2289143.61265485,2289144.65974366,7,1,85,16,4
14,509,466.492736712098,1,0,2289146.28332614,2289147.33040879,7,1,78,0,0
14,510,757.651030085981,0,0,2289148.84809659,2289149.89519041,7,0,66,4,16
14,511,707.843241281807,1,0,2289151.66001275,2289152.7070392,7,1,82,4,8
14,512,1047.4839033559,0,0,2289154.60121112,2289155.6483007,7,0,81,0,0
14,513,587.666128296405,0,0,2289157.81307323,2289158.86016127,7,0,87,4,4
14,514,904.575231019408,0,0,2289160.6249097,2289161.67200005,7,0,63,8,16
14,515,762.449568603188,0,0,2289163.61324076,2289164.66032649,7,0,81,8,4
14,516,519.22006951645,0,1,2289166.50744194,2289167.55452536,7,1,83,8,8
14,517,572.006686590612,0,0,2289169.26046292,2289170.30754942,7,0,63,4,0
14,518,523.697935510427,0,0,2289171.94288899,2289172.98998204,7,0,84,16,8
14,519,702.943458221853,1,0,2289174.66066911,2289175.70771095,7,1,94,0,0
14,520,514.559347182512,0,0,2289177.5077603,2289178.55484565,7,0,72,8,16
14,521,510.21429290995,1,0,2289180.19018945,2289181.23727326,7,1,61,0,0
14,522,491.087122354656,0,0,2289182.88438609,2289183.93147452,7,0,84,4,4
14,523,606.214317493141,1,0,2289185.49622803,2289186.54330952,7,1,66,4,16
14,524,693.342916667461,0,1,2289188.21395694,2289189.26103613,7,1,91,16,4
14,525,848.805936053395,0,0,2289191.09638871,2289192.14350562,7,0,89,16,0
14,526,573.116144165397,1,0,2289194.16706908,2289195.21415597,7,1,97,0,8
14,527,772.952073253691,1,0,2289196.86126264,2289197.9083553,7,1,81,4,16
14,528,526.249071583152,1,0,2289199.87311366,2289200.92020632,7,1,62,0,4
14,529,664.380763657391,0,0,2289202.63790521,2289203.68498671,7,0,83,4,16
14,530,619.590555783361,0,0,2289205.35562604,2289206.40271254,7,0,73,8,8
14,531,884.964549448341,1,0,2289208.08512398,2289209.13220663,7,1,70,16,4
14,532,494.090972933918,1,0,2289211.09697193,2289212.14406266,7,1,86,16,16
14,533,578.768525738269,0,0,2289213.73234922,2289214.77942841,7,0,66,4,8
14,534,918.911176733673,1,0,2289216.49713384,2289217.54425422,7,1,95,0,4
14,535,669.580816756934,0,0,2289219.63839604,2289220.68548639,7,0,82,16,4
14,536,677.639589179307,0,0,2289222.39141432,2289223.4385066,7,0,83,16,0
14,537,498.621193226427,0,0,2289225.30917588,2289226.35628895,7,0,68,0,4
14,538,632.516005076468,0,0,2289228.0033525,2289229.05043092,7,0,99,0,16
14,539,745.863140560687,1,0,2289230.81524595,2289231.86227894,7,1,71,16,8
14,540,666.21587285772,0,0,2289233.79175216,2289234.83883982,7,0,94,8,4
14,541,646.370365284383,1,0,2289236.61536729,2289237.66245148,7,1,94,8,0
14,542,738.617790397257,1,0,2289239.33315549,2289240.38017616,7,1,100,0,4
14,543,785.631532780826,1,0,2289242.18023013,2289243.22732009,7,1,90,16,16
14,544,743.813223205507,1,0,2289245.14504855,2289246.19210579,7,1,100,8,8
14,545,657.759435474873,1,0,2289247.95693506,2289249.0039642,7,1,80,0,8
14,546,581.974095664918,1,0,2289250.87459807,2289251.92168688,7,1,69,4,0
14,547,638.239989522845,1,1,2289253.53349764,2289254.58059299,7,0,90,8,0
14,548,581.531775649637,0,0,2289256.26298673,2289257.31007823,7,0,98,8,4
14,549,519.036058336496,1,0,2289258.93366071,2289259.98074759,7,1,89,8,16
14,550,545.68459559232,1,0,2289261.58082474,2289262.62789161,7,1,64,0,16
14,551,671.300436835736,0,0,2289264.20440144,2289265.25148987,7,0,99,16,8
14,552,686.389366630465,0,0,2289267.12213413,2289268.1692164,7,0,78,16,0
14,553,811.753058806062,0,0,2289269.89868624,2289270.94577697,7,0,82,4,8
14,554,619.418093468994,0,0,2289272.82818487,2289273.87526598,7,0,84,16,0
14,555,630.183526314795,0,0,2289275.56943298,2289276.61652448,7,0,77,0,0
14,556,522.620429750532,0,0,2289278.25186944,2289279.29895632,7,0,72,8,0
14,557,583.251011092216,0,0,2289280.93429743,2289281.98138855,7,0,86,8,0
14,558,648.256289307028,1,0,2289283.69908975,2289284.74617702,7,1,77,4,4
14,559,745.84889691323,1,0,2289286.42857614,2289287.47566919,7,1,69,4,8
14,560,1.19966175407171,1,1,2289289.34630575,2289290.39342998,7,0,94,16,16
14,561,2500,-1,-1,2289325.18264191,2289326.22973226,8,0,89,16,16
14,562,553.898122627288,0,0,2289330.41816834,2289331.46524252,8,0,98,8,8
14,563,774.063070770353,0,0,2289333.08876263,2289334.1358476,8,0,90,0,16
14,564,2500,-1,-1,2289336.04179239,2289337.11219796,8,1,91,8,8
14,565,1184.68014709651,0,0,2289341.27703279,2289342.3241216,8,0,91,16,8
14,566,2500,-1,-1,2289344.70065962,2289345.74774689,8,1,94,4,8
14,567,2500,-1,-1,2289349.84242034,2289350.8890803,8,0,90,4,0
14,568,662.700109183788,1,0,2289355.04213569,2289356.08922566,8,1,87,4,16
14,569,495.85794378072,0,0,2289357.889774,2289358.93686897,8,0,96,8,4
14,570,778.14635168761,0,0,2289360.56043875,2289361.60752794,8,0,82,0,16
14,571,694.047779776156,1,0,2289363.54881177,2289364.59585516,8,1,79,4,4
14,572,382.372607011348,0,0,2289366.372373,2289367.41946219,8,0,85,0,8
14,573,403.651409316808,0,0,2289368.86606281,2289369.91315953,8,0,95,0,0
14,574,449.333486612886,0,0,2289371.43134517,2289372.47843398,8,0,73,16,0
14,575,559.846154879779,1,0,2289374.12554181,2289375.17268566,8,1,78,4,0
14,576,509.617688134313,1,0,2289376.84277126,2289377.88985823,8,1,77,8,0
14,577,626.960248220712,1,0,2289379.49040049,2289380.53749084,8,1,87,8,0
14,578,516.002566087991,0,0,2289382.3370427,2289383.38462669,8,0,65,16,8
14,579,414.363333024085,0,0,2289384.99594793,2289386.04303958,8,0,77,0,0
14,580,470.849339850247,1,0,2289387.50239934,2289388.54950008,8,1,99,16,4
14,581,559.080852195621,1,0,2289390.06718057,2289391.11427015,8,1,90,16,16
14,582,511.028185486794,0,0,2289392.73735171,2289393.78444321,8,0,72,4,16
14,583,516.493861097842,1,0,2289395.31445139,2289396.36098692,8,1,69,4,0
14,584,542.169902008027,1,0,2289397.97329167,2289399.02038279,8,1,61,4,8
14,585,698.478295933455,1,0,2289400.6086578,2289401.6557547,8,1,90,8,8
14,586,442.863532807678,1,0,2289403.40825166,2289404.45534701,8,1,83,4,4
14,587,496.987504418939,0,0,2289405.91421264,2289406.96129505,8,0,73,8,8
14,588,384.982642251998,1,1,2289408.59713361,2289409.6442205,8,0,90,0,4
14,589,421.045785304159,1,0,2289411.19720999,2289412.24432959,8,1,77,0,16
14,590,534.993160050362,0,0,2289413.6791433,2289414.72622595,8,0,72,4,4
14,591,521.668506320566,0,0,2289416.31450982,2289417.36160248,8,0,69,8,4
14,592,447.163546923548,0,0,2289419.09161751,2289420.1381515,8,0,90,8,0
14,593,1030.50135076046,1,0,2289421.70340093,2289422.75048666,8,1,61,8,4
14,594,636.714004445821,0,0,2289424.86819348,2289425.91528421,8,0,65,4,16
14,595,530.662264209241,0,0,2289427.66827825,2289428.71535782,8,0,91,0,8
14,596,506.039775907993,1,0,2289430.44482612,2289431.49191416,8,1,75,8,16
14,597,883.243089076132,0,0,2289433.17382044,2289434.22091002,8,0,69,0,8
14,598,567.921480629593,1,1,2289436.15087416,2289437.19796297,8,0,62,4,8
14,599,654.818333219737,0,0,2289438.79806552,2289439.84509236,8,0,76,8,16
14,600,524.147654883564,1,0,2289441.64521485,2289442.69174808,8,1,97,16,0
14,601,822.3688271828,1,0,2289444.36237625,2289445.4094743,8,1,93,16,4
14,602,667.219850700349,1,0,2289447.38649337,2289448.43358603,8,1,71,16,4
14,603,422.676864545792,1,0,2289450.10422344,2289451.15131379,8,1,75,4,4
14,604,531.473846640438,1,0,2289452.77439832,2289453.82148223,8,1,81,0,4
14,605,420.936456415802,0,0,2289455.3749557,2289456.42204297,8,0,85,0,16
14,606,494.038618169725,1,0,2289457.95150634,2289458.99859554,8,1,81,0,8
14,607,518.583429045975,0,0,2289460.65753014,2289461.70406721,8,0,77,8,4
14,608,527.620687615126,0,0,2289463.37519746,2289464.42228203,8,0,88,8,4
14,609,613.579005934298,1,0,2289466.14000825,2289467.18707127,8,1,95,16,4
14,610,661.86705371365,1,0,2289468.98661885,2289470.03371929,8,1,82,16,4
14,611,531.141540501267,0,0,2289471.7754406,2289472.82252633,8,0,64,4,4
14,612,552.905308548361,1,0,2289474.37551313,2289475.42260001,8,1,65,8,0
14,613,553.484374657273,0,0,2289477.08098326,2289478.12807245,8,0,100,16,8
14,614,625.661775004119,0,0,2289479.77567581,2289480.82275115,8,0,91,8,8
14,615,753.068069927394,1,0,2289482.64634048,2289483.69342929,8,1,64,16,0
14,616,525.611961260438,0,0,2289485.48172039,2289486.52880728,8,0,62,16,16
14,617,607.978978659958,1,0,2289488.24600097,2289489.29358419,8,1,75,16,0
14,618,463.81310839206,1,0,2289490.92899691,2289491.97553052,8,1,63,8,16
14,619,582.439983263612,1,0,2289493.56381092,2289494.61089973,8,1,72,16,0
14,620,475.531320087612,0,0,2289496.37621144,2289497.42274968,8,0,76,0,4
14,621,749.949586112052,0,0,2289498.99981933,2289500.04635333,8,0,61,16,8
14,622,717.618640046567,1,0,2289501.94052408,2289502.98761752,8,1,67,8,0
14,623,537.924167700112,0,0,2289504.82344754,2289505.87053443,8,0,88,4,8
14,624,458.911315072328,1,0,2289507.48238753,2289508.5294363,8,1,79,0,4
14,625,491.758194752038,1,0,2289510.10601967,2289511.15255097,8,1,74,4,8
14,626,474.475372117013,1,0,2289512.74083483,2289513.78792557,8,1,89,0,0
14,627,449.04748024419,1,0,2289515.37619631,2289516.42329677,8,1,64,16,16
14,628,629.665369167924,1,0,2289517.98854113,2289519.03563302,8,1,97,4,0
14,629,535.588224418461,0,0,2289520.83568275,2289521.8827681,8,0,74,4,16
14,630,485.167662613094,0,0,2289523.61229414,2289524.65882698,8,0,78,4,16
14,631,530.845505651087,0,0,2289526.22407141,2289527.27120372,8,0,70,16,16
14,632,435.395590029657,1,0,2289528.95356589,2289530.00065162,8,1,88,0,8
14,633,519.034603144974,0,0,2289531.51839524,2289532.56494078,8,0,71,8,16
14,634,616.276427172124,1,0,2289534.10665177,2289535.1537402,8,1,90,0,0
14,635,506.053249817342,0,1,2289536.89496597,2289537.94209713,8,1,72,0,0
14,636,480.131988413632,0,0,2289539.58866253,2289540.63575781,8,0,83,0,4
14,637,494.767819065601,0,0,2289542.16576753,2289543.2123023,8,0,87,0,16
14,638,793.933600652963,1,0,2289544.76578116,2289545.81287151,8,1,81,16,8
14,639,544.677152764052,1,0,2289547.80116716,2289548.84824673,8,1,90,8,16
14,640,750.722521916032,0,0,2289550.5419211,2289551.58900784,8,0,95,4,0
14,641,638.901822734624,1,0,2289564.37761762,2289565.42471067,9,1,77,4,0
14,642,426.213501021266,0,0,2289567.26054954,2289568.30763835,9,0,72,4,8
14,643,576.15310093388,0,0,2289569.76650296,2289570.81359331,9,0,70,16,8
14,644,506.798036862165,1,0,2289572.43723161,2289573.48376272,9,1,84,16,0
14,645,619.819992687553,1,0,2289575.11959878,2289576.16670645,9,1,69,16,8
14,646,438.33476677537,0,0,2289577.84909325,2289578.89617629,9,0,64,0,0
14,647,443.140704650432,0,0,2289580.51925437,2289581.56634781,9,0,67,0,4
14,648,464.374381583184,0,0,2289583.08404524,2289584.13112635,9,0,75,8,16
14,649,486.929629463702,1,0,2289585.70820062,2289586.75473577,9,1,80,4,0
14,650,543.088504113257,1,0,2289588.28418798,2289589.33127756,9,1,98,8,8
14,651,605.169918388128,1,0,2289591.01417414,2289592.06126372,9,1,64,4,0
14,652,446.753863245249,0,0,2289593.84954327,2289594.8966317,9,0,77,4,16
14,653,723.172856960446,1,0,2289596.4020715,2289597.44916069,9,1,71,4,4
14,654,560.266232118011,0,0,2289599.21390911,2289600.26100486,9,0,75,16,4
14,655,683.727061841637,0,0,2289601.83751438,2289602.88460774,9,0,91,8,16
14,656,495.900674257427,0,0,2289604.73221487,2289605.77930445,9,0,76,0,8
14,657,593.388188164681,1,0,2289607.44994071,2289608.49702875,9,1,93,0,16
14,658,596.854076720774,0,0,2289610.16773045,2289611.21426637,9,0,81,0,0
14,659,583.479696884751,0,0,2289612.94372735,2289613.99080506,9,0,76,16,0
14,660,517.009708564729,0,0,2289615.68553643,2289616.7320685,9,0,63,8,0
14,661,488.207999616861,1,0,2289618.46202348,2289619.5091119,9,1,73,0,0
14,662,474.645440001041,0,0,2289621.14445494,2289622.1915476,9,0,76,8,16
14,663,564.266361296177,1,0,2289623.84992122,2289624.89700272,9,1,82,4,4
14,664,607.338403351605,1,0,2289626.53284205,2289627.57993163,9,1,91,0,16
14,665,514.805722050369,0,0,2289629.22703753,2289630.27417408,9,0,89,4,4
14,666,487.743821460754,1,0,2289631.85070547,2289632.89723985,9,1,63,8,4
14,667,484.62371295318,1,0,2289634.49728073,2289635.54437386,9,1,74,0,4
14,668,478.918891400099,0,0,2289637.13314247,2289638.1802309,9,0,86,4,16
14,669,512.440906837583,1,0,2289639.86263734,2289640.90972615,9,1,92,8,8
14,670,599.988813512027,1,0,2289642.52104093,2289643.56813596,9,1,67,4,8
14,671,404.951337259263,1,0,2289645.29808285,2289646.34517243,9,1,86,4,8
14,672,460.898484103382,1,0,2289647.81580722,2289648.86289757,9,1,97,0,4
14,673,520.223362371325,1,0,2289650.46245139,2289651.50954066,9,1,64,0,8
14,674,659.549888689071,1,0,2289653.09831544,2289654.14540079,9,1,90,16,16
14,675,724.32380495593,0,0,2289656.00428295,2289657.05137022,9,0,91,16,16
14,676,564.805691596121,0,0,2289658.79265567,2289659.83918774,9,0,83,0,16
14,677,500.45668752864,1,0,2289661.51031914,2289662.55740756,9,1,93,8,0
14,678,588.50611327216,1,0,2289664.16921216,2289665.21630867,9,1,61,0,0
14,679,849.608279764652,0,0,2289666.86292366,2289667.91001055,9,0,84,8,4
14,680,687.928055413067,1,0,2289669.91056074,2289670.9576484,9,1,61,4,4
14,681,918.997792992741,1,0,2289672.80476615,2289673.85184303,9,1,89,8,4
14,682,626.247300766408,0,0,2289675.88720439,2289676.9342932,9,0,92,0,0
14,683,629.356630612165,0,0,2289678.74610118,2289679.79319731,9,0,98,8,16
14,684,751.815021969378,0,0,2289681.61678202,2289682.66386197,9,0,64,16,4
14,685,491.421268321574,1,0,2289684.49921494,2289685.54630337,9,1,75,16,4
14,686,578.444388695061,1,0,2289687.11105457,2289688.15814261,9,1,71,8,0
14,687,457.764131482691,1,0,2289689.88759859,2289690.93468624,9,1,83,0,8
14,688,652.554463129491,0,0,2289692.54656783,2289693.59310106,9,0,90,0,16
14,689,632.315910421312,1,0,2289695.40491166,2289696.45200632,9,1,92,8,16
14,690,434.267739765346,0,0,2289698.1467212,2289699.19326328,9,0,86,4,16
14,691,516.256639733911,1,0,2289700.68791549,2289701.73500276,9,1,80,16,16
14,692,597.74017194286,0,0,2289703.35858601,2289704.40566173,9,0,92,16,8
14,693,570.816857274622,0,0,2289706.05283923,2289707.09937053,9,0,71,16,8
14,694,546.050393488258,1,0,2289708.75824224,2289709.80532811,9,1,66,16,4
14,695,674.372895155102,1,0,2289711.44067464,2289712.48776188,9,1,91,0,16
14,696,758.587339892983,1,0,2289714.20600904,2289715.25254766,9,1,88,4,0
14,697,522.584713064134,0,0,2289717.09965233,2289718.14674499,9,0,62,8,0
14,698,700.480563100427,0,0,2289719.7585569,2289720.8056407,9,0,70,0,8
14,699,562.022038735449,0,0,2289722.62978215,2289723.67632154,9,0,78,16,4
14,700,673.67842560634,1,0,2289725.38280082,2289726.42933405,9,1,80,16,0
14,701,529.599002096802,1,0,2289728.20634357,2289729.25344162,9,1,86,4,0
14,702,752.025595866144,0,0,2289730.98289991,2289732.02998872,9,0,98,0,8
14,703,916.199896950275,1,0,2289733.94769446,2289734.99478019,9,1,91,16,16
14,704,640.510874334723,1,0,2289736.97130065,2289738.0183987,9,1,91,4,16
14,705,621.406502090395,0,0,2289739.68853246,2289740.73562708,9,0,78,4,8
14,706,563.977255485952,0,0,2289742.41803506,2289743.46511963,9,0,74,0,4
14,707,455.992156174034,0,0,2289745.10095473,2289746.14803276,9,0,94,4,4
14,708,621.916489675641,0,0,2289747.71279051,2289748.75987932,9,0,90,8,4
14,709,562.703034840524,1,0,2289750.41826373,2289751.46534984,9,1,68,8,0
14,710,829.367032740265,0,0,2289753.15950837,2289754.2065991,9,0,71,8,8
14,711,482.406722847372,0,0,2289756.21842164,2289757.26551276,9,0,72,16,8
14,712,616.214063484222,1,0,2289758.79546088,2289759.84255123,9,1,94,0,4
14,713,482.05786338076,0,0,2289761.53671822,2289762.5838078,9,0,69,4,16
14,714,610.728069674224,1,0,2289764.15989602,2289765.20691361,9,1,93,16,0
14,715,521.489799488336,0,0,2289766.87803962,2289767.92512766,9,0,66,8,8
14,716,500.289614312351,0,0,2289769.61930082,2289770.66638924,9,0,87,4,8
14,717,583.854714874178,0,0,2289772.17181472,2289773.21890669,9,0,72,8,4
14,718,523.172933608294,0,0,2289774.88955169,2289775.93663406,9,0,64,8,8
14,719,599.070296622813,1,0,2289777.54900425,2289778.59553247,9,1,62,16,16
14,720,541.756069287658,1,0,2289780.26669121,2289781.3137573,9,1,86,16,0
