sub_id,Trial,RT,Resp,Error,Fix_onset,Disp_onset,block,tid,tloc,fish_setsize,bird_setsize
36,1,498.813706450164,0,0,1808638.24927477,1808639.29641401,1,0,64,0,16
36,2,646.671822061762,1,0,1808640.94349258,1808641.99050363,1,1,93,8,4
36,3,751.78233301267,0,0,1808643.74346378,1808644.79053296,1,0,100,16,0
36,4,532.190976664424,0,0,1808646.57879327,1808647.62585898,1,0,86,16,8
36,5,836.343242786825,0,0,1808649.23763932,1808650.28474122,1,0,61,4,0
36,6,808.258415898308,1,0,1808652.28473814,1808653.33180193,1,1,90,16,4
36,7,643.60021869652,1,0,1808655.30835704,1808656.35537001,1,1,94,8,8
36,8,529.990539886057,0,0,1808658.02598509,1808659.07305658,1,0,94,0,0
36,9,601.605982286856,1,0,1808660.70836882,1808661.75543761,1,1,81,0,4
36,10,441.828320268542,1,0,1808663.47310339,1808664.52017295,1,1,72,0,0
36,11,874.24033950083,0,0,1808666.0496063,1808667.0966774,1,0,62,16,16
36,12,606.256695697084,1,0,1808669.00257677,1808670.04964787,1,1,87,4,0
36,13,540.046490263194,1,0,1808671.84967028,1808672.89673869,1,1,83,4,0
36,14,699.807598721236,0,0,1808674.48499561,1808675.5320694,1,0,88,0,8
36,15,660.227452404797,0,0,1808677.26149651,1808678.30856145,1,0,99,16,4
36,16,724.39697990194,0,0,1808680.07329526,1808681.12036328,1,0,67,8,16
36,17,530.350478366017,0,0,1808683.01456484,1808684.06158513,1,0,74,0,0
36,18,873.008849332109,0,0,1808685.75571209,1808686.80278088,1,0,90,16,8
36,19,615.136590087786,0,0,1808688.72044928,1808689.76752577,1,0,99,0,0
36,20,599.864033982158,1,0,1808691.55578377,1808692.60286526,1,1,67,16,0
36,21,427.712186938152,0,0,1808694.35585814,1808695.40288728,1,0,87,0,8
36,22,507.71669857204,1,0,1808696.90883223,1808697.9558556,1,1,65,8,4
36,23,408.623127732426,0,0,1808699.55588001,1808700.60294841,1,0,75,8,0
36,24,575.760858366266,0,0,1808702.10889414,1808703.15590711,1,0,77,16,16
36,25,664.942069444805,1,0,1808704.77944878,1808705.82654144,1,1,62,0,4
36,26,984.246398787946,0,0,1808707.68537356,1808708.73244466,1,0,83,8,0
36,27,1098.52860448882,1,0,1808710.75600042,1808711.80307037,1,1,77,4,16
36,28,615.402213297784,0,0,1808714.06192389,1808715.10898576,1,0,83,4,8
36,29,674.599200021476,1,0,1808716.86195977,1808717.90902125,1,1,97,16,0
36,30,649.291096488014,0,0,1808719.60316245,1808720.65023471,1,0,71,8,0
36,31,683.927959064022,0,0,1808722.48556804,1808723.53262683,1,0,72,0,4
36,32,702.809524256736,0,0,1808725.23855284,1808726.28559314,1,0,80,8,16
36,33,528.186997631565,0,0,1808728.01502603,1808729.06209328,1,0,86,0,16
36,34,490.736070787534,1,0,1808730.69741167,1808731.74448047,1,1,74,4,8
36,35,647.368216654286,0,0,1808733.27390265,1808734.32096759,1,0,88,4,8
36,36,712.569824419916,1,0,1808736.03863953,1808737.08571371,1,1,70,16,0
36,37,473.528700647876,0,1,1808738.99161539,1808740.03869035,1,1,86,8,8
36,38,745.242231059819,1,0,1808741.52105605,1808742.568131,1,1,73,8,4
36,39,452.384719857946,0,0,1808744.3916776,1808745.43875332,1,0,62,8,0
36,40,539.098716108128,1,0,1808747.02700447,1808748.07407326,1,1,72,0,4
36,41,813.818406779319,1,0,1808749.72115299,1808750.76821947,1,1,93,8,0
36,42,493.496240815148,0,0,1808752.709429,1808753.75649702,1,0,93,16,4
36,43,494.698858819902,0,0,1808755.41537041,1808756.46240879,1,0,92,8,4
36,44,721.961332019418,1,0,1808758.07422917,1808759.12126717,1,1,96,16,16
36,45,539.261554600671,1,0,1808760.9565801,1808762.00365582,1,1,93,4,0
36,46,1159.32433400303,1,0,1808763.70955103,1808764.75662444,1,1,64,0,8
36,47,636.197419371456,0,0,1808767.09785461,1808768.14489415,1,0,88,4,8
36,48,427.853082539514,1,0,1808769.88609605,1808770.93321374,1,1,64,0,16
36,49,591.972719179466,1,0,1808772.40376846,1808773.45083648,1,1,95,4,16
36,50,639.7898751311,0,0,1808775.19204147,1808776.2391145,1,0,69,16,16
36,51,755.554950330406,1,0,1808777.93324453,1808778.98032064,1,1,63,4,16
36,52,684.667854104191,1,0,1808780.94510672,1808781.99211122,1,1,61,8,16
36,53,604.189455509186,1,0,1808783.86273316,1808784.90980272,1,1,93,4,4
36,54,467.157596722245,1,0,1808786.56863915,1808787.61571064,1,1,84,4,0
36,55,439.948556013405,0,0,1808789.1686601,1808790.21574698,1,0,63,8,4
36,56,625.001984648407,1,0,1808791.86287636,1808792.90988818,1,1,79,8,16
36,57,579.698238987476,1,0,1808794.66285488,1808795.70993561,1,1,82,8,16
36,58,525.539236143231,1,0,1808797.45112058,1808798.49819207,1,1,85,16,8
36,59,902.38945488818,0,0,1808800.20409691,1808801.25116724,1,0,90,0,8
36,60,412.671762052923,0,0,1808803.31006203,1808804.35708424,1,0,74,16,16
36,61,609.617020003498,0,0,1808805.92186663,1808806.96887306,1,0,89,8,8
36,62,534.002218162641,1,0,1808808.63948698,1808809.68655655,1,1,83,4,4
36,63,556.217160075903,0,0,1808811.34540607,1808812.39247409,1,0,81,0,8
36,64,629.724685801193,1,0,1808814.08665725,1808815.13368177,1,1,84,8,8
36,65,599.475608440116,0,0,1808816.87487752,1808817.92194323,1,0,72,8,8
36,66,713.641940848902,1,0,1808819.63961787,1808820.68672362,1,1,72,4,4
36,67,1090.20382352173,1,0,1808822.46318102,1808823.5102425,1,1,100,16,8
36,68,481.721054762602,0,0,1808825.69850573,1808826.7455803,1,0,91,4,16
36,69,467.219190439209,1,0,1808828.41619076,1808829.46325378,1,1,74,4,8
36,70,676.217960892245,1,0,1808831.01621247,1808832.06327318,1,1,94,16,8
36,71,492.266675457358,1,0,1808833.82801584,1808834.87508078,1,1,72,0,16
36,72,574.115535244346,0,0,1808836.42808952,1808837.4751229,1,0,74,16,4
36,73,544.961286475882,0,0,1808839.16924678,1808840.21631518,1,0,87,4,16
36,74,543.741345405579,0,0,1808841.92222349,1808842.96936773,1,0,93,16,4
36,75,490.070473169908,1,0,1808844.68696268,1808845.73402685,1,1,66,16,0
36,76,584.536043461412,0,0,1808847.25169656,1808848.29875881,1,0,92,4,4
36,77,1016.1904594861,0,0,1808850.03996341,1808851.08703066,1,0,61,0,16
36,78,505.8165313676,1,1,1808853.22823434,1808854.27531199,1,0,79,0,0
36,79,712.610245216638,1,0,1808855.86356352,1808856.91063308,1,1,72,4,4
36,80,531.829883344471,1,0,1808858.73423396,1808859.78125964,1,1,84,0,4
36,81,546.811794163659,1,0,1808894.42871662,1808895.4757831,2,1,74,4,16
36,82,698.110305937007,0,0,1808897.14639434,1808898.1934689,2,0,77,16,16
36,83,557.688096072525,0,0,1808900.02882957,1808901.07585409,2,0,100,4,0
36,84,598.744182381779,0,0,1808902.73468937,1808903.78177587,2,0,94,4,8
36,85,654.842618387192,1,0,1808905.53477837,1808906.58180058,2,1,89,16,0
36,86,531.010686419904,1,0,1808908.25240681,1808909.29947291,2,1,83,4,16
36,87,786.063876468688,1,0,1808910.85243391,1808911.89950271,2,1,80,4,0
36,88,825.559331104159,0,0,1808913.78187634,1808914.82894976,2,0,83,4,4
36,89,634.610610315576,0,0,1808916.79367386,1808917.84076382,2,0,85,16,4
36,90,792.281765956432,1,0,1808919.67606636,1808920.72313361,2,1,82,8,0
36,91,720.470763277262,0,0,1808922.68786772,1808923.73493536,2,0,90,8,4
36,92,778.50901754573,1,0,1808925.52319028,1808926.58201963,2,1,100,16,16
36,93,587.668085936457,0,0,1808928.55853431,1808929.60559695,2,0,83,4,8
36,94,658.240668941289,1,0,1808931.38208207,1808932.42915355,2,1,94,16,4
36,95,611.449049087241,0,0,1808934.25269938,1808935.29977125,2,0,66,16,16
36,96,602.85248584114,1,0,1808937.01744396,1808938.06451699,2,1,77,8,8
36,97,846.748352516443,0,0,1808939.77042376,1808940.81748908,2,0,91,4,8
36,98,559.635228477418,0,0,1808942.75868745,1808943.80575663,2,0,84,0,16
36,99,787.099806359038,0,0,1808945.54694468,1808946.59401886,2,0,80,4,16
36,100,688.513999106362,0,0,1808948.55877992,1808949.6058233,2,0,97,8,4
36,101,614.798209629953,0,0,1808951.48819117,1808952.53530423,2,0,78,8,16
36,102,460.344172781333,0,0,1808954.31175586,1808955.35882542,2,0,66,0,0
36,103,494.364712620154,0,0,1808956.91179027,1808957.95886215,2,0,70,4,0
36,104,900.782627984881,0,0,1808959.5942225,1808960.64124279,2,0,90,8,16
36,105,570.546176983044,0,0,1808962.67656411,1808963.72363252,2,0,61,0,4
36,106,507.451460463926,1,0,1808965.38247434,1808966.42954698,2,1,65,0,16
36,107,613.950140541419,0,0,1808967.95897494,1808969.00604104,2,0,69,16,8
36,108,604.646019171923,1,0,1808970.64135597,1808971.6884313,2,1,68,16,8
36,109,525.916883023456,1,0,1808973.46491912,1808974.51199484,2,1,65,8,0
36,110,771.618601400405,1,0,1808976.19436586,1808977.24143658,2,1,92,8,0
36,111,737.198086921126,0,0,1808979.18262571,1808980.22972106,2,0,96,0,4
36,112,646.109009161592,1,0,1808981.98266351,1808983.02973538,2,1,100,0,0
36,113,534.825649345294,1,0,1808984.86505794,1808985.91212211,2,1,94,8,8
36,114,511.887365486473,1,0,1808987.57096124,1808988.61803234,2,1,87,0,8
36,115,542.914834106341,1,0,1808990.18276237,1808991.22983694,2,1,84,0,0
36,116,1550.37845717743,0,0,1808992.90044316,1808993.94750541,2,0,61,4,8
36,117,907.234573503956,0,0,1808996.54753983,1808997.59461747,2,0,71,16,0
36,118,651.874184608459,0,0,1808999.52404874,1809000.58288656,2,0,81,8,4
36,119,530.924070160836,0,0,1809002.3946676,1809003.44178605,2,0,75,4,0
36,120,558.208178263158,1,0,1809005.01822428,1809006.06529808,2,1,91,16,0
36,121,546.907264506444,1,0,1809007.64179251,1809008.68886708,2,1,84,8,4
36,122,598.585578612983,1,0,1809010.33593718,1809011.38300597,2,1,95,4,0
36,123,939.754535676911,0,0,1809013.1007014,1809014.14780406,2,0,87,8,8
36,124,838.888989528641,0,0,1809016.1595346,1809017.20665112,2,0,69,16,8
36,125,1261.29664317705,1,0,1809019.08897664,1809020.13605005,2,1,91,4,4
36,126,485.218425048515,0,0,1809022.47725597,1809023.52432437,2,0,77,0,4
36,127,586.636775406078,1,0,1809025.20671118,1809026.2537561,2,1,87,8,16
36,128,882.008081534877,1,0,1809027.98319976,1809029.03026932,2,1,73,16,8
36,129,689.725856063887,0,0,1809030.92441545,1809031.97151966,2,0,70,4,16
36,130,720.998929813504,1,0,1809033.78326374,1809034.83033792,2,1,68,16,0
36,131,546.667048707604,1,0,1809036.66565201,1809037.71271926,2,1,65,0,8
36,132,636.150454171002,0,0,1809039.44215792,1809040.48922671,2,0,75,0,4
36,133,466.094334609807,1,0,1809042.14806853,1809043.19514156,2,1,65,4,16
36,134,534.914960619062,1,0,1809044.79516404,1809045.84223014,2,1,73,4,4
36,135,580.739558208734,0,0,1809047.44225108,1809048.48935067,2,0,79,8,4
36,136,476.860922528431,1,0,1809050.14816208,1809051.19522779,2,1,74,4,4
36,137,572.692334419116,1,0,1809052.78349203,1809053.83057929,2,1,87,8,8
36,138,668.590729357675,1,0,1809055.59532773,1809056.64239575,2,1,81,8,16
36,139,513.954221038148,1,0,1809058.40708336,1809059.45415677,2,1,91,8,16
36,140,770.286251557991,0,0,1809060.97181454,1809062.01888718,2,0,96,8,0
36,141,839.971499750391,0,0,1809063.86596375,1809064.91303947,2,0,89,8,8
36,142,480.984239606187,0,0,1809066.77188276,1809067.81895078,2,0,67,16,0
36,143,506.920984247699,0,0,1809069.46602819,1809070.51313279,2,0,69,16,4
36,144,645.028038881719,1,0,1809072.07782779,1809073.12489927,2,1,97,16,4
36,145,674.487561453134,1,0,1809074.85433023,1809075.90140056,2,1,86,0,4
36,146,926.947269355878,1,0,1809077.7249487,1809078.77205483,2,1,88,0,16
36,147,379.88887168467,0,0,1809080.78381039,1809081.83088418,2,0,95,0,8
36,148,460.588237969205,0,0,1809083.2191331,1809084.26620266,2,0,82,0,8
36,149,744.063480757177,1,0,1809085.84269864,1809086.88976666,2,1,62,0,8
36,150,672.253248048946,1,0,1809088.76037473,1809089.8074443,2,1,76,16,8
36,151,664.390805177391,0,0,1809091.61922995,1809092.66630336,2,0,83,16,16
36,152,787.320388946682,0,0,1809094.51341573,1809095.56046566,2,0,77,0,16
36,153,560.928312363103,1,0,1809097.5016571,1809098.54872281,2,1,71,8,0
36,154,556.621369207278,1,0,1809100.23109845,1809101.27816455,2,1,66,4,8
36,155,730.868943966925,1,0,1809103.00760244,1809104.05467046,2,1,67,16,16
36,156,590.595328947529,1,0,1809105.88998378,1809106.93705218,2,1,73,4,4
36,157,438.478005118668,1,0,1809108.63119223,1809109.67826333,2,1,77,0,0
36,158,506.392432842404,0,0,1809111.24298759,1809112.29006061,2,0,83,16,4
36,159,359.335421118885,0,0,1809113.83125259,1809114.87832138,2,0,63,0,16
36,160,378.529959591106,0,0,1809116.24304379,1809117.29011566,2,0,84,0,0
36,161,614.035216858611,0,0,1809151.86699083,1809152.91406231,3,0,61,8,16
36,162,734.695840626955,1,0,1809154.69055744,1809155.73762123,3,1,90,0,0
36,163,705.667859409004,0,0,1809157.65529002,1809158.70239345,3,0,79,8,16
36,164,703.781165648252,1,0,1809160.56124867,1809161.60828436,3,1,69,8,0
36,165,553.646005922928,1,0,1809163.3612372,1809164.40830561,3,1,87,4,8
36,166,634.810790186748,0,0,1809166.17303749,1809167.22010974,3,0,68,16,8
36,167,490.868497174233,0,0,1809169.02016371,1809170.06720556,3,0,65,0,16
36,168,616.901636123657,0,0,1809171.72604507,1809172.77310193,3,0,63,4,16
36,169,478.910839883611,0,0,1809174.43221553,1809175.4790187,3,0,73,16,16
36,170,667.116328841075,1,0,1809177.13786591,1809178.18494394,3,1,79,4,16
36,171,499.315310735255,1,0,1809179.91438145,1809180.96146448,3,1,88,4,16
36,172,444.168498041108,0,0,1809182.65557912,1809183.7026533,3,0,82,16,4
36,173,521.739286603406,1,0,1809185.29093409,1809186.33798748,3,1,84,0,16
36,174,574.204846052453,1,0,1809187.90269673,1809188.94977091,3,1,94,4,0
36,175,814.164486946538,0,0,1809190.60861003,1809191.65568191,3,0,70,4,8
36,176,748.528642812744,1,0,1809193.52628806,1809194.57336147,3,1,99,16,8
36,177,641.019825357944,1,0,1809196.45574242,1809197.50281545,3,1,73,16,8
36,178,711.432264884934,1,0,1809199.23224641,1809200.2793075,3,1,69,4,16
36,179,1010.11962513439,0,0,1809202.12639177,1809203.17346133,3,0,99,16,0
36,180,684.734837152064,0,0,1809205.34996092,1809206.39702895,3,0,81,4,4
36,181,980.796763673425,1,0,1809208.26762663,1809209.31475778,3,1,73,16,4
36,182,668.965296354145,0,0,1809211.37355826,1809212.42062551,3,0,95,8,16
36,183,906.888108467683,0,0,1809214.26771478,1809215.3148213,3,0,65,16,0
36,184,602.769334567711,0,0,1809217.42069712,1809218.46779208,3,0,89,0,4
36,185,554.189570713788,0,0,1809220.19720187,1809221.24426258,3,0,86,4,8
36,186,602.790507022291,0,0,1809222.97370201,1809224.02076579,3,0,63,16,0
36,187,814.214146696031,1,0,1809225.6560788,1809226.70314682,3,1,79,16,16
36,188,634.861989878118,0,0,1809228.63258348,1809229.6796515,3,0,86,4,4
36,189,640.465096570551,0,0,1809231.52672691,1809232.57380109,3,0,91,8,4
36,190,677.563399309292,1,0,1809234.26794153,1809235.31500762,3,1,88,0,16
36,191,804.375314386562,1,0,1809237.17385437,1809238.22092701,3,1,99,16,4
36,192,653.613438364118,1,0,1809240.04448555,1809241.09157205,3,1,77,0,0
36,193,853.162187151611,0,0,1809242.76215633,1809243.8092232,3,0,72,0,8
36,194,598.145953146741,0,0,1809245.71513682,1809246.76220291,3,0,65,8,0
36,195,561.541555216536,0,0,1809248.38575228,1809249.432823,3,0,94,0,0
36,196,1121.47689727135,0,0,1809251.13872438,1809252.18579779,3,0,99,0,16
36,197,580.077810678631,0,0,1809254.47994838,1809255.52700909,3,0,81,0,4
36,198,618.691704701632,1,0,1809257.29173866,1809258.33880899,3,1,91,8,4
36,199,760.737679665908,0,0,1809260.06825265,1809261.11536533,3,0,86,8,0
36,200,646.429681684822,0,0,1809263.04474886,1809264.09181842,3,0,79,8,4
36,201,591.723264427856,1,0,1809265.82125631,1809266.86831663,3,1,66,0,0
36,202,489.690131740645,1,0,1809268.57428961,1809269.6212918,3,1,72,4,4
36,203,511.556684039533,0,0,1809271.1742478,1809272.22132006,3,0,69,8,4
36,204,679.144049063325,1,0,1809273.85663653,1809274.90370994,3,1,86,4,0
36,205,544.893148588017,0,0,1809276.64490184,1809277.69197641,3,0,69,0,8
36,206,712.482823291793,1,0,1809279.32729096,1809280.37436244,3,1,87,8,8
36,207,608.261957298964,0,0,1809282.22143593,1809283.26850703,3,0,93,8,4
36,208,782.768610632047,1,0,1809284.89206372,1809285.93912905,3,1,61,16,16
36,209,644.315861165524,1,0,1809287.82150577,1809288.86857533,3,1,93,0,4
36,210,527.278874767944,0,0,1809290.66861505,1809291.71566999,3,0,63,4,0
36,211,477.769430493936,1,0,1809293.25691663,1809294.30393576,3,1,72,0,4
36,212,678.074627649039,1,0,1809295.92747166,1809296.97454045,3,1,79,8,8
36,213,519.956532400101,0,0,1809298.71574429,1809299.76282193,3,0,66,16,4
36,214,756.273672450334,0,0,1809301.48048386,1809302.52755881,3,0,81,0,8
36,215,1073.66705569439,1,0,1809304.40992591,1809305.45699508,3,1,100,16,16
36,216,597.041115164757,1,0,1809307.72761648,1809308.77468989,3,1,71,4,8
36,217,462.426041485742,1,0,1809310.45706322,1809311.50413317,3,1,62,0,8
36,218,683.767430251464,1,0,1809313.08061914,1809314.1277245,3,1,81,4,0
36,219,555.072671268135,1,0,1809315.93947397,1809316.98654931,3,1,91,16,0
36,220,543.911113170907,1,0,1809318.63362249,1809319.68070437,3,1,85,4,4
36,221,542.088323039934,0,0,1809321.39836592,1809322.44543471,3,0,74,8,8
36,222,568.982080789283,0,0,1809324.13961826,1809325.1866397,3,0,82,4,4
36,223,663.266719318926,1,0,1809326.91607566,1809327.96314676,3,1,79,4,8
36,224,726.80876054801,0,0,1809329.64556398,1809330.69258542,3,0,68,4,0
36,225,452.569116139784,0,0,1809332.53967238,1809333.5867404,3,0,77,4,16
36,226,745.658374158666,0,0,1809335.18676134,1809336.23382821,3,0,72,16,4
36,227,648.957720492035,0,0,1809338.01032257,1809339.05739021,3,0,79,16,0
36,228,527.715420583263,1,0,1809340.89270968,1809341.93976269,3,1,95,0,4
36,229,459.662791807204,1,0,1809343.55155844,1809344.5986357,3,1,96,16,8
36,230,481.845397269353,0,0,1809346.1162927,1809347.1634023,3,0,96,8,0
36,231,543.733646161854,1,0,1809348.66926448,1809349.71637254,3,1,98,16,8
36,232,540.144270053133,0,0,1809351.28106023,1809352.32813364,3,0,79,8,8
36,233,737.056806217879,1,0,1809353.98697931,1809355.03404079,3,1,93,8,0
36,234,500.718108378351,1,0,1809356.96347975,1809358.01055278,3,1,82,0,0
36,235,632.880595978349,0,0,1809359.68116825,1809360.72826553,3,0,62,0,16
36,236,640.833504265174,1,0,1809362.37531445,1809363.42237439,3,1,67,8,16
36,237,695.521443383768,1,0,1809365.16356822,1809366.21064047,3,1,79,16,16
36,238,593.804363394156,1,0,1809368.03420247,1809369.08126626,3,1,79,8,16
36,239,602.102197008207,0,0,1809370.85776177,1809371.90481671,3,0,74,0,8
36,240,469.675241271034,1,0,1809373.69308856,1809374.74016274,3,1,98,8,8
36,241,801.592046627775,1,0,1809409.37585532,1809410.42292219,4,1,90,16,4
36,242,439.347631996498,0,0,1809412.258274,1809413.30531238,4,0,64,16,0
36,243,560.559904901311,1,0,1809414.92886252,1809415.97593208,4,1,62,4,4
36,244,520.066246390343,0,0,1809417.55241728,1809418.59948607,4,0,86,0,4
36,245,535.989001393318,0,0,1809420.29362997,1809421.340703,4,0,96,0,0
36,246,459.350203396752,1,0,1809423.02306978,1809424.07013588,4,1,73,4,8
36,247,656.599195441231,0,0,1809425.63486591,1809426.68193778,4,0,82,8,8
36,248,701.95298618637,1,0,1809428.50548554,1809429.55258975,4,1,61,4,8
36,249,508.332251105458,0,0,1809431.32905061,1809432.37611363,4,0,82,4,4
36,250,1067.37679359503,0,0,1809433.92907618,1809434.97614689,4,0,69,16,4
36,251,729.34834798798,0,0,1809437.14087746,1809438.18795164,4,0,91,4,8
36,252,879.54163691029,0,0,1809440.09385795,1809441.1409225,4,0,100,4,8
36,253,1246.39711412601,1,0,1809443.09389375,1809444.14095946,4,1,69,4,0
36,254,1016.16043248214,0,0,1809446.43511082,1809447.48217577,4,0,66,0,4
36,255,642.118888907135,1,0,1809449.63513769,1809450.68221419,4,1,77,8,0
36,256,610.953219467774,1,0,1809452.34105832,1809453.38812634,4,1,75,4,0
36,257,805.683411890641,0,0,1809455.02345552,1809456.07051314,4,0,62,8,4
36,258,761.426375014707,1,0,1809458.07054125,1809459.11760888,4,1,76,16,4
36,259,981.914690230042,0,0,1809460.94115972,1809461.98826123,4,0,67,4,0
36,260,633.886113762856,1,0,1809464.04707557,1809465.09421288,4,1,96,0,4
36,261,621.834525838494,1,0,1809466.78837064,1809467.83536474,4,1,72,0,16
36,262,799.90245308727,1,0,1809469.64713808,1809470.69420649,4,1,73,16,4
36,263,554.09564031288,1,0,1809472.51775809,1809473.56482804,4,1,85,8,0
36,264,822.476948844269,0,0,1809475.23543812,1809476.28250652,4,0,100,8,8
36,265,534.439533483237,0,0,1809478.14135905,1809479.18842168,4,0,74,4,4
36,266,566.887123277411,1,0,1809480.76491419,1809481.81204843,4,1,87,0,0
36,267,611.596104223281,0,0,1809483.40024452,1809484.44730831,4,0,97,0,16
36,268,641.316245310009,0,0,1809486.09438842,1809487.14145567,4,0,98,16,8
36,269,570.243212860078,0,0,1809488.88265758,1809489.92972945,4,0,82,8,4
36,270,719.405191484839,0,0,1809491.60034492,1809492.64740717,4,0,97,16,0
36,271,671.386315952986,1,0,1809494.50625161,1809495.55332348,4,1,78,16,16
36,272,485.099857207388,1,0,1809497.34157609,1809498.38864296,4,1,84,8,0
36,273,498.987708939239,0,0,1809500.08278685,1809501.12987797,4,0,74,8,8
36,274,550.017748959363,1,0,1809502.7416433,1809503.78870632,4,1,83,8,0
36,275,679.404667578638,1,0,1809505.41226147,1809506.45932718,4,1,98,8,16
36,276,625.565567519516,0,0,1809508.3299391,1809509.37700636,4,0,90,16,16
36,277,507.751730037853,0,0,1809511.09467599,1809512.14176711,4,0,80,16,4
36,278,610.897015081719,0,0,1809513.69476083,1809514.74178458,4,0,70,16,16
36,279,503.042887663469,0,0,1809516.55355908,1809517.60069639,4,0,76,4,0
36,280,552.864535246044,1,0,1809519.25948162,1809520.3065431,4,1,80,16,0
36,281,540.713242487982,1,0,1809521.9418615,1809522.98893491,4,1,63,0,8
36,282,528.481877874583,1,0,1809524.69483359,1809525.74190315,4,1,81,4,16
36,283,712.647201726213,1,0,1809527.44781223,1809528.49487486,4,1,86,16,16
36,284,604.057798627764,1,0,1809530.22431121,1809531.27138077,4,1,66,4,4
36,285,542.38859238103,0,0,1809533.04787166,1809534.09494585,4,0,68,8,16
36,286,791.135736973956,1,0,1809535.8361389,1809536.88321039,4,1,90,4,4
36,287,949.676519492641,0,0,1809538.87150026,1809539.91854865,4,0,94,8,8
36,288,776.479503605515,1,0,1809542.00092414,1809543.04799023,4,1,92,8,4
36,289,753.444594331086,1,0,1809544.95389807,1809546.00096533,4,1,69,0,8
36,290,673.275319393724,1,0,1809547.80098966,1809548.84805691,4,1,93,0,16
36,291,1008.05199961178,0,0,1809550.5539579,1809551.60103323,4,0,85,4,8
36,292,616.905870847404,1,0,1809553.69516504,1809554.74224808,4,1,89,0,0
36,293,494.733120081946,1,0,1809556.48343728,1809557.53050338,4,1,86,8,16
36,294,858.504675095901,0,0,1809559.13052586,1809560.17759658,4,0,72,8,16
36,295,470.59298842214,0,0,1809562.13056205,1809563.17763315,4,0,63,0,8
36,296,613.022384699434,1,0,1809564.76588853,1809565.81295655,4,1,62,0,16
36,297,700.17523644492,0,0,1809567.62474259,1809568.6718137,4,0,77,8,4
36,298,612.480744719505,1,0,1809570.54242216,1809571.58949595,4,1,73,16,0
36,299,918.877332704142,0,0,1809573.26015415,1809574.30718137,4,0,84,4,16
36,300,718.731894390658,0,0,1809576.26013721,1809577.30725066,4,0,91,8,8
36,301,516.481104772538,1,0,1809579.15429104,1809580.20135252,4,1,71,4,16
36,302,699.561608722433,1,0,1809581.86025209,1809582.90727276,4,1,82,16,8
36,303,632.2604236193,1,0,1809584.69553576,1809585.74260301,4,1,88,0,8
36,304,606.971953064203,0,0,1809587.48380146,1809588.53086717,4,0,95,16,8
36,305,473.643033998087,0,0,1809590.21324473,1809591.26031237,4,0,75,0,0
36,306,588.018400361761,1,0,1809592.94268917,1809593.98975218,4,1,97,16,8
36,307,843.259451212361,0,0,1809595.75448137,1809596.80155247,4,0,81,16,16
36,308,526.524736313149,0,0,1809598.71922587,1809599.76629158,4,0,73,0,16
36,309,843.738727737218,0,0,1809601.38987945,1809602.43691206,4,0,69,16,0
36,310,537.426060764119,1,0,1809604.42516921,1809605.47223838,4,1,88,0,4
36,311,514.893910847604,0,0,1809607.15461248,1809608.2017036,4,0,63,8,0
36,312,626.983379013836,0,0,1809609.8134647,1809610.86054004,4,0,80,0,8
36,313,712.707255734131,1,0,1809612.5429561,1809613.58998062,4,1,90,4,0
36,314,551.396294264123,1,0,1809615.39000456,1809616.43706835,4,1,85,8,16
36,315,542.251931270584,0,0,1809618.13121225,1809619.1782872,4,0,62,4,16
36,316,926.523812348023,1,0,1809620.84888958,1809621.89596645,4,1,81,8,4
36,317,646.68260095641,1,0,1809623.86069094,1809624.90776012,4,1,80,16,8
36,318,533.150684321299,1,0,1809626.63719223,1809627.68426487,4,1,88,0,4
36,319,437.581431120634,0,0,1809629.40193219,1809630.44900099,4,0,73,4,16
36,320,512.772391084582,0,0,1809631.96667724,1809633.01373217,4,0,72,0,0
36,321,695.781676797196,1,0,1809637.67262635,1809638.7196886,5,1,90,16,4
36,322,650.416337419301,0,0,1809640.50794505,1809641.55501115,5,0,90,16,8
36,323,786.997406743467,0,0,1809643.34327261,1809644.39033794,5,0,93,8,4
36,324,647.353203035891,1,0,1809646.21389185,1809647.26095641,5,1,80,0,8
36,325,862.805459182709,0,0,1809649.08450686,1809650.13158604,5,0,63,4,0
36,326,647.419031476602,0,0,1809652.02572063,1809653.07279481,5,0,100,4,16
36,327,593.31238316372,1,0,1809654.7669337,1809655.81400403,5,1,62,4,8
36,328,684.245936805382,0,0,1809657.47284662,1809658.5199131,5,0,70,8,8
36,329,751.376969041303,1,0,1809660.23758081,1809661.28465576,5,1,63,16,4
36,330,854.634662624449,1,0,1809663.04936839,1809664.09645181,5,1,75,0,4
36,331,872.61156947352,0,0,1809666.04941844,1809667.09648569,5,0,99,16,4
36,332,817.382760345936,1,0,1809669.03768637,1809670.08475747,5,1,69,8,8
36,333,605.818995041773,1,0,1809671.96713226,1809673.0142076,5,1,94,0,16
36,334,488.187244161963,0,0,1809674.63774273,1809675.68481768,5,0,73,16,16
36,335,988.255767151713,1,0,1809677.29660457,1809678.34366835,5,1,98,8,16
36,336,507.388326805085,1,0,1809680.40252118,1809681.44958959,5,1,63,8,4
36,337,526.096274843439,1,0,1809683.14373118,1809684.19079997,5,1,67,0,4
36,338,759.530442301184,0,0,1809685.86140504,1809686.9084773,5,0,70,8,16
36,339,781.641444889829,0,0,1809688.77909654,1809689.82616687,5,0,94,16,8
36,340,598.665265599266,0,0,1809691.68500592,1809692.73207433,5,0,72,16,8
36,341,522.130792029202,0,0,1809694.50856484,1809695.55563594,5,0,71,4,4
36,342,860.711271408945,1,0,1809697.19095896,1809698.23805162,5,1,99,4,8
36,343,591.79486730136,0,0,1809700.23805123,1809701.28511233,5,0,77,8,8
36,344,560.809744521976,1,1,1809703.00278889,1809704.04987077,5,0,90,4,8
36,345,513.808705843985,0,0,1809705.80286365,1809706.84989471,5,0,96,8,16
36,346,601.497808238491,1,0,1809708.48520464,1809709.53226997,5,1,75,0,4
36,347,556.134008569643,1,0,1809711.17934931,1809712.22642272,5,1,96,4,16
36,348,676.518615335226,0,0,1809713.80297143,1809714.84999827,5,0,70,16,4
36,349,599.519109120592,1,0,1809716.54411906,1809717.59119479,5,1,95,4,0
36,350,1011.25064026564,0,0,1809719.33238438,1809720.37946356,5,0,61,4,0
36,351,1189.74895356223,1,0,1809722.4147768,1809723.46184713,5,1,63,0,0
36,352,501.010293606669,1,0,1809725.77959891,1809726.82664345,5,1,66,16,16
36,353,468.60235510394,0,0,1809728.50896597,1809729.5560313,5,0,66,0,8
36,354,639.576221816242,1,0,1809731.06192967,1809732.10900847,5,1,83,16,4
36,355,606.555810431018,1,0,1809733.92079182,1809734.96786523,5,1,85,16,0
36,356,634.292632574216,0,0,1809736.60317439,1809737.65024356,5,0,68,0,8
36,357,535.910084377974,1,0,1809739.43851272,1809740.48558344,5,1,72,16,16
36,358,515.000160085037,0,0,1809742.14447762,1809743.19149059,5,0,97,8,0
36,359,634.469714714214,0,0,1809744.82680052,1809745.87387008,5,0,75,8,0
36,360,739.11326774396,1,0,1809747.61506737,1809748.66213847,5,1,97,8,0
36,361,674.843650311232,1,0,1809750.45040417,1809751.49752185,5,1,69,4,4
36,362,533.65228837356,1,0,1809753.19160223,1809754.23867448,5,1,75,16,0
36,363,1071.50896429084,1,0,1809755.83869235,1809756.88576845,5,1,97,8,8
36,364,905.11266887188,1,0,1809759.07403169,1809760.12109547,5,1,63,8,0
36,365,790.211830753833,0,0,1809762.22700093,1809763.27407549,5,0,69,0,0
36,366,983.518822584301,1,0,1809765.15644682,1809766.20351793,5,1,66,0,0
36,367,513.685903279111,0,0,1809768.21531929,1809769.26237807,5,0,65,4,8
36,368,390.988066093996,1,0,1809770.88592744,1809771.93300124,5,1,66,4,0
36,369,633.087319787592,1,0,1809773.43892001,1809774.48597379,5,1,84,0,16
36,370,504.396795295179,0,0,1809776.21540359,1809777.262467,5,0,62,8,16
36,371,586.748029105365,1,0,1809778.9213169,1809779.96838954,5,1,67,4,8
36,372,551.25077906996,0,0,1809781.75663522,1809782.80371826,5,0,72,0,8
36,373,504.31556859985,1,1,1809784.35667464,1809785.40374113,5,0,70,16,8
36,374,597.073452081531,1,0,1809787.09794585,1809788.14494842,5,1,74,16,0
36,375,610.305330017582,0,0,1809789.81555927,1809790.86263422,5,0,69,0,16
36,376,660.215903772041,1,0,1809792.50970779,1809793.55677273,5,1,62,16,0
36,377,511.018893681467,0,0,1809795.26268258,1809796.30975137,5,0,86,0,4
36,378,525.642405962572,0,0,1809797.9450713,1809798.99213856,5,0,63,4,16
36,379,541.461606509984,0,0,1809800.63921982,1809801.68628784,5,0,96,4,4
36,380,469.14592012763,0,0,1809803.38042712,1809804.42749129,5,0,62,0,4
36,381,688.210264779627,1,0,1809805.93339544,1809806.98045615,5,1,77,4,4
36,382,591.088464017957,1,0,1809808.82755119,1809809.87461921,5,1,93,0,8
36,383,884.181186323985,1,0,1809811.59228807,1809812.63935225,5,1,68,0,16
36,384,498.02761641331,1,0,1809814.73349984,1809815.78057017,5,1,71,8,8
36,385,492.143102921546,0,0,1809817.33352656,1809818.38059727,5,0,62,16,8
36,386,540.762132499367,0,0,1809819.92184199,1809820.96886343,5,0,96,0,16
36,387,543.797164689749,0,0,1809822.58065301,1809823.6277168,5,0,84,8,0
36,388,582.385651301593,0,0,1809825.26303019,1809826.31009552,5,0,89,8,4
36,389,461.650345241651,0,0,1809828.02776746,1809829.07483895,5,0,96,4,4
36,390,637.405811809003,1,0,1809830.71015003,1809831.75721882,5,1,63,4,16
36,391,642.476132605225,0,0,1809833.56900987,1809834.61608136,5,0,69,16,16
36,392,590.06369789131,1,0,1809836.45145049,1809837.49846346,5,1,86,4,16
36,393,493.850019993261,1,0,1809839.20437331,1809840.25150408,5,1,79,4,0
36,394,381.001023808494,0,0,1809841.95739005,1809843.00447886,5,0,75,0,0
36,395,506.827053846791,0,0,1809844.40443329,1809845.45150169,5,0,73,8,16
36,396,652.877777814865,0,0,1809847.06328396,1809848.11035083,5,0,90,0,0
36,397,861.254066461697,1,0,1809849.78095629,1809850.82803355,5,1,71,16,0
36,398,469.293745234609,1,0,1809852.87511966,1809853.92218307,5,1,85,8,4
36,399,564.231277676299,1,0,1809855.43985662,1809856.48691926,5,1,76,16,16
36,400,608.612656593323,0,0,1809858.21637678,1809859.26346174,5,0,85,8,4
36,401,438.305927440524,1,0,1809864.25171658,1809865.29878883,6,1,94,4,16
36,402,543.166598770767,0,0,1809866.88704614,1809867.93411724,6,0,61,16,4
36,403,602.414785418659,1,0,1809869.51060975,1809870.557672,6,1,95,0,4
36,404,598.524369997904,0,0,1809872.26358338,1809873.31064717,6,0,77,16,8
36,405,791.415988700464,1,0,1809875.11066534,1809876.15774337,6,1,74,8,4
36,406,497.810498345643,0,0,1809878.14599667,1809879.19313245,6,0,94,8,0
36,407,547.613667557016,0,0,1809880.7342586,1809881.78132931,6,0,97,8,4
36,408,645.026884041727,0,0,1809883.40488292,1809884.45196788,6,0,73,16,4
36,409,728.414047742262,1,0,1809886.12256217,1809887.16963405,6,1,87,16,0
36,410,516.947677591816,1,0,1809889.11082664,1809890.15790352,6,1,84,0,4
36,411,594.878019532189,1,0,1809891.71086144,1809892.75799491,6,1,88,4,0
36,412,422.992180567235,1,0,1809894.41678091,1809895.46384624,6,1,84,8,0
36,413,439.026959473267,0,0,1809896.92269352,1809897.96976232,6,0,72,0,8
36,414,546.574273146689,0,0,1809899.45212764,1809900.49919451,6,0,81,0,0
36,415,702.492701355368,0,0,1809902.09921853,1809903.14629194,6,0,88,16,0
36,416,462.438745424151,1,0,1809904.99337236,1809906.04044076,6,1,74,4,4
36,417,590.205748565495,1,0,1809907.69928258,1809908.74635869,6,1,72,8,4
36,418,481.969739543274,0,0,1809910.4875479,1809911.53462477,6,0,74,4,4
36,419,346.773759927601,1,0,1809913.07582291,1809914.12291711,6,1,98,0,16
36,420,378.091488732025,0,0,1809915.49937005,1809916.54644269,6,0,85,0,4
36,421,464.66497448273,1,0,1809918.12293597,1809919.17000361,6,1,70,8,16
36,422,633.117346791551,1,0,1809920.80532047,1809921.85239272,6,1,99,4,0
36,423,484.056998044252,0,0,1809923.60535134,1809924.65241936,6,0,85,0,0
36,424,495.942667592317,1,0,1809926.19366716,1809927.24069515,6,1,73,16,16
36,425,400.05351183936,1,0,1809928.75835407,1809929.80541902,6,1,89,8,0
36,426,665.802457137033,0,0,1809931.24074519,1809932.28780474,6,0,62,16,8
36,427,462.714377325028,0,0,1809934.09960041,1809935.14671039,6,0,62,4,4
36,428,533.215742791072,1,0,1809936.67608638,1809937.72316248,6,1,71,16,16
36,429,508.569772122428,0,0,1809939.28789059,1809940.33495707,6,0,94,0,16
36,430,529.322632588446,0,0,1809941.93498687,1809942.98204911,6,0,89,0,16
36,431,460.206356598064,0,0,1809944.58214435,1809945.62913307,6,0,66,16,0
36,432,513.555786572397,1,0,1809947.15856218,1809948.20563521,6,1,77,0,8
36,433,706.784246256575,1,0,1809949.77036909,1809950.81743942,6,1,93,0,16
36,434,457.282963208854,0,0,1809952.54686384,1809953.59393494,6,0,85,0,16
36,435,643.492814386263,1,0,1809955.20571721,1809956.25279177,6,1,62,16,16
36,436,472.403074614704,1,0,1809957.89986688,1809958.94693798,6,1,63,0,4
36,437,516.949602402747,1,0,1809960.44107002,1809961.48815152,6,1,66,4,8
36,438,635.906003881246,0,0,1809963.08816322,1809964.1352374,6,0,70,4,4
36,439,534.543857909739,1,0,1809965.87643238,1809966.9235031,6,1,65,8,8
36,440,824.194644810632,0,0,1809968.51175886,1809969.55882111,6,0,88,4,16
36,441,617.361279437318,1,0,1809971.57061978,1809972.61768433,6,1,68,4,16
36,442,500.852459808812,0,0,1809974.34711144,1809975.3942068,6,0,64,4,16
36,443,725.452543003485,0,0,1809977.07656049,1809978.12362929,6,0,71,0,8
36,444,723.466914379969,1,0,1809980.04130038,1809981.08837764,6,1,61,4,8
36,445,499.755321070552,0,0,1809982.95899496,1809984.00609416,6,0,62,0,8
36,446,474.585803458467,0,0,1809985.68842746,1809986.73550202,6,0,87,4,0
36,447,943.296946352348,1,0,1809988.38257828,1809989.42964938,6,1,80,8,8
36,448,886.296161916107,1,0,1809991.42967017,1809992.47673973,6,1,86,8,8
36,449,684.042292414233,1,0,1809994.47676822,1809995.52383239,6,1,62,4,16
36,450,788.75898825936,0,0,1809997.26504046,1809998.31211657,6,0,83,4,8
36,451,737.525688717142,0,0,1810000.15918967,1810001.20625654,6,0,99,16,4
36,452,684.770638588816,1,0,1810003.01804758,1810004.06511484,6,1,79,4,8
36,453,1445.59554825537,0,0,1810005.77101352,1810006.81809078,6,0,71,8,8
36,454,525.785611243919,0,0,1810009.28870594,1810010.33583555,6,0,68,16,0
36,455,1819.92196291685,1,0,1810011.94756354,1810012.99462887,6,1,86,8,0
36,456,402.339794905856,0,0,1810015.91231344,1810016.95937838,6,0,63,4,0
36,457,468.350975774229,0,0,1810018.37116072,1810019.41823529,6,0,84,16,16
36,458,761.964550474659,0,0,1810021.05354445,1810022.10061632,6,0,99,4,8
36,459,757.929004728794,0,0,1810023.90064142,1810024.94771868,6,0,97,16,16
36,460,567.597375949845,1,0,1810026.88890819,1810027.93597429,6,1,65,0,0
36,461,480.355598265305,1,0,1810029.52423275,1810030.57130616,6,1,95,16,4
36,462,1115.52963545546,1,0,1810032.19485669,1810033.24192356,6,1,96,8,4
36,463,441.254728706554,0,0,1810035.38312762,1810036.43019179,6,0,95,8,8
36,464,695.335507392883,0,0,1810038.04198138,1810039.08904632,6,0,89,8,0
36,465,561.501519288868,0,0,1810040.99495763,1810042.04202103,6,0,64,0,4
36,466,578.932551434264,0,0,1810043.61851624,1810044.66559542,6,0,63,16,8
36,467,986.797920195386,1,0,1810046.26561521,1810047.31267861,6,1,77,16,8
36,468,464.748126221821,0,0,1810049.32447035,1810050.37158033,6,0,69,8,16
36,469,908.767102984712,1,0,1810051.92455365,1810052.97156162,6,1,87,8,16
36,470,713.765898253769,1,0,1810054.9833549,1810056.03042485,6,1,77,0,0
36,471,520.106667187065,0,0,1810057.90103177,1810058.94810942,6,0,81,4,0
36,472,523.381530074403,1,0,1810060.55988745,1810061.60695432,6,1,87,8,16
36,473,747.744092484936,1,0,1810063.24233161,1810064.28933881,6,1,93,0,8
36,474,1077.96629960649,1,0,1810066.14818903,1810067.19527322,6,1,77,16,8
36,475,541.357666952536,0,0,1810069.27763523,1810070.32470749,6,0,62,8,16
36,476,1083.90008774586,1,0,1810071.96001934,1810073.00708928,6,1,77,16,4
36,477,901.613373542205,0,0,1810075.13652817,1810076.18360351,6,0,85,0,0
36,478,732.739854138345,1,0,1810078.25421882,1810079.30128569,6,1,76,16,0
36,479,589.222558075562,1,0,1810081.12483306,1810082.17190801,6,1,64,4,4
36,480,810.445378767326,0,0,1810083.84250885,1810084.88958457,6,0,77,8,4
36,481,515.836680075154,1,0,1810092.77203713,1810093.81911169,7,1,68,0,0
36,482,1088.00954627804,0,0,1810095.48971215,1810096.53677478,7,0,83,4,16
36,483,488.223045365885,1,0,1810098.79562792,1810099.84269479,7,1,73,0,8
36,484,731.133796740323,1,0,1810101.45452556,1810102.50155778,7,1,65,8,0
36,485,795.202849665657,1,0,1810104.30157711,1810105.34864282,7,1,92,16,0
36,486,897.687926655635,1,0,1810107.28988661,1810108.33692345,7,1,95,8,4
36,487,622.337284963578,1,0,1810110.32517329,1810111.37224323,7,1,63,8,4
36,488,1170.93706643209,1,0,1810113.19582833,1810114.24287094,7,1,81,8,4
36,489,1399.30553245358,0,0,1810116.52524828,1810117.57231168,7,0,70,16,4
36,490,1278.91515125521,0,0,1810120.10176697,1810121.14884115,7,0,71,8,0
36,491,781.771946698427,0,0,1810123.51356433,1810124.56069856,7,0,65,16,4
36,492,801.809549564496,0,0,1810126.46654635,1810127.51361245,7,0,96,8,16
36,493,1114.11220906302,1,0,1810129.38422283,1810130.43129047,7,1,67,0,8
36,494,912.768002366647,1,0,1810132.56081174,1810133.60779469,7,1,63,0,8
36,495,1065.93973422423,0,0,1810135.67841616,1810136.72548264,7,0,92,4,4
36,496,930.218667723238,1,0,1810138.8902136,1810139.93728701,7,1,87,0,16
36,497,965.668182587251,0,0,1810142.06671897,1810143.11379007,7,0,68,8,8
36,498,696.799898752943,0,0,1810145.23151768,1810146.27854104,7,0,66,0,0
36,499,729.059627279639,1,0,1810148.09032015,1810149.13745323,7,1,97,8,8
36,500,522.682825801894,1,0,1810151.01976066,1810152.066836,7,1,95,16,16
36,501,1080.57364006527,1,0,1810153.77274622,1810154.8198077,7,1,62,4,4
36,502,642.617028439417,1,0,1810157.03160283,1810158.07867239,7,1,95,8,16
36,503,782.741278409958,0,0,1810159.89049077,1810160.93752992,7,0,62,4,8
36,504,737.970318645239,1,0,1810162.91402266,1810163.96109646,7,1,73,16,16
36,505,747.592032887042,0,0,1810165.73759043,1810166.78465615,7,0,89,16,4
36,506,811.815839959309,1,0,1810168.56115012,1810169.60821853,7,1,98,8,16
36,507,1001.72863085754,1,0,1810171.51412137,1810172.56124675,7,1,85,8,16
36,508,579.429921228439,1,0,1810174.73770361,1810175.78477818,7,1,97,4,0
36,509,671.547229634598,0,0,1810177.50242587,1810178.54949889,7,0,67,0,4
36,510,738.867277512327,0,0,1810180.3142327,1810181.3612834,7,0,68,16,0
36,511,1173.05512167513,1,0,1810183.13778661,1810184.18485194,7,1,74,4,8
36,512,1013.9218843542,0,0,1810186.47899714,1810187.5260925,7,0,99,16,16
36,513,829.386613098904,1,0,1810189.71433533,1810190.76140681,7,1,69,16,0
36,514,1138.55453534052,1,0,1810192.77320086,1810193.82026504,7,1,83,4,4
36,515,481.372280279174,1,0,1810196.11440678,1810197.16148404,7,1,81,0,4
36,516,1280.44729609974,0,0,1810198.66737894,1810199.71445505,7,0,90,0,16
36,517,621.386816259474,1,0,1810202.07918978,1810203.12629168,7,1,82,16,8
36,518,689.235030906275,1,0,1810204.76157004,1810205.80864191,7,1,90,16,0
36,519,684.546206379309,0,0,1810207.58519132,1810208.63220429,7,0,95,0,0
36,520,784.823532216251,1,0,1810210.34987238,1810211.39698622,7,1,71,8,0
36,521,1234.20694028027,0,0,1810213.27931443,1810214.32638784,7,0,61,8,4
36,522,451.659838436171,0,0,1810216.6558228,1810217.70290507,7,0,64,8,16
36,523,520.36112640053,0,0,1810219.33821307,1810220.38528186,7,0,96,4,16
36,524,559.488173341379,1,0,1810222.09118901,1810223.1382528,7,1,67,4,0
36,525,917.171185836196,0,0,1810224.73827028,1810225.78534446,7,0,81,0,16
36,526,637.513600988314,1,0,1810227.75006779,1810228.79714698,7,1,88,0,0
36,527,609.448407078162,0,0,1810230.6089334,1810231.65600219,7,0,78,4,8
36,528,434.549093712121,0,0,1810233.4560169,1810234.50308954,7,0,74,0,4
36,529,510.627003619447,1,0,1810236.12670128,1810237.1737335,7,1,62,4,4
36,530,582.156214630231,0,0,1810238.8560845,1810239.90315137,7,0,68,0,8
36,531,492.370229912922,0,1,1810241.65614963,1810242.70318801,7,1,70,8,8
36,532,802.301144925877,1,0,1810244.25614671,1810245.30322089,7,1,78,4,16
36,533,1276.33822266944,1,0,1810247.22088775,1810248.26796193,7,1,67,16,8
36,534,871.249577729031,1,0,1810250.60918632,1810251.65623548,7,1,62,8,4
36,535,595.52128938958,0,0,1810253.58566752,1810254.63274093,7,0,78,4,8
36,536,400.662134867162,0,0,1810256.29158236,1810257.33865116,7,0,74,0,4
36,537,2093.08679611422,1,0,1810258.91514444,1810259.96220707,7,1,90,0,16
36,538,1089.45853915066,0,0,1810263.24459903,1810264.29167283,7,0,81,4,0
36,539,538.782663410529,1,0,1810266.46816511,1810267.51524276,7,1,76,16,4
36,540,682.047424837947,0,0,1810269.22114298,1810270.26822563,7,0,90,4,0
36,541,1056.96513946168,1,0,1810272.1270589,1810273.17412808,7,1,99,4,16
36,542,857.014876324683,1,0,1810275.3388625,1810276.38593245,7,1,80,4,16
36,543,693.395304027945,1,0,1810278.30360046,1810279.35067349,7,1,99,8,0
36,544,417.803676566109,0,0,1810281.23304366,1810282.28016943,7,0,74,4,0
36,545,750.011512311175,0,0,1810283.89189703,1810284.93897699,7,0,80,8,8
36,546,505.259877769277,0,0,1810286.80959199,1810287.85665116,7,0,75,0,16
36,547,413.26152253896,0,0,1810289.50373012,1810290.55080276,7,0,74,0,0
36,548,413.513286970556,0,0,1810291.9743472,1810293.02141907,7,0,66,0,4
36,549,776.676218491048,1,0,1810294.63320288,1810295.68027591,7,1,91,16,8
36,550,918.279103469104,0,0,1810297.66859504,1810298.71559762,7,0,63,0,8
36,551,622.822335688397,0,0,1810300.70386093,1810301.75096436,7,0,65,8,8
36,552,580.424660118297,0,0,1810303.43330959,1810304.48038146,7,0,61,4,8
36,553,431.943677831441,0,0,1810306.1627444,1810307.20981743,7,0,64,16,16
36,554,609.519239747897,0,0,1810308.84513852,1810309.89222155,7,0,91,16,0
36,555,997.189171379432,0,0,1810311.6804603,1810312.72753025,7,0,93,16,16
36,556,1029.46468326263,0,0,1810314.79814518,1810315.84521474,7,0,88,16,8
36,557,888.404208235443,0,0,1810317.90406141,1810318.95113097,7,0,79,8,0
36,558,813.757583033293,1,0,1810320.86880361,1810321.91586971,7,1,66,16,4
36,559,941.034915857017,0,0,1810323.73941861,1810324.78649049,7,0,68,16,8
36,560,1366.26548832282,1,0,1810326.90417267,1810327.9512403,7,1,90,4,4
36,561,838.668021839112,1,0,1810354.7516007,1810355.79861252,8,1,94,4,4
36,562,987.092030234635,1,0,1810357.77511104,1810358.82218214,8,1,100,0,0
36,563,1043.65357407369,1,0,1810360.95162449,1810361.99868751,8,1,99,8,8
36,564,1658.29802816734,1,0,1810364.19871554,1810365.24578664,8,1,78,4,8
36,565,1129.99839312397,0,0,1810367.92816959,1810368.97529497,8,0,79,16,16
36,566,951.679856516421,0,0,1810371.22233482,1810372.26938898,8,0,67,8,0
36,567,549.204711336643,1,0,1810374.30471184,1810375.35179026,8,1,93,16,16
36,568,1132.8932994511,0,0,1810377.08122661,1810378.12833466,8,0,89,0,4
36,569,861.472339369357,1,0,1810380.36361087,1810381.4106812,8,1,94,8,16
36,570,943.139497190714,1,0,1810383.41071084,1810384.45778041,8,1,78,4,16
36,571,745.481292018667,0,0,1810386.52839726,1810387.57547683,8,0,77,4,4
36,572,948.082396062091,0,0,1810389.35195117,1810390.39902612,8,0,73,0,16
36,573,662.763960193843,1,0,1810392.35198967,1810393.39905538,8,1,70,16,8
36,574,827.853313647211,1,0,1810395.19908856,1810396.24614696,8,1,62,16,16
36,575,763.769632205367,0,0,1810398.19911051,1810399.24617699,8,0,74,4,8
36,576,943.757744738832,1,0,1810401.15208868,1810402.19915747,8,1,99,4,8
36,577,606.380268232897,1,0,1810404.18741231,1810405.23448919,8,1,98,0,8
36,578,1070.97078906372,1,0,1810406.97568147,1810408.02275489,8,1,68,4,16
36,579,972.534731496125,1,0,1810410.21101735,1810411.25808306,8,1,97,0,8
36,580,629.644229076803,1,0,1810413.26987403,1810414.31697516,8,1,84,16,4
36,581,621.623182436451,1,0,1810416.01114023,1810417.05815243,8,1,93,4,0
36,582,1346.68483375572,0,0,1810418.7170008,1810419.76406382,8,0,80,16,16
36,583,658.813490998,0,0,1810422.23468475,1810423.28175354,8,0,74,16,4
36,584,1061.47341732867,1,0,1810424.96412687,1810426.01119951,8,1,80,0,16
36,585,807.543928269297,0,0,1810428.12886899,1810429.17594048,8,0,92,8,4
36,586,868.143712636083,1,1,1810431.01126188,1810432.05833067,8,0,99,8,8
36,587,910.136024234816,1,0,1810434.01129113,1810435.05835916,8,1,98,8,4
36,588,510.437602642924,0,0,1810437.08190414,1810438.12898255,8,0,85,8,8
36,589,592.294546542689,1,0,1810439.77606921,1810440.82313146,8,1,79,16,4
36,590,665.872135199606,0,0,1810442.59969049,1810443.64670269,8,0,84,4,0
36,591,1243.27546544373,0,0,1810445.43495261,1810446.48202371,8,0,71,8,0
36,592,653.903698781505,1,0,1810448.91734988,1810449.96447873,8,1,98,0,16
36,593,1095.14056285843,1,0,1810451.6820833,1810452.72916017,8,1,62,4,8
36,594,836.280493997037,0,0,1810454.98800215,1810456.03507556,8,0,78,0,0
36,595,480.21162301302,0,0,1810457.98803718,1810459.03511367,8,0,82,4,4
36,596,1241.02921853773,0,0,1810460.52924494,1810461.57631835,8,0,90,8,0
36,597,1186.69390352443,0,0,1810463.8704855,1810464.91752812,8,0,87,8,0
36,598,601.535919588059,0,0,1810467.22345467,1810468.27050652,8,0,68,8,16
36,599,485.045577632263,0,0,1810470.04700165,1810471.09407198,8,0,67,16,0
36,600,711.50232758373,1,0,1810472.76468129,1810473.81175239,8,1,99,16,4
36,601,495.098063256592,0,0,1810475.60000847,1810476.64707764,8,0,66,8,0
36,602,624.494606163353,1,0,1810478.17651253,1810479.22357439,8,1,98,0,0
36,603,531.738647492602,1,0,1810481.00007299,1810482.04718412,8,1,76,0,0
36,604,640.933209331706,0,0,1810483.65892443,1810484.705999,8,0,100,0,4
36,605,461.169529007748,1,0,1810486.42366247,1810487.47073511,8,1,85,16,0
36,606,718.137129908428,0,0,1810489.07075336,1810490.11782369,8,0,78,4,8
36,607,854.441027389839,0,0,1810491.88254864,1810492.9296182,8,0,72,8,4
36,608,808.812374481931,1,0,1810494.90618794,1810495.95318513,8,1,98,8,16
36,609,890.999614959583,1,0,1810497.92967826,1810498.97675051,8,1,81,8,8
36,610,552.405276801437,0,0,1810500.94148193,1810501.98854649,8,0,64,0,16
36,611,691.938996780664,0,0,1810503.72976572,1810504.77680833,8,0,86,4,0
36,612,638.13454285264,1,0,1810506.48271702,1810507.52978504,8,1,76,16,8
36,613,489.358680322766,1,0,1810509.24745082,1810510.29451269,8,1,83,4,16
36,614,562.951282365248,0,0,1810511.88278655,1810512.92988344,8,0,89,8,8
36,615,835.824700305238,0,0,1810514.57701244,1810515.62399923,8,0,94,4,4
36,616,1278.4016134683,1,0,1810517.61225869,1810518.65932518,8,1,65,0,8
36,617,1151.02226613089,1,0,1810520.95347115,1810522.00053725,8,1,84,16,16
36,618,686.514511704445,0,0,1810524.22409909,1810525.2711675,8,0,75,4,16
36,619,879.865003982559,0,0,1810527.14178867,1810528.18884706,8,0,72,8,16
36,620,811.288828263059,1,0,1810530.27122409,1810531.31829904,8,1,77,0,8
36,621,763.137526344508,0,0,1810533.2712622,1810534.31833638,8,0,92,16,8
36,622,558.723255991936,1,0,1810536.24776919,1810537.29484029,8,1,76,8,16
36,623,872.015265049413,1,0,1810538.91838966,1810539.96546153,8,1,97,8,4
36,624,888.427690602839,0,0,1810541.94194119,1810542.98900959,8,0,93,0,4
36,625,660.550819709897,0,0,1810544.8949286,1810545.94200009,8,0,67,16,0
36,626,696.988144656643,0,0,1810547.77731571,1810548.8243872,8,0,68,16,8
36,627,554.685400566086,1,0,1810550.71852216,1810551.76559904,8,1,76,0,8
36,628,1134.14095784537,1,0,1810553.48326521,1810554.53032514,8,1,81,8,4
36,629,682.898573577404,0,0,1810556.83624092,1810557.88330855,8,0,91,4,16
36,630,913.072891300544,0,0,1810559.64803774,1810560.69510691,8,0,63,4,0
36,631,802.668782416731,1,0,1810562.68338524,1810563.73045903,8,1,91,0,4
36,632,725.004063686356,0,0,1810565.58934543,1810566.63635379,8,0,69,16,0
36,633,623.522579902783,1,0,1810568.47166672,1810569.51874282,8,1,68,4,4
36,634,521.442096913233,1,0,1810571.3187891,1810572.36585404,8,1,96,0,16
36,635,706.417763372883,0,0,1810574.07173193,1810575.11880573,8,0,85,0,0
36,636,483.934965450317,0,0,1810576.90705987,1810577.95413252,8,0,94,16,4
36,637,1297.10263200104,1,0,1810579.46003204,1810580.5071016,8,1,95,0,4
36,638,485.905965324491,0,0,1810582.86006538,1810583.90718152,8,0,92,4,0
36,639,545.362801058218,0,0,1810585.43657637,1810586.48363669,8,0,74,16,8
36,640,515.59146004729,1,0,1810588.10719838,1810589.15426025,8,1,75,16,0
36,641,687.060771277174,0,0,1810594.23667769,1810595.2837461,9,0,62,8,16
36,642,855.817262781784,0,0,1810597.1778853,1810598.22495525,9,0,65,0,16
36,643,668.937579263002,1,0,1810600.23674044,1810601.28381424,9,1,92,4,16
36,644,614.58417121321,1,0,1810602.96618564,1810604.01325597,9,1,67,0,4
36,645,456.110757077113,0,0,1810605.64857322,1810606.69564162,9,0,72,0,4
36,646,634.763824753463,1,0,1810608.28389084,1810609.33096926,9,1,80,16,0
36,647,557.873647194356,1,0,1810611.1427553,1810612.18988261,9,1,96,16,8
36,648,561.956158140674,0,0,1810613.84866053,1810614.89573471,9,0,85,16,8
36,649,785.651583457366,1,0,1810616.58987168,1810617.63694393,9,1,93,0,0
36,650,446.223034756258,0,0,1810619.47225725,1810620.51932912,9,0,74,4,8
36,651,673.915509367362,1,0,1810622.15464136,1810623.20171862,9,1,78,0,0
36,652,881.339789601043,0,0,1810624.91938055,1810625.96644896,9,0,95,16,0
36,653,488.761990796775,0,0,1810628.04884562,1810629.0959017,9,0,63,0,16
36,654,666.251321788877,1,0,1810630.77827234,1810631.82533805,9,1,66,8,0
36,655,488.10832714662,1,0,1810633.62536508,1810634.67243849,9,1,68,4,4
36,656,778.752312762663,0,0,1810636.26069387,1810637.30777036,9,0,98,8,16
36,657,456.385234137997,1,0,1810639.2019007,1810640.24897258,9,1,74,0,4
36,658,493.049301207066,1,0,1810641.8842775,1810642.93134745,9,1,64,0,8
36,659,740.762055618688,1,0,1810644.56669972,1810645.6137354,9,1,70,4,0
36,660,536.695019807667,1,0,1810647.47258754,1810648.5196598,9,1,88,8,0
36,661,679.97671989724,0,0,1810650.19025717,1810651.23733213,9,0,87,16,16
36,662,476.104859262705,0,0,1810652.99029844,1810654.03736531,9,0,88,4,16
36,663,750.466536497697,1,0,1810655.5667925,1810656.61386706,9,1,94,0,0
36,664,527.805886464193,1,0,1810658.53153431,1810659.57860156,9,1,84,4,8
36,665,732.498098397627,0,0,1810661.17861981,1810662.22569784,9,0,72,4,0
36,666,539.909058948979,0,0,1810664.14337971,1810665.1904408,9,0,67,4,8
36,667,680.924493586645,0,0,1810666.80221268,1810667.84933806,9,0,88,8,16
36,668,546.978867147118,0,0,1810669.6022551,1810670.64932158,9,0,98,16,8
36,669,569.158007856458,0,0,1810672.21404969,1810673.26110924,9,0,73,16,8
36,670,448.737599654123,0,0,1810674.84939657,1810675.89643996,9,0,92,4,0
36,671,566.47867965512,0,0,1810677.54351545,1810678.5905877,9,0,96,0,4
36,672,621.72173243016,1,0,1810680.21413592,1810681.26121433,9,1,67,8,16
36,673,886.365454876795,0,0,1810682.94358497,1810683.99065569,9,0,90,4,16
36,674,617.133382707834,0,0,1810686.0847925,1810687.13186745,9,0,82,8,4
36,675,623.017510864884,0,0,1810688.8260048,1810689.87311902,9,0,74,4,4
36,676,723.235937766731,1,0,1810691.63780047,1810692.68487196,9,1,90,4,8
36,677,868.612210033461,1,0,1810694.47313149,1810695.52019528,9,1,92,0,0
36,678,529.515498084947,1,0,1810697.55552238,1810698.61435365,9,1,84,0,4
36,679,1582.05689466558,0,0,1810700.2967189,1810701.34379346,9,0,96,8,16
36,680,599.797435803339,1,0,1810704.03799973,1810705.08501385,9,1,100,8,4
36,681,620.650001103058,1,0,1810706.83798325,1810707.88507475,9,1,71,8,0
36,682,608.214222127572,0,0,1810709.61447607,1810710.66154679,9,0,88,8,4
36,683,423.022592440248,0,0,1810712.30862497,1810713.35570377,9,0,73,4,0
36,684,612.652821931988,0,0,1810714.88513134,1810715.93219936,9,0,67,4,4
36,685,691.27185922116,0,0,1810717.57927524,1810718.6263652,9,0,64,16,8
36,686,544.913166435435,0,0,1810720.40283724,1810721.44990449,9,0,92,16,4
36,687,466.225606156513,0,0,1810723.1322809,1810724.17934353,9,0,65,8,8
36,688,467.368555255234,1,0,1810725.77937525,1810726.82643635,9,1,85,8,8
36,689,478.854250628501,0,0,1810728.3676418,1810729.41474562,9,0,75,16,16
36,690,509.380114963278,0,0,1810730.99119078,1810732.03827035,9,0,83,0,16
36,691,464.481733040884,1,0,1810733.75601582,1810734.80300262,9,1,96,8,8
36,692,423.571931896731,1,0,1810736.36779116,1810737.41480182,9,1,85,0,16
36,693,439.323764294386,1,0,1810739.05011291,1810740.09718324,9,1,94,16,0
36,694,438.82446992211,0,0,1810741.57962478,1810742.62666124,9,0,73,4,16
36,695,567.9284427315,1,0,1810744.13258733,1810745.17959645,9,1,96,16,4
36,696,737.328588729724,0,0,1810746.90902548,1810747.95610121,9,0,79,4,0
36,697,883.191451895982,0,0,1810749.85024156,1810750.89730997,9,0,95,16,0
36,698,481.449657352641,1,0,1810752.87380117,1810753.92087574,9,1,97,4,16
36,699,471.682427916676,1,0,1810755.4385466,1810756.48560423,9,1,95,0,8
36,700,467.064051190391,1,0,1810758.06210021,1810759.10916091,9,1,71,0,8
36,701,475.250246236101,1,0,1810760.62683101,1810761.67390211,9,1,94,8,4
36,702,672.157007735223,1,0,1810763.21510294,1810764.26216596,9,1,80,16,16
36,703,515.265013324097,1,0,1810766.13277981,1810767.17984899,9,1,72,8,0
36,704,522.518062731251,1,0,1810768.74457132,1810769.7916455,9,1,71,0,8
36,705,948.688324773684,1,0,1810771.4504854,1810772.49755765,9,1,100,16,4
36,706,830.010634846985,1,0,1810774.47404039,1810775.52114652,9,1,62,8,8
36,707,990.93394051306,0,0,1810777.52114921,1810778.56826305,9,0,80,16,0
36,708,488.128345226869,0,0,1810780.63883101,1810781.68590134,9,0,75,4,8
36,709,772.716894978657,0,0,1810783.21532853,1810784.26238693,9,0,69,16,16
36,710,720.864193281159,0,0,1810786.13301117,1810787.18008343,9,0,77,16,16
36,711,593.2812015526,0,0,1810788.95657856,1810790.0036435,9,0,69,0,8
36,712,722.754736663774,1,0,1810791.73313028,1810792.78015403,9,1,84,8,8
36,713,588.763299630955,1,0,1810794.59193776,1810795.6390693,9,1,71,4,4
36,714,1060.25963509455,1,0,1810797.35665925,1810798.40372919,9,1,86,16,4
36,715,573.500367579982,1,0,1810800.56848055,1810801.61555319,9,1,87,4,4
36,716,673.662975197658,1,0,1810803.28615095,1810804.33321589,9,1,97,16,4
36,717,782.837133854628,0,0,1810806.09797356,1810807.14507046,9,0,93,8,4
36,718,1223.81183947437,0,0,1810809.09798781,1810810.14506083,9,0,78,0,0
36,719,609.74059230648,0,0,1810812.54509571,1810813.59216373,9,0,62,0,16
36,720,722.573420032859,1,0,1810815.39221231,1810816.439243,9,1,66,8,0
