sub_id,Trial,RT,Resp,Error,Fix_onset,Disp_onset,block,tid,tloc,fish_setsize,bird_setsize
11,1,746.4687545,1,0,1199691.069,1199692.116,1,1,91,8,16
11,2,780.3495538,0,0,1199693.869,1199694.916,1,0,94,16,8
11,3,570.2216928,1,0,1199696.81,1199697.857,1,1,95,4,16
11,4,504.4376389,0,0,1199699.575,1199700.622,1,0,73,16,0
11,5,588.9030783,1,0,1199702.198,1199703.245,1,1,78,4,8
11,6,585.5046429,0,0,1199705.045,1199706.092,1,0,80,0,0
11,7,647.2804833,0,0,1199707.787,1199708.834,1,0,66,4,8
11,8,753.3591706,1,0,1199710.54,1199711.587,1,1,95,8,16
11,9,535.637185,0,0,1199713.457,1199714.504,1,0,69,4,0
11,10,576.9300226,1,0,1199716.175,1199717.222,1,1,87,4,0
11,11,622.5555958,0,0,1199718.963,1199720.01,1,0,95,4,16
11,12,737.758243,0,0,1199721.763,1199722.81,1,0,70,4,16
11,13,625.9763588,0,0,1199724.74,1199725.787,1,0,62,4,8
11,14,469.8920122,0,0,1199727.528,1199728.575,1,0,64,8,4
11,15,724.5590864,0,0,1199730.116,1199731.163,1,0,89,4,16
11,16,617.7062423,0,0,1199732.928,1199733.975,1,0,65,8,4
11,17,848.0006682,0,0,1199735.799,1199736.846,1,0,99,4,4
11,18,672.497351,1,0,1199738.822,1199739.869,1,1,96,16,16
11,19,796.6268582,1,0,1199741.587,1199742.634,1,1,90,16,0
11,20,718.5467663,1,0,1199744.587,1199745.634,1,1,94,16,4
11,21,660.250203,0,0,1199747.375,1199748.422,1,0,68,0,0
11,22,743.0768635,1,0,1199750.269,1199751.317,1,1,73,16,0
11,23,581.7139323,1,0,1199753.105,1199754.152,1,1,71,16,8
11,24,763.7785242,0,0,1199755.905,1199756.952,1,0,88,4,0
11,25,650.5395628,0,0,1199758.858,1199759.905,1,0,66,8,4
11,26,726.199405,1,0,1199761.74,1199762.787,1,1,81,8,8
11,27,675.3603057,0,0,1199764.705,1199765.752,1,0,87,0,4
11,28,705.7868501,0,0,1199767.529,1199768.576,1,0,94,8,16
11,29,790.5005894,1,0,1199770.352,1199771.399,1,1,91,0,8
11,30,490.3480676,0,0,1199773.258,1199774.305,1,0,73,0,8
11,31,704.4706687,1,0,1199775.917,1199776.964,1,1,74,4,16
11,32,755.0302863,1,0,1199778.752,1199779.799,1,1,72,4,4
11,33,754.7111537,0,0,1199781.693,1199782.74,1,0,99,16,16
11,34,602.1230228,0,0,1199784.611,1199785.658,1,0,75,0,8
11,35,527.1742032,1,0,1199787.411,1199788.458,1,1,77,0,16
11,36,502.0955363,0,0,1199790.058,1199791.105,1,0,75,0,16
11,37,676.2045249,1,0,1199792.623,1199793.67,1,1,72,16,8
11,38,763.5336888,1,0,1199795.447,1199796.494,1,1,76,4,4
11,39,795.7753243,1,0,1199798.364,1199799.411,1,1,100,8,8
11,40,772.7069238,1,0,1199801.305,1199802.352,1,1,82,16,16
11,41,545.2970103,0,0,1199804.294,1199805.341,1,0,62,0,4
11,42,363.6035209,1,0,1199807.011,1199808.058,1,1,84,16,8
11,43,576.0704046,1,0,1199809.529,1199810.576,1,1,90,16,16
11,44,511.7318791,1,0,1199812.211,1199813.258,1,1,66,8,0
11,45,745.3662262,0,0,1199814.859,1199815.906,1,0,79,8,8
11,46,403.5774823,1,1,1199817.67,1199818.717,1,0,65,4,8
11,47,635.913356,1,0,1199820.329,1199821.376,1,1,87,8,16
11,48,565.3688749,0,0,1199823.059,1199824.106,1,0,80,16,4
11,49,531.7825708,0,0,1199825.729,1199826.776,1,0,87,4,8
11,50,562.971723,1,0,1199828.4,1199829.447,1,1,89,0,8
11,51,435.1777725,0,0,1199831.212,1199832.259,1,0,68,0,4
11,52,506.1441709,0,0,1199833.718,1199834.765,1,0,96,8,4
11,53,759.4800501,1,0,1199836.329,1199837.376,1,1,81,4,0
11,54,552.7679478,0,0,1199839.2,1199840.247,1,0,87,16,16
11,55,863.8371923,1,0,1199841.965,1199843.012,1,1,72,0,16
11,56,565.8593152,0,0,1199844.918,1199845.965,1,0,68,16,4
11,57,532.1871648,0,0,1199847.682,1199848.729,1,0,85,4,4
11,58,631.7219012,1,0,1199850.353,1199851.4,1,1,88,8,0
11,59,695.148454,1,0,1199853.141,1199854.188,1,1,61,0,0
11,60,624.2505787,0,0,1199855.941,1199856.988,1,0,79,16,0
11,61,678.2317297,1,0,1199858.753,1199859.8,1,1,65,16,4
11,62,437.3062216,0,0,1199861.659,1199862.706,1,0,61,8,0
11,63,620.1049341,1,0,1199864.341,1199865.389,1,1,87,8,0
11,64,620.0102337,0,0,1199867.036,1199868.083,1,0,75,8,8
11,65,552.0072649,1,0,1199869.753,1199870.8,1,1,66,4,0
11,66,559.1840921,0,0,1199872.553,1199873.6,1,0,95,0,0
11,67,797.8217769,1,0,1199875.295,1199876.342,1,1,93,0,16
11,68,470.4975558,0,0,1199878.177,1199879.224,1,0,65,0,4
11,69,543.7748746,1,0,1199880.8,1199881.848,1,1,88,4,4
11,70,618.2971576,0,0,1199883.483,1199884.53,1,0,94,16,4
11,71,614.367476,1,0,1199886.283,1199887.33,1,1,87,16,0
11,72,433.6190654,1,0,1199889.142,1199890.189,1,1,75,8,8
11,73,509.8979252,0,0,1199891.718,1199892.765,1,0,98,0,4
11,74,610.5236409,0,0,1199894.295,1199895.342,1,0,91,16,8
11,75,390.158898,0,0,1199897.083,1199898.13,1,0,96,0,8
11,76,624.3602925,1,0,1199899.589,1199900.636,1,1,93,8,0
11,77,498.1974217,1,0,1199902.389,1199903.436,1,1,63,0,0
11,78,543.6070317,1,0,1199905.06,1199906.107,1,1,68,8,16
11,79,591.450365,1,0,1199907.766,1199908.813,1,1,70,0,16
11,80,571.0004687,1,0,1199910.448,1199911.495,1,1,98,8,4
11,81,518.9641409,1,0,1199920.507,1199921.554,2,1,73,8,8
11,82,438.0418821,0,0,1199923.107,1199924.154,2,0,74,0,8
11,83,471.1901005,1,0,1199925.719,1199926.766,2,1,98,0,8
11,84,449.1788028,1,0,1199928.366,1199929.413,2,1,83,4,8
11,85,522.7271342,0,0,1199930.907,1199931.954,2,0,94,0,8
11,86,521.979925,0,0,1199933.519,1199934.566,2,0,88,8,16
11,87,535.1386606,0,0,1199936.131,1199937.178,2,0,94,4,0
11,88,494.4852432,0,1,1199938.895,1199939.942,2,1,89,16,0
11,89,692.514166,0,0,1199941.495,1199942.542,2,0,98,8,16
11,90,634.3126884,0,0,1199944.401,1199945.448,2,0,86,16,16
11,91,675.3737794,1,0,1199947.107,1199948.154,2,1,92,8,0
11,92,592.427396,1,0,1199950.001,1199951.048,2,1,93,0,4
11,93,655.930171,0,0,1199952.684,1199953.731,2,0,72,4,16
11,94,609.4977197,0,0,1199955.472,1199956.519,2,0,88,0,4
11,95,493.6325548,1,0,1199958.319,1199959.366,2,1,87,8,0
11,96,695.4229311,0,0,1199961.025,1199962.072,2,0,90,0,8
11,97,582.0396093,0,0,1199963.907,1199964.954,2,0,98,0,0
11,98,471.8025734,0,0,1199966.637,1199967.684,2,0,87,8,16
11,99,641.562273,1,0,1199969.331,1199970.378,2,1,80,4,0
11,100,509.7254626,0,0,1199972.202,1199973.249,2,0,64,0,16
11,101,581.7120075,0,0,1199974.907,1199975.955,2,0,90,16,4
11,102,473.8852121,1,0,1199977.602,1199978.649,2,1,85,8,4
11,103,603.795293,0,0,1199980.26,1199981.308,2,0,68,4,16
11,104,633.9970203,0,0,1199983.025,1199984.072,2,0,100,16,8
11,105,626.9503101,0,0,1199985.766,1199986.814,2,0,85,16,0
11,106,632.0260202,1,0,1199988.484,1199989.531,2,1,77,16,8
11,107,798.5466584,1,0,1199991.308,1199992.355,2,1,99,8,0
11,108,697.9871562,0,0,1199994.19,1199995.237,2,0,68,16,16
11,109,588.0569341,0,0,1199997.096,1199998.143,2,0,86,16,8
11,110,745.3939435,1,0,1199999.861,1200000.908,2,1,81,8,16
11,111,860.0922921,0,0,1200002.696,1200003.743,2,0,84,16,16
11,112,607.5394233,0,0,1200005.767,1200006.814,2,0,97,8,4
11,113,641.3940452,1,0,1200008.614,1200009.661,2,1,74,4,8
11,114,771.4746636,0,0,1200011.331,1200012.379,2,0,71,8,4
11,115,515.3759196,0,0,1200014.179,1200015.226,2,0,62,4,4
11,116,652.0605434,0,0,1200016.908,1200017.955,2,0,97,16,8
11,117,523.0300983,0,0,1200019.767,1200020.814,2,0,99,0,16
11,118,617.1769211,1,0,1200022.379,1200023.426,2,1,80,0,0
11,119,694.2726679,1,0,1200025.132,1200026.179,2,1,62,0,8
11,120,550.2637767,0,0,1200027.99,1200029.038,2,0,95,4,8
11,121,714.1254894,1,0,1200030.626,1200031.673,2,1,89,16,4
11,122,575.1572773,0,0,1200033.438,1200034.485,2,0,94,16,0
11,123,593.2989474,0,0,1200036.238,1200037.285,2,0,89,8,4
11,124,663.33528,1,0,1200038.944,1200039.991,2,1,73,16,8
11,125,671.9480117,1,0,1200041.791,1200042.838,2,1,80,8,0
11,126,629.5572657,0,0,1200044.614,1200045.661,2,0,97,16,16
11,127,805.03864,1,0,1200047.344,1200048.391,2,1,70,8,0
11,128,817.6973113,0,0,1200050.273,1200051.32,2,0,77,4,0
11,129,729.8954153,1,0,1200053.191,1200054.238,2,1,72,0,16
11,130,535.9466935,1,0,1200056.003,1200057.05,2,1,70,0,0
11,131,489.9619517,0,0,1200058.65,1200059.697,2,0,73,4,16
11,132,774.0573667,1,0,1200061.261,1200062.309,2,1,63,4,16
11,133,654.6524856,1,0,1200064.144,1200065.191,2,1,80,4,16
11,134,973.5645398,1,0,1200067.003,1200068.05,2,1,93,0,4
11,135,549.7309908,0,0,1200070.109,1200071.156,2,0,79,4,4
11,136,540.8387776,1,0,1200072.709,1200073.756,2,1,75,16,4
11,137,459.6870821,0,0,1200075.309,1200076.356,2,0,75,4,8
11,138,633.75411,1,0,1200077.92,1200078.968,2,1,91,4,4
11,139,593.9887974,1,0,1200080.685,1200081.732,2,1,98,8,4
11,140,514.5313153,1,0,1200083.509,1200084.556,2,1,77,8,8
11,141,779.0657089,1,0,1200086.085,1200087.132,2,1,81,16,0
11,142,647.4544855,0,0,1200088.956,1200090.003,2,0,97,0,0
11,143,720.659432,0,0,1200091.732,1200092.78,2,0,69,4,0
11,144,683.6642986,1,0,1200094.532,1200095.58,2,1,80,8,8
11,145,807.2001957,0,0,1200097.356,1200098.403,2,0,70,4,4
11,146,618.0838891,1,0,1200100.25,1200101.297,2,1,98,0,4
11,147,866.8641404,1,0,1200103.003,1200104.05,2,1,83,8,8
11,148,493.6437185,0,0,1200105.944,1200106.991,2,0,95,8,16
11,149,600.8495716,1,0,1200108.556,1200109.603,2,1,96,16,0
11,150,599.0213922,1,0,1200111.215,1200112.262,2,1,64,4,0
11,151,497.3736051,0,0,1200113.991,1200115.039,2,0,87,4,4
11,152,739.4790184,1,0,1200116.744,1200117.792,2,1,68,16,16
11,153,740.1938909,1,0,1200119.627,1200120.674,2,1,70,0,4
11,154,678.9369779,1,0,1200122.521,1200123.568,2,1,67,8,8
11,155,535.1117132,0,0,1200125.427,1200126.474,2,0,75,0,16
11,156,655.9374852,1,0,1200128.074,1200129.121,2,1,98,0,0
11,157,504.9823588,1,0,1200130.827,1200131.874,2,1,66,0,16
11,158,449.4786873,0,0,1200133.451,1200134.498,2,0,75,4,8
11,159,492.4549591,1,0,1200136.156,1200137.204,2,1,64,16,4
11,160,733.20069,0,0,1200138.709,1200139.757,2,0,75,16,4
11,161,781.7927722,0,0,1200146.086,1200147.133,3,0,81,4,4
11,162,606.1435549,0,0,1200148.945,1200150.015,3,0,94,0,4
11,163,678.7348734,1,0,1200151.698,1200152.745,3,1,72,8,16
11,164,669.0169189,1,0,1200154.604,1200155.651,3,1,97,8,4
11,165,776.747474,0,0,1200157.404,1200158.451,3,0,91,16,8
11,166,491.31047,0,0,1200160.38,1200161.427,3,0,85,16,4
11,167,497.1576422,0,0,1200162.922,1200163.969,3,0,76,8,16
11,168,581.8120975,0,0,1200165.616,1200166.663,3,0,74,16,16
11,169,648.8850005,0,0,1200168.427,1200169.475,3,0,61,0,8
11,170,472.7476526,0,0,1200171.263,1200172.31,3,0,67,4,8
11,171,623.6034594,0,0,1200173.816,1200174.863,3,0,79,4,8
11,172,664.5251946,1,0,1200176.51,1200177.557,3,1,86,8,0
11,173,772.7561989,0,0,1200179.333,1200180.381,3,0,95,8,4
11,174,759.5343294,1,0,1200182.275,1200183.322,3,1,64,0,0
11,175,615.0604058,1,0,1200185.192,1200186.239,3,1,87,4,8
11,176,449.8621083,0,0,1200187.992,1200189.039,3,0,75,4,16
11,177,701.4645084,1,0,1200190.628,1200191.675,3,1,80,4,16
11,178,567.0126581,1,0,1200193.557,1200194.604,3,1,65,0,16
11,179,459.5373322,0,0,1200196.24,1200197.287,3,0,85,8,4
11,180,691.6845753,1,0,1200198.793,1200199.84,3,1,71,16,0
11,181,757.7812173,1,0,1200201.698,1200202.746,3,1,100,4,0
11,182,627.2209375,0,0,1200204.675,1200205.722,3,0,100,0,16
11,183,642.1836002,1,0,1200207.522,1200208.569,3,1,84,8,4
11,184,593.5041318,1,0,1200210.346,1200211.393,3,1,95,4,0
11,185,473.1537865,0,0,1200213.028,1200214.075,3,0,79,8,8
11,186,663.5704914,0,0,1200215.71,1200216.757,3,0,92,16,0
11,187,547.9031962,1,0,1200218.475,1200219.522,3,1,85,4,8
11,188,663.1146974,0,0,1200221.134,1200222.181,3,0,97,16,16
11,189,452.1322234,0,0,1200224.052,1200225.099,3,0,98,4,0
11,190,667.0343701,0,0,1200226.699,1200227.746,3,0,74,16,16
11,191,723.8284305,1,0,1200229.605,1200230.652,3,1,67,16,8
11,192,609.19976,0,0,1200232.405,1200233.452,3,0,94,4,4
11,193,537.5585251,0,0,1200235.075,1200236.122,3,0,94,0,8
11,194,520.4693382,0,0,1200237.828,1200238.875,3,0,74,0,0
11,195,499.4801115,0,0,1200240.534,1200241.581,3,0,67,0,4
11,196,670.9340245,0,0,1200243.158,1200244.205,3,0,81,8,0
11,197,501.0534471,1,0,1200245.97,1200247.017,3,1,74,8,16
11,198,613.5555934,1,0,1200248.64,1200249.687,3,1,84,8,8
11,199,562.4747383,0,0,1200251.393,1200252.44,3,0,87,16,4
11,200,494.1199154,0,0,1200254.123,1200255.17,3,0,73,8,8
11,201,630.7953,1,0,1200256.77,1200257.817,3,1,62,8,0
11,202,565.6579807,1,0,1200259.605,1200260.652,3,1,63,8,8
11,203,713.9399385,0,0,1200262.276,1200263.323,3,0,93,16,0
11,204,810.5004663,1,0,1200265.052,1200266.099,3,1,99,16,0
11,205,693.4596302,0,0,1200268.005,1200269.052,3,0,80,4,16
11,206,809.2920738,1,0,1200270.899,1200271.946,3,1,97,8,0
11,207,787.9013328,1,0,1200273.782,1200274.829,3,1,90,16,4
11,208,618.075035,1,0,1200276.746,1200277.793,3,1,61,4,0
11,209,494.6365329,1,0,1200279.476,1200280.523,3,1,80,0,0
11,210,615.7968361,1,0,1200282.194,1200283.241,3,1,67,0,4
11,211,582.9223248,0,0,1200285.052,1200286.1,3,0,100,4,16
11,212,515.6623307,1,0,1200287.7,1200288.747,3,1,94,0,8
11,213,475.2737666,1,0,1200290.276,1200291.323,3,1,66,0,8
11,214,689.9499411,1,0,1200292.911,1200293.958,3,1,84,16,4
11,215,683.7697779,1,0,1200295.7,1200296.747,3,1,92,0,0
11,216,776.7979039,0,0,1200298.617,1200299.664,3,0,69,4,4
11,217,668.3370778,0,0,1200301.641,1200302.688,3,0,71,0,16
11,218,772.3188831,0,0,1200304.535,1200305.582,3,0,65,16,16
11,219,643.4759139,1,0,1200307.547,1200308.594,3,1,77,0,0
11,220,716.5703767,0,0,1200310.417,1200311.464,3,0,94,16,8
11,221,578.4413791,0,0,1200313.312,1200314.359,3,0,65,16,0
11,222,656.3112824,1,0,1200316.112,1200317.159,3,1,78,16,8
11,223,762.5135423,0,0,1200318.865,1200319.912,3,0,97,0,16
11,224,723.1312662,0,0,1200321.7,1200322.747,3,0,93,4,0
11,225,777.0800802,0,0,1200324.653,1200325.7,3,0,92,16,16
11,226,848.2181712,1,0,1200327.618,1200328.665,3,1,71,16,8
11,227,559.2888014,0,0,1200330.676,1200331.724,3,0,98,8,8
11,228,736.6218381,1,0,1200333.347,1200334.394,3,1,67,0,4
11,229,736.4597698,1,0,1200336.241,1200337.288,3,1,80,8,16
11,230,608.8275027,1,0,1200339.112,1200340.159,3,1,69,0,8
11,231,575.997262,1,0,1200341.912,1200342.959,3,1,84,4,4
11,232,562.5509606,0,0,1200344.653,1200345.7,3,0,94,0,16
11,233,718.1236942,1,0,1200347.324,1200348.371,3,1,94,8,16
11,234,699.5697306,1,0,1200350.159,1200351.206,3,1,81,4,16
11,235,641.8444496,1,0,1200353.065,1200354.112,3,1,83,8,4
11,236,803.9218683,1,0,1200355.936,1200356.983,3,1,84,8,0
11,237,683.7285869,1,0,1200358.877,1200359.924,3,1,87,4,8
11,238,716.29051,1,0,1200361.653,1200362.7,3,1,81,0,4
11,239,664.3242447,0,0,1200364.512,1200365.559,3,0,81,16,4
11,240,677.782865,0,0,1200367.43,1200368.477,3,0,94,4,4
11,241,701.0845519,0,0,1200375.465,1200376.512,4,0,99,4,4
11,242,613.5055483,0,0,1200378.277,1200379.324,4,0,92,0,16
11,243,637.0135744,1,0,1200381.018,1200382.065,4,1,76,4,8
11,244,552.6909556,0,0,1200383.842,1200384.889,4,0,71,8,0
11,245,486.2955837,1,0,1200386.536,1200387.583,4,1,75,0,16
11,246,618.7394776,0,0,1200389.265,1200390.312,4,0,92,0,8
11,247,640.7919661,0,0,1200392.065,1200393.112,4,0,65,16,0
11,248,701.0622241,1,0,1200394.83,1200395.877,4,1,82,16,4
11,249,510.9838999,1,0,1200397.771,1200398.818,4,1,84,16,8
11,250,486.1108023,0,0,1200400.395,1200401.442,4,0,75,16,4
11,251,869.8556719,0,0,1200402.983,1200404.03,4,0,95,8,16
11,252,641.9891948,0,0,1200405.983,1200407.03,4,0,94,4,0
11,253,765.2610089,1,0,1200408.701,1200409.748,4,1,88,8,8
11,254,646.7373034,0,0,1200411.677,1200412.724,4,0,63,16,16
11,255,634.3846761,0,0,1200414.56,1200415.607,4,0,77,0,8
11,256,564.9076917,0,0,1200417.336,1200418.383,4,0,93,0,8
11,257,557.024461,0,0,1200420.007,1200421.054,4,0,96,4,0
11,258,769.3646927,1,0,1200422.772,1200423.819,4,1,64,4,8
11,259,558.5454418,0,0,1200425.689,1200426.736,4,0,80,16,8
11,260,422.1364502,0,1,1200428.313,1200429.36,4,1,88,0,16
11,261,630.8996244,1,0,1200430.866,1200431.913,4,1,63,0,0
11,262,640.4639797,1,0,1200433.689,1200434.737,4,1,62,8,0
11,263,794.1273067,1,0,1200436.525,1200437.572,4,1,90,8,8
11,264,612.4403614,1,0,1200439.454,1200440.501,4,1,92,0,0
11,265,569.4467663,1,0,1200442.195,1200443.243,4,1,78,16,0
11,266,639.6282294,0,0,1200444.866,1200445.913,4,0,94,16,8
11,267,565.7122601,1,0,1200447.725,1200448.772,4,1,73,4,4
11,268,524.1788218,0,0,1200450.548,1200451.596,4,0,88,0,16
11,269,508.9736339,1,0,1200453.184,1200454.231,4,1,73,8,16
11,270,623.0706733,1,0,1200455.843,1200456.89,4,1,92,0,8
11,271,755.3228566,0,0,1200458.56,1200459.607,4,0,70,4,8
11,272,784.4020377,0,0,1200461.372,1200462.419,4,0,94,4,8
11,273,667.5917935,0,0,1200464.337,1200465.384,4,0,63,8,4
11,274,545.7997695,1,0,1200467.102,1200468.149,4,1,87,8,8
11,275,464.8255408,0,0,1200469.902,1200470.949,4,0,74,0,16
11,276,607.7827187,0,0,1200472.455,1200473.502,4,0,68,4,4
11,277,534.7510048,0,0,1200475.161,1200476.208,4,0,65,4,0
11,278,674.6785399,1,0,1200477.808,1200478.855,4,1,90,8,4
11,279,571.766926,1,0,1200480.666,1200481.714,4,1,75,4,0
11,280,608.46179,0,0,1200483.349,1200484.396,4,0,67,4,0
11,281,829.2057193,1,0,1200486.184,1200487.231,4,1,71,8,4
11,282,680.070688,1,0,1200489.231,1200490.278,4,1,70,8,16
11,283,733.2391862,1,0,1200491.996,1200493.043,4,1,98,4,16
11,284,605.4205983,1,0,1200494.902,1200495.949,4,1,88,0,4
11,285,689.5203248,1,0,1200497.62,1200498.667,4,1,96,4,16
11,286,598.736906,0,0,1200500.373,1200501.42,4,0,77,16,16
11,287,873.3622814,1,0,1200503.114,1200504.161,4,1,98,16,0
11,288,715.7742772,0,0,1200506.184,1200507.232,4,0,92,4,8
11,289,627.6070531,1,0,1200509.126,1200510.173,4,1,97,16,8
11,290,691.3015391,0,0,1200511.914,1200512.961,4,0,91,0,0
11,291,650.9480064,0,0,1200514.702,1200515.749,4,0,86,8,0
11,292,607.6872484,0,0,1200517.49,1200518.538,4,0,94,0,4
11,293,686.4968413,1,0,1200520.232,1200521.279,4,1,70,8,16
11,294,674.5434187,0,0,1200523.149,1200524.196,4,0,68,16,16
11,295,621.6397735,0,0,1200526.008,1200527.055,4,0,70,0,4
11,296,788.9095456,1,0,1200528.867,1200529.914,4,1,65,4,4
11,297,921.8550436,0,0,1200531.914,1200532.961,4,0,67,8,4
11,298,761.4522052,0,0,1200534.949,1200535.997,4,0,96,16,16
11,299,704.1969614,1,0,1200537.938,1200538.985,4,1,63,8,8
11,300,724.3746903,1,0,1200540.75,1200541.797,4,1,89,16,16
11,301,842.1261639,1,0,1200543.703,1200544.75,4,1,71,8,16
11,302,746.3247792,1,0,1200546.714,1200547.761,4,1,72,16,0
11,303,771.8742532,1,0,1200549.585,1200550.632,4,1,78,8,4
11,304,700.9413466,1,0,1200552.597,1200553.644,4,1,62,0,4
11,305,724.4990326,1,0,1200555.479,1200556.526,4,1,86,4,16
11,306,763.4401435,1,0,1200558.326,1200559.373,4,1,73,16,4
11,307,814.8358965,0,0,1200561.303,1200562.35,4,0,95,4,16
11,308,949.2484808,0,0,1200564.279,1200565.326,4,0,98,4,4
11,309,720.2494484,0,0,1200567.373,1200568.42,4,0,100,8,0
11,310,643.438573,1,0,1200570.244,1200571.291,4,1,93,0,8
11,311,715.874752,0,0,1200572.962,1200574.009,4,0,92,8,0
11,312,634.1937354,1,0,1200575.879,1200576.926,4,1,65,0,0
11,313,657.0119113,0,0,1200578.679,1200579.726,4,0,80,16,4
11,314,558.3945371,0,0,1200581.397,1200582.444,4,0,80,0,0
11,315,585.8718958,0,0,1200584.021,1200585.068,4,0,86,4,16
11,316,641.4313863,0,0,1200586.715,1200587.762,4,0,61,0,4
11,317,791.4987931,1,0,1200589.468,1200590.515,4,1,92,16,0
11,318,658.7985151,1,0,1200592.338,1200593.385,4,1,98,16,4
11,319,806.1280795,1,0,1200595.162,1200596.209,4,1,71,16,8
11,320,785.5484514,0,0,1200598.174,1200599.221,4,0,70,8,8
11,321,802.9710148,0,0,1200605.562,1200606.609,5,0,92,16,0
11,322,648.2717576,1,0,1200608.621,1200609.668,5,1,90,4,0
11,323,554.4467627,1,0,1200611.492,1200612.539,5,1,85,0,0
11,324,651.1412566,1,0,1200614.28,1200615.327,5,1,90,4,0
11,325,762.9670266,1,0,1200617.174,1200618.221,5,1,100,8,0
11,326,809.2100769,0,0,1200620.139,1200621.186,5,0,88,16,16
11,327,733.9201821,0,0,1200623.174,1200624.221,5,0,99,16,8
11,328,661.6914968,0,0,1200626.056,1200627.104,5,0,76,8,8
11,329,652.824691,0,0,1200628.974,1200630.021,5,0,91,8,16
11,330,777.3072072,1,0,1200631.704,1200632.751,5,1,73,4,4
11,331,699.3237406,1,0,1200634.704,1200635.751,5,1,61,8,4
11,332,582.8403281,1,0,1200637.586,1200638.633,5,1,90,0,0
11,333,550.1952535,0,0,1200640.268,1200641.316,5,0,77,4,16
11,334,875.9954143,1,0,1200643.045,1200644.092,5,1,92,16,8
11,335,834.1717157,0,0,1200646.01,1200647.057,5,0,64,4,8
11,336,624.799533,0,0,1200648.904,1200649.951,5,0,99,4,4
11,337,653.4325443,1,0,1200651.774,1200652.821,5,1,73,4,0
11,338,831.8607952,1,0,1200654.504,1200655.551,5,1,80,16,16
11,339,560.4294408,1,0,1200657.586,1200658.633,5,1,63,4,8
11,340,641.2685479,1,0,1200660.339,1200661.386,5,1,87,0,16
11,341,656.3339951,1,0,1200663.186,1200664.233,5,1,69,16,16
11,342,595.6021689,1,0,1200666.057,1200667.104,5,1,61,16,0
11,343,752.6154262,1,0,1200668.904,1200669.951,5,1,85,0,8
11,344,727.9529022,1,0,1200671.775,1200672.822,5,1,85,4,8
11,345,637.047451,1,0,1200674.739,1200675.786,5,1,73,16,8
11,346,571.3769607,1,0,1200677.598,1200678.645,5,1,79,4,4
11,347,497.2457984,0,0,1200680.257,1200681.304,5,0,77,0,16
11,348,484.0728191,0,0,1200682.951,1200683.998,5,0,94,0,8
11,349,483.5038467,0,0,1200685.622,1200686.669,5,0,68,4,16
11,350,705.7614427,0,0,1200688.245,1200689.293,5,0,99,16,8
11,351,807.7876463,0,0,1200691.198,1200692.246,5,0,90,8,4
11,352,892.6676887,1,0,1200694.093,1200695.14,5,1,68,8,8
11,353,572.0071418,0,0,1200697.057,1200698.104,5,0,97,16,4
11,354,550.4527926,1,0,1200699.787,1200700.834,5,1,76,8,0
11,355,663.0442496,1,0,1200702.516,1200703.563,5,1,68,0,8
11,356,569.1334081,0,0,1200705.328,1200706.375,5,0,80,8,16
11,357,688.9209405,0,0,1200708.022,1200709.069,5,0,89,8,16
11,358,474.3267624,0,0,1200710.893,1200711.94,5,0,76,4,8
11,359,628.8385435,1,0,1200713.516,1200714.563,5,1,88,4,0
11,360,667.6984276,1,0,1200716.316,1200717.363,5,1,71,0,16
11,361,520.3557748,0,0,1200719.105,1200720.152,5,0,76,4,8
11,362,741.7968684,0,0,1200721.822,1200722.869,5,0,92,4,16
11,363,700.4424371,1,0,1200724.669,1200725.716,5,1,91,16,4
11,364,755.0637778,1,0,1200727.552,1200728.599,5,1,81,16,8
11,365,726.9092731,0,0,1200730.54,1200731.587,5,0,69,0,4
11,366,999.0108444,1,0,1200733.352,1200734.399,5,1,94,8,0
11,367,846.4173239,0,0,1200736.47,1200737.517,5,0,79,16,16
11,368,664.8100656,0,0,1200739.54,1200740.587,5,0,99,0,4
11,369,943.7408443,0,0,1200742.293,1200743.34,5,0,69,16,4
11,370,604.0882485,0,0,1200745.423,1200746.47,5,0,65,8,16
11,371,633.8249426,0,1,1200748.164,1200749.211,5,1,66,0,4
11,372,559.4404759,0,0,1200751.046,1200752.093,5,0,69,4,4
11,373,567.9469586,1,0,1200753.823,1200754.87,5,1,76,16,0
11,374,600.740243,1,0,1200756.505,1200757.552,5,1,71,0,16
11,375,679.3030759,0,0,1200759.187,1200760.235,5,0,83,16,0
11,376,614.3320594,1,0,1200762.105,1200763.152,5,1,80,4,16
11,377,678.4573165,1,0,1200764.858,1200765.905,5,1,91,0,4
11,378,626.6080798,0,0,1200767.611,1200768.658,5,0,99,8,16
11,379,617.4067426,0,0,1200770.458,1200771.505,5,0,89,0,0
11,380,818.69744,0,0,1200773.176,1200774.223,5,0,73,8,8
11,381,886.7735513,0,0,1200776.082,1200777.129,5,0,96,8,4
11,382,785.7436268,0,0,1200779.047,1200780.094,5,0,77,8,0
11,383,938.2393672,0,0,1200781.917,1200782.964,5,0,80,16,4
11,384,674.6177161,1,0,1200785.094,1200786.141,5,1,66,4,16
11,385,678.0161513,1,0,1200788.011,1200789.058,5,1,98,8,8
11,386,537.6539954,1,0,1200790.788,1200791.835,5,1,74,0,8
11,387,633.85112,0,0,1200793.553,1200794.6,5,0,79,0,16
11,388,764.1554009,1,0,1200796.376,1200797.423,5,1,82,8,4
11,389,585.0707919,1,0,1200799.329,1200800.376,5,1,77,16,4
11,390,644.3543951,0,0,1200802,1200803.047,5,0,65,8,8
11,391,575.762436,0,0,1200804.776,1200805.823,5,0,95,0,8
11,392,562.4635746,0,0,1200807.6,1200808.647,5,0,68,0,4
11,393,725.2851229,1,0,1200810.4,1200811.447,5,1,64,8,4
11,394,737.5707668,0,0,1200813.223,1200814.27,5,0,92,8,0
11,395,540.1808792,1,0,1200816.153,1200817.2,5,1,67,4,4
11,396,636.8823028,0,0,1200818.941,1200819.988,5,0,81,4,0
11,397,663.278691,0,0,1200821.718,1200822.765,5,0,75,16,16
11,398,658.8181481,1,0,1200824.541,1200825.588,5,1,70,0,0
11,399,642.7918384,1,0,1200827.341,1200828.388,5,1,97,16,0
11,400,642.0611825,0,0,1200830.165,1200831.212,5,0,76,0,0
11,401,737.490695,1,0,1200837.282,1200838.33,6,1,87,16,8
11,402,782.5107246,1,0,1200840.188,1200841.235,6,1,81,16,8
11,403,654.4888774,1,0,1200843.047,1200844.094,6,1,88,16,4
11,404,759.698323,1,0,1200845.765,1200846.812,6,1,71,16,0
11,405,678.8314986,0,0,1200848.624,1200849.671,6,0,100,4,16
11,406,655.5729273,0,0,1200851.4,1200852.447,6,0,80,0,0
11,407,700.4605304,1,0,1200854.2,1200855.247,6,1,96,0,16
11,408,743.1985112,0,0,1200856.989,1200858.036,6,0,76,4,4
11,409,725.0260441,1,0,1200859.847,1200860.895,6,1,64,4,8
11,410,662.4864412,1,0,1200862.718,1200863.765,6,1,68,16,16
11,411,677.527251,1,0,1200865.471,1200866.518,6,1,70,4,4
11,412,643.4789938,0,0,1200868.365,1200869.412,6,0,79,4,0
11,413,725.7028054,0,0,1200871.13,1200872.177,6,0,81,16,0
11,414,783.7445245,0,0,1200874.036,1200875.083,6,0,98,0,16
11,415,743.0926471,1,0,1200877.012,1200878.059,6,1,79,0,4
11,416,619.011645,0,0,1200879.918,1200880.965,6,0,83,4,8
11,417,722.5742277,1,0,1200882.695,1200883.742,6,1,96,16,4
11,418,716.0834009,1,0,1200885.565,1200886.612,6,1,100,0,4
11,419,690.3418314,0,0,1200888.436,1200889.483,6,0,70,8,0
11,420,547.5016818,0,0,1200891.201,1200892.248,6,0,95,0,8
11,421,861.244865,1,0,1200893.883,1200894.93,6,1,78,4,0
11,422,683.157305,1,0,1200896.895,1200897.942,6,1,71,0,8
11,423,628.9717401,1,0,1200899.777,1200900.824,6,1,80,8,8
11,424,639.1131515,0,0,1200902.483,1200903.53,6,0,98,8,8
11,425,623.2138788,0,0,1200905.295,1200906.342,6,0,65,4,4
11,426,790.8027836,0,0,1200907.989,1200909.036,6,0,91,16,4
11,427,531.8549436,0,0,1200910.942,1200911.989,6,0,67,0,4
11,428,605.3663187,0,0,1200913.613,1200914.66,6,0,89,8,4
11,429,636.4334382,0,0,1200916.378,1200917.425,6,0,82,4,16
11,430,553.6294905,0,0,1200919.083,1200920.131,6,0,87,8,16
11,431,665.2416068,0,0,1200921.719,1200922.766,6,0,78,4,0
11,432,679.4847774,0,0,1200924.542,1200925.589,6,0,77,4,0
11,433,502.6706683,0,0,1200927.354,1200928.401,6,0,67,0,8
11,434,608.5880569,0,0,1200930.001,1200931.048,6,0,84,0,8
11,435,585.3941592,1,0,1200932.79,1200933.837,6,1,76,8,0
11,436,833.6574079,1,0,1200935.448,1200936.495,6,1,74,16,16
11,437,772.1622039,1,0,1200938.531,1200939.578,6,1,72,0,0
11,438,592.0928647,1,0,1200941.531,1200942.578,6,1,94,0,4
11,439,1060.564177,1,0,1200944.26,1200945.307,6,1,90,4,8
11,440,491.0864229,0,0,1200947.39,1200948.437,6,0,75,0,0
11,441,639.8411125,1,0,1200950.025,1200951.072,6,1,68,4,4
11,442,643.5548312,0,0,1200952.825,1200953.872,6,0,98,4,16
11,443,580.9790418,0,0,1200955.649,1200956.696,6,0,98,16,16
11,444,715.4782424,1,0,1200958.378,1200959.425,6,1,98,16,0
11,445,626.7967105,0,0,1200961.19,1200962.237,6,0,80,0,16
11,446,619.8358466,1,0,1200963.99,1200965.037,6,1,63,8,8
11,447,586.1117262,0,0,1200966.719,1200967.766,6,0,79,16,8
11,448,621.2856092,0,0,1200969.531,1200970.578,6,0,89,0,0
11,449,686.4125347,0,0,1200972.39,1200973.437,6,0,93,16,4
11,450,661.8543353,1,0,1200975.202,1200976.249,6,1,94,8,4
11,451,695.6169514,0,0,1200977.943,1200978.99,6,0,93,16,0
11,452,589.1694713,1,0,1200980.837,1200981.884,6,1,100,16,16
11,453,797.0010401,0,0,1200983.531,1200984.578,6,0,83,16,8
11,454,613.7215116,0,0,1200986.567,1200987.614,6,0,70,4,4
11,455,575.5218354,1,0,1200989.355,1200990.402,6,1,66,0,4
11,456,653.2339044,1,0,1200992.096,1200993.143,6,1,68,8,0
11,457,710.697412,0,0,1200994.92,1200995.967,6,0,62,8,4
11,458,650.684308,0,0,1200997.767,1200998.814,6,0,64,8,8
11,459,608.1746088,1,0,1201000.661,1201001.708,6,1,76,8,16
11,460,551.5695643,1,0,1201003.32,1201004.367,6,1,87,0,0
11,461,727.600663,1,0,1201005.932,1201006.979,6,1,95,0,8
11,462,615.1073708,0,0,1201008.755,1201009.802,6,0,99,4,16
11,463,668.3520912,1,0,1201011.52,1201012.567,6,1,98,8,4
11,464,818.5199727,1,0,1201014.379,1201015.426,6,1,85,4,8
11,465,804.1867213,0,0,1201017.379,1201018.426,6,0,69,8,16
11,466,863.4741739,0,0,1201020.296,1201021.344,6,0,77,8,8
11,467,726.0561995,0,0,1201023.379,1201024.426,6,0,99,0,16
11,468,566.6735074,1,0,1201026.308,1201027.355,6,1,99,8,0
11,469,757.7569648,1,0,1201029.073,1201030.12,6,1,63,8,16
11,470,1015.209617,1,0,1201031.991,1201033.038,6,1,91,16,8
11,471,601.3361623,1,0,1201035.202,1201036.25,6,1,96,16,16
11,472,712.7935246,0,0,1201037.932,1201038.979,6,0,93,16,4
11,473,910.5063945,1,0,1201040.814,1201041.861,6,1,71,4,16
11,474,654.8699886,0,0,1201043.932,1201044.979,6,0,94,8,4
11,475,1091.446131,0,0,1201046.661,1201047.709,6,0,89,8,0
11,476,753.95971,1,0,1201049.944,1201050.991,6,1,61,16,0
11,477,614.6423381,0,0,1201052.779,1201053.826,6,0,73,8,16
11,478,620.6219369,1,0,1201055.579,1201056.626,6,1,62,4,0
11,479,626.6877665,1,0,1201058.285,1201059.332,6,1,90,0,16
11,480,1007.308678,1,0,1201061.074,1201062.12,6,1,92,4,8
11,481,785.1284591,1,0,1201068.626,1201069.673,7,1,98,4,8
11,482,642.0511736,0,0,1201071.626,1201072.674,7,0,70,4,8
11,483,734.0703169,0,0,1201074.426,1201075.474,7,0,97,4,16
11,484,721.1995323,1,0,1201077.391,1201078.438,7,1,72,16,16
11,485,612.7452503,1,0,1201080.274,1201081.321,7,1,74,8,16
11,486,616.6148779,1,0,1201083.062,1201084.109,7,1,63,16,8
11,487,629.4025111,0,0,1201085.815,1201086.862,7,0,95,0,4
11,488,710.2142861,0,0,1201088.556,1201089.603,7,0,91,4,16
11,489,715.0855821,1,0,1201091.391,1201092.438,7,1,68,0,8
11,490,696.7052361,0,0,1201094.239,1201095.286,7,0,64,16,0
11,491,455.0267446,0,0,1201097.05,1201098.097,7,0,76,4,16
11,492,604.7168896,0,0,1201099.733,1201100.78,7,0,80,8,8
11,493,686.6123297,1,0,1201102.533,1201103.58,7,1,81,16,4
11,494,515.8755989,0,0,1201105.403,1201106.45,7,0,73,0,0
11,495,805.0871452,0,0,1201108.015,1201109.062,7,0,90,8,16
11,496,609.2821416,0,0,1201110.886,1201111.933,7,0,80,0,16
11,497,636.001897,1,0,1201113.674,1201114.721,7,1,61,0,16
11,498,775.3516056,1,0,1201116.545,1201117.592,7,1,91,4,8
11,499,640.8427812,0,0,1201119.462,1201120.509,7,0,73,4,4
11,500,960.3711576,0,0,1201122.345,1201123.392,7,0,92,8,4
11,501,574.7326652,0,0,1201125.521,1201126.568,7,0,81,8,8
11,502,560.1876853,0,0,1201128.298,1201129.345,7,0,82,0,4
11,503,513.5427357,1,0,1201130.921,1201131.968,7,1,84,4,4
11,504,585.5173469,0,0,1201133.568,1201134.615,7,0,89,4,0
11,505,492.9835105,1,0,1201136.251,1201137.298,7,1,75,8,4
11,506,738.1039378,1,0,1201138.91,1201139.957,7,1,81,16,8
11,507,651.7621989,0,0,1201141.78,1201142.827,7,0,78,8,0
11,508,553.5809854,1,0,1201144.533,1201145.58,7,1,79,16,16
11,509,540.2363136,1,0,1201147.274,1201148.321,7,1,83,0,0
11,510,668.5553507,1,0,1201149.98,1201151.027,7,1,98,8,16
11,511,684.3529937,1,0,1201152.874,1201153.922,7,1,62,4,4
11,512,712.8389499,1,0,1201155.757,1201156.804,7,1,98,4,0
11,513,871.4728928,1,0,1201158.686,1201159.733,7,1,84,16,8
11,514,595.5494293,1,0,1201161.745,1201162.792,7,1,79,4,8
11,515,635.7312696,0,0,1201164.404,1201165.451,7,0,62,16,16
11,516,917.9954252,1,0,1201167.181,1201168.228,7,1,95,0,0
11,517,550.9686403,1,0,1201170.275,1201171.322,7,1,68,0,4
11,518,590.4602455,0,0,1201172.898,1201173.945,7,0,99,4,16
11,519,419.2022777,0,0,1201175.651,1201176.698,7,0,87,0,0
11,520,789.1282034,0,0,1201178.251,1201179.298,7,0,62,4,16
11,521,695.67893,1,0,1201181.275,1201182.322,7,1,73,8,4
11,522,1013.450345,1,0,1201184.075,1201185.122,7,1,79,8,4
11,523,543.3456434,1,0,1201187.322,1201188.369,7,1,85,8,8
11,524,737.0587687,0,0,1201189.957,1201191.004,7,0,81,8,16
11,525,685.0139715,1,0,1201192.91,1201193.957,7,1,67,16,4
11,526,621.3706858,1,0,1201195.781,1201196.828,7,1,72,16,16
11,527,905.2085618,1,0,1201198.616,1201199.663,7,1,82,16,0
11,528,651.7448756,1,0,1201201.757,1201202.804,7,1,99,4,0
11,529,605.5784321,0,0,1201204.605,1201205.652,7,0,71,0,8
11,530,685.197213,0,0,1201207.275,1201208.322,7,0,90,16,8
11,531,605.5449406,0,0,1201210.158,1201211.205,7,0,61,0,8
11,532,517.3095786,0,0,1201212.899,1201213.946,7,0,78,0,8
11,533,786.589771,1,0,1201215.605,1201216.652,7,1,95,16,4
11,534,531.7579333,0,0,1201218.616,1201219.664,7,0,84,16,0
11,535,836.5061188,0,0,1201221.369,1201222.416,7,0,79,16,4
11,536,611.9703241,0,0,1201224.44,1201225.487,7,0,82,16,4
11,537,593.0263952,0,0,1201227.193,1201228.24,7,0,90,16,0
11,538,570.1955154,1,0,1201229.946,1201230.993,7,1,65,8,16
11,539,694.5529194,0,0,1201232.581,1201233.628,7,0,62,0,16
11,540,784.2264955,1,0,1201235.417,1201236.464,7,1,90,0,16
11,541,887.2058622,1,0,1201238.264,1201239.311,7,1,100,16,0
11,542,707.6716188,1,0,1201241.24,1201242.287,7,1,71,8,4
11,543,653.8483023,0,0,1201244.111,1201245.158,7,0,81,4,8
11,544,674.4464084,0,0,1201246.84,1201247.887,7,0,93,8,0
11,545,505.0839884,0,0,1201249.629,1201250.676,7,0,87,0,8
11,546,782.8583443,1,0,1201252.264,1201253.311,7,1,98,4,4
11,547,565.4705046,0,0,1201255.299,1201256.346,7,0,67,8,0
11,548,552.4053148,1,0,1201257.946,1201258.993,7,1,80,0,16
11,549,582.7148308,0,0,1201260.57,1201261.617,7,0,73,8,0
11,550,430.3684551,0,0,1201263.358,1201264.405,7,0,87,4,0
11,551,597.9954714,0,0,1201266.041,1201267.088,7,0,62,16,16
11,552,538.1740779,1,0,1201268.794,1201269.841,7,1,90,4,0
11,553,629.4298435,1,0,1201271.57,1201272.617,7,1,63,8,0
11,554,422.6750105,0,0,1201274.382,1201275.429,7,0,77,0,4
11,555,520.1648341,1,0,1201276.911,1201277.958,7,1,80,0,0
11,556,488.6107389,1,0,1201279.629,1201280.676,7,1,83,0,4
11,557,653.2566173,0,0,1201282.311,1201283.358,7,0,90,16,8
11,558,695.0479792,1,0,1201285.064,1201286.111,7,1,91,4,4
11,559,641.0795322,0,0,1201287.958,1201289.006,7,0,94,8,8
11,560,576.5527606,1,0,1201290.841,1201291.888,7,1,68,8,8
11,561,728.5749991,0,0,1201298.147,1201299.194,8,0,93,16,0
11,562,659.5403349,1,0,1201300.959,1201302.006,8,1,92,16,8
11,563,538.4308465,0,0,1201303.747,1201304.794,8,0,86,8,4
11,564,558.6797933,0,0,1201306.37,1201307.418,8,0,85,16,16
11,565,860.3479061,0,0,1201309.147,1201310.194,8,0,91,16,4
11,566,533.8705992,0,0,1201312.182,1201313.229,8,0,80,0,4
11,567,546.3044532,1,0,1201314.853,1201315.9,8,1,98,0,8
11,568,583.1382878,1,0,1201317.594,1201318.641,8,1,96,8,8
11,569,605.963778,0,0,1201320.347,1201321.394,8,0,97,0,0
11,570,1001.136599,0,0,1201323.159,1201324.206,8,0,65,4,16
11,571,585.1566382,1,0,1201326.265,1201327.312,8,1,68,4,0
11,572,592.0897853,1,0,1201329.018,1201330.065,8,1,69,8,4
11,573,644.8155781,1,0,1201331.841,1201332.888,8,1,80,8,16
11,574,655.0024152,0,0,1201334.665,1201335.712,8,0,99,0,16
11,575,608.6200089,0,0,1201337.547,1201338.594,8,0,77,0,16
11,576,722.1742533,1,0,1201340.23,1201341.277,8,1,62,4,8
11,577,683.6435108,1,0,1201343.1,1201344.147,8,1,82,16,4
11,578,479.8494126,1,0,1201345.959,1201347.006,8,1,96,0,4
11,579,672.0369377,1,0,1201348.583,1201349.63,8,1,90,4,4
11,580,647.4417818,0,0,1201351.5,1201352.547,8,0,79,8,8
11,581,559.1028652,0,0,1201354.242,1201355.289,8,0,90,8,0
11,582,616.0840169,0,0,1201357.042,1201358.089,8,0,73,8,16
11,583,807.4342522,0,0,1201359.818,1201360.865,8,0,77,0,8
11,584,802.9717845,1,0,1201362.736,1201363.783,8,1,72,0,4
11,585,659.2985794,1,0,1201365.712,1201366.759,8,1,68,8,8
11,586,599.7924688,1,0,1201368.583,1201369.63,8,1,97,4,16
11,587,857.5823465,0,0,1201371.324,1201372.371,8,0,88,0,16
11,588,648.1539598,1,0,1201374.265,1201375.312,8,1,73,16,4
11,589,546.768331,1,0,1201377.089,1201378.136,8,1,80,4,8
11,590,500.0051984,1,0,1201379.807,1201380.854,8,1,74,0,8
11,591,527.1095298,0,0,1201382.524,1201383.571,8,0,100,0,8
11,592,625.7634754,0,0,1201385.16,1201386.207,8,0,72,4,8
11,593,530.362065,0,0,1201387.983,1201389.03,8,0,77,8,8
11,594,751.7646626,0,0,1201390.76,1201391.807,8,0,61,16,4
11,595,487.3072612,0,0,1201393.595,1201394.642,8,0,78,4,4
11,596,664.2576465,1,0,1201396.242,1201397.289,8,1,83,4,16
11,597,616.8339208,1,0,1201399.03,1201400.077,8,1,90,4,4
11,598,581.8667617,0,0,1201401.736,1201402.783,8,0,89,0,0
11,599,640.0563058,1,0,1201404.395,1201405.442,8,1,65,16,0
11,600,702.6798301,1,0,1201407.278,1201408.325,8,1,84,4,8
11,601,670.5806304,1,0,1201410.066,1201411.113,8,1,90,0,16
11,602,627.5635527,0,0,1201412.984,1201414.031,8,0,85,4,0
11,603,599.78092,1,0,1201415.748,1201416.795,8,1,75,16,8
11,604,814.7769973,1,0,1201418.595,1201419.642,8,1,87,8,4
11,605,1023.716099,1,0,1201421.595,1201422.642,8,1,95,8,16
11,606,599.7651368,0,0,1201424.854,1201425.901,8,0,82,0,0
11,607,598.4778274,0,0,1201427.584,1201428.631,8,0,68,8,16
11,608,624.6293802,1,0,1201430.395,1201431.443,8,1,88,4,16
11,609,639.8060813,0,0,1201433.254,1201434.301,8,0,80,16,8
11,610,724.9455873,0,0,1201436.125,1201437.172,8,0,81,8,0
11,611,662.2054197,1,0,1201438.984,1201440.031,8,1,72,4,4
11,612,994.7181446,0,0,1201441.713,1201442.76,8,0,96,4,4
11,613,480.3533263,0,0,1201444.949,1201445.996,8,0,84,0,4
11,614,635.6219405,1,0,1201447.572,1201448.619,8,1,89,4,0
11,615,604.4470319,0,0,1201450.454,1201451.502,8,0,87,0,0
11,616,785.0337587,0,0,1201453.278,1201454.325,8,0,63,16,0
11,617,821.2239386,0,0,1201456.302,1201457.349,8,0,88,8,4
11,618,819.1678622,0,0,1201459.361,1201460.408,8,0,92,4,16
11,619,713.7847992,1,0,1201462.396,1201463.443,8,1,69,16,4
11,620,620.844444,0,0,1201465.302,1201466.349,8,0,63,8,0
11,621,646.5032471,1,0,1201468.09,1201469.137,8,1,85,4,0
11,622,665.832137,0,0,1201470.949,1201471.996,8,0,86,4,8
11,623,646.4901585,0,0,1201473.831,1201474.878,8,0,87,16,16
11,624,852.2244599,0,0,1201476.725,1201477.772,8,0,63,8,16
11,625,668.8402218,1,0,1201479.82,1201480.867,8,1,66,16,8
11,626,596.2920191,1,0,1201482.69,1201483.737,8,1,69,16,16
11,627,769.4174324,0,0,1201485.349,1201486.396,8,0,84,8,0
11,628,581.6046034,1,0,1201488.208,1201489.255,8,1,65,16,8
11,629,576.8738182,1,0,1201491.031,1201492.079,8,1,68,16,16
11,630,716.1746365,1,0,1201493.843,1201494.89,8,1,82,8,0
11,631,621.8973123,0,0,1201496.737,1201497.784,8,0,80,0,4
11,632,510.5361904,0,0,1201499.467,1201500.514,8,0,70,0,8
11,633,463.4396816,1,0,1201502.173,1201503.22,8,1,76,8,8
11,634,463.7468804,1,0,1201504.832,1201505.879,8,1,76,8,4
11,635,675.9735483,0,0,1201507.502,1201508.549,8,0,71,4,0
11,636,633.16204,1,0,1201510.408,1201511.455,8,1,77,16,0
11,637,605.1330324,1,0,1201513.22,1201514.267,8,1,79,16,0
11,638,712.2064591,0,0,1201516.02,1201517.067,8,0,82,16,16
11,639,729.8807867,1,0,1201518.855,1201519.902,8,1,85,0,16
11,640,636.3995615,1,0,1201521.785,1201522.832,8,1,97,0,0
11,641,753.3449272,0,0,1201528.55,1201529.597,9,0,98,4,8
11,642,454.312257,0,0,1201531.55,1201532.597,9,0,67,0,16
11,643,580.9848162,0,0,1201534.232,1201535.279,9,0,70,0,8
11,644,582.4095567,0,0,1201537.056,1201538.103,9,0,65,0,8
11,645,628.2903589,0,0,1201539.844,1201540.891,9,0,73,16,16
11,646,635.716256,0,0,1201542.679,1201543.726,9,0,62,8,0
11,647,629.1642203,0,0,1201545.503,1201546.55,9,0,72,8,16
11,648,651.9119486,1,0,1201548.291,1201549.338,9,1,83,8,16
11,649,604.6406673,0,0,1201551.138,1201552.185,9,0,61,4,0
11,650,604.5979366,0,0,1201553.879,1201554.926,9,0,79,0,0
11,651,565.3226795,1,0,1201556.668,1201557.715,9,1,76,4,16
11,652,645.8676765,1,0,1201559.456,1201560.503,9,1,89,8,8
11,653,690.929282,1,0,1201562.315,1201563.362,9,1,90,4,16
11,654,696.2486724,1,0,1201565.126,1201566.174,9,1,91,4,0
11,655,746.8494808,1,0,1201567.915,1201568.962,9,1,84,4,0
11,656,851.2670619,1,0,1201570.832,1201571.879,9,1,75,8,16
11,657,525.8245301,1,0,1201573.762,1201574.809,9,1,77,16,16
11,658,450.1123331,1,0,1201576.432,1201577.48,9,1,86,16,4
11,659,570.1038947,0,0,1201578.985,1201580.032,9,0,74,4,4
11,660,527.2515803,0,0,1201581.797,1201582.844,9,0,77,16,0
11,661,584.2754627,0,0,1201584.503,1201585.55,9,0,92,0,4
11,662,548.801695,1,0,1201587.233,1201588.28,9,1,78,0,16
11,663,628.1178964,1,0,1201589.903,1201590.95,9,1,71,0,0
11,664,654.51159,1,0,1201592.621,1201593.668,9,1,72,16,16
11,665,668.1819386,0,0,1201595.35,1201596.397,9,0,78,8,0
11,666,594.5816375,1,0,1201598.174,1201599.221,9,1,95,4,16
11,667,680.6654527,1,0,1201600.939,1201601.986,9,1,80,0,16
11,668,608.5961412,0,0,1201603.833,1201604.88,9,0,62,0,8
11,669,708.085452,1,0,1201606.621,1201607.668,9,1,92,16,8
11,670,515.2388737,1,0,1201609.574,1201610.621,9,1,97,16,8
11,671,745.3600671,1,0,1201612.28,1201613.327,9,1,69,0,4
11,672,558.9792929,0,0,1201615.221,1201616.268,9,0,85,16,0
11,673,542.7539584,0,0,1201617.868,1201618.915,9,0,86,0,4
11,674,618.6055113,0,0,1201620.504,1201621.551,9,0,93,8,8
11,675,906.7464808,0,0,1201623.362,1201624.409,9,0,98,4,0
11,676,511.3038027,0,0,1201626.398,1201627.445,9,0,86,0,16
11,677,489.3752716,0,0,1201629.01,1201630.057,9,0,75,0,8
11,678,728.2458574,1,0,1201631.704,1201632.751,9,1,62,16,4
11,679,756.5385634,1,0,1201634.668,1201635.716,9,1,94,4,4
11,680,596.3586173,0,0,1201637.516,1201638.563,9,0,88,8,8
11,681,763.9301987,0,0,1201640.351,1201641.398,9,0,95,8,0
11,682,957.5674869,0,0,1201643.28,1201644.327,9,0,62,0,4
11,683,624.7833648,1,0,1201646.339,1201647.386,9,1,65,16,0
11,684,751.6857455,0,0,1201649.198,1201650.245,9,0,70,0,0
11,685,726.3110436,0,0,1201652.022,1201653.069,9,0,93,16,0
11,686,748.112153,0,0,1201654.869,1201655.916,9,0,92,4,16
11,687,665.3339975,1,0,1201657.68,1201658.728,9,1,68,8,0
11,688,679.0890375,1,0,1201660.422,1201661.469,9,1,75,8,4
11,689,708.5608786,0,0,1201663.257,1201664.304,9,0,81,8,4
11,690,576.6251334,1,0,1201666.163,1201667.21,9,1,88,0,8
11,691,601.2480063,1,0,1201668.892,1201669.939,9,1,96,8,0
11,692,691.7284606,0,0,1201671.669,1201672.716,9,0,100,8,16
11,693,525.2463187,0,0,1201674.504,1201675.551,9,0,76,4,8
11,694,584.9749367,1,0,1201677.281,1201678.328,9,1,85,8,8
11,695,697.4235734,1,0,1201680.069,1201681.116,9,1,99,16,8
11,696,803.4306581,1,0,1201682.916,1201683.963,9,1,85,0,0
11,697,560.7485734,0,0,1201685.834,1201686.881,9,0,67,4,4
11,698,614.2542975,1,0,1201688.469,1201689.516,9,1,94,16,16
11,699,635.8444479,1,0,1201691.151,1201692.199,9,1,78,4,4
11,700,707.8055853,0,0,1201693.999,1201695.046,9,0,62,4,8
11,701,833.7636569,1,0,1201696.799,1201697.846,9,1,97,4,16
11,702,743.536507,1,0,1201699.893,1201700.94,9,1,82,16,4
11,703,823.1622172,0,0,1201702.881,1201703.928,9,0,93,16,8
11,704,551.0675751,0,0,1201705.822,1201706.869,9,0,96,0,4
11,705,581.5607179,0,0,1201708.493,1201709.54,9,0,98,4,0
11,706,610.3380898,0,0,1201711.199,1201712.246,9,0,80,4,8
11,707,791.491094,1,0,1201713.905,1201714.952,9,1,86,16,0
11,708,744.5216221,0,0,1201716.905,1201717.952,9,0,84,0,0
11,709,563.0048297,1,0,1201719.74,1201720.787,9,1,64,4,4
11,710,694.6433852,1,0,1201722.364,1201723.411,9,1,93,8,4
11,711,688.6064275,1,0,1201725.175,1201726.222,9,1,61,16,4
11,712,792.3014367,0,0,1201727.964,1201729.011,9,0,64,8,4
11,713,507.3795104,1,0,1201730.823,1201731.87,9,1,70,16,8
11,714,623.0579696,1,0,1201733.505,1201734.552,9,1,72,8,16
11,715,532.08669,0,0,1201736.258,1201737.305,9,0,94,16,16
11,716,671.27356,1,0,1201738.976,1201740.023,9,1,99,8,4
11,717,540.4980869,1,0,1201741.834,1201742.881,9,1,86,8,8
11,718,611.6796785,1,0,1201744.446,1201745.493,9,1,67,0,16
11,719,638.9283703,0,0,1201747.164,1201748.211,9,0,91,16,4
11,720,598.6406659,0,0,1201749.952,1201750.999,9,0,80,4,8
