sub_id,Trial,RT,Resp,Error,Fix_onset,Disp_onset,block,tid,tloc,fish_setsize,bird_setsize
18,1,634.5470699016,1,0,1635549.98629718,1635551.03337406,1,1,69,8,4
18,2,986.475300742313,0,0,1635552.83339454,1635553.8804691,1,0,91,8,16
18,3,770.983778871596,0,0,1635556.05702336,1635557.10404019,1,0,79,8,0
18,4,643.930878257379,0,0,1635559.06875235,1635560.11582307,1,0,74,16,8
18,5,490.475045284256,1,0,1635561.93938853,1635562.98645963,1,1,75,16,8
18,6,650.491767795756,1,0,1635564.55118697,1635565.59825307,1,1,92,16,0
18,7,599.325836868957,1,0,1635567.39827547,1635568.44535004,1,1,64,8,8
18,8,962.145768105984,0,0,1635570.08072579,1635571.12772914,1,0,89,4,16
18,9,584.337381646037,0,0,1635573.1042242,1635574.1512926,1,0,64,4,16
18,10,581.668447237462,1,0,1635575.76308065,1635576.81015521,1,1,73,0,4
18,11,631.179816322401,0,0,1635578.44547053,1635579.49254086,1,0,64,0,0
18,12,849.551616236568,1,0,1635581.21020048,1635582.25727467,1,1,62,16,0
18,13,601.348806638271,0,0,1635584.21023167,1635585.25730893,1,0,69,4,0
18,14,631.178661482409,1,0,1635587.05732979,1635588.10440051,1,1,69,8,0
18,15,504.73399925977,1,0,1635589.83383185,1635590.88089987,1,1,98,0,8
18,16,674.559912178665,0,0,1635592.43387243,1635593.48093121,1,0,100,8,8
18,17,634.118993300945,0,0,1635595.26919498,1635596.31626185,1,0,63,16,4
18,18,805.763076758012,0,0,1635598.1045491,1635599.15163329,1,0,81,0,0
18,19,636.745581869036,1,0,1635600.99872834,1635602.04574439,1,1,100,0,0
18,20,595.130532048643,1,0,1635603.7163487,1635604.76342403,1,1,64,4,0
18,21,567.161193583161,1,0,1635606.48108211,1635607.52815784,1,1,83,0,4
18,22,653.814750956371,1,0,1635609.25759957,1635610.30466259,1,1,66,16,16
18,23,625.666020438075,1,0,1635612.10467961,1635613.15175148,1,1,93,16,8
18,24,592.336100526154,0,0,1635614.7988312,1635615.84590115,1,0,84,4,16
18,25,491.494421847165,0,0,1635617.61063187,1635618.65769989,1,0,85,4,16
18,26,577.187886694446,1,0,1635620.34007515,1635621.38714548,1,1,72,8,4
18,27,624.434145400301,1,0,1635623.01069447,1635624.05776249,1,1,95,16,8
18,28,581.649199128151,1,0,1635625.86954814,1635626.9166231,1,1,77,8,16
18,29,758.276217384264,0,0,1635628.65787043,1635629.70488648,1,0,81,8,8
18,30,720.369881484658,0,0,1635631.5049162,1635632.5519746,1,0,68,8,8
18,31,505.942391697317,0,0,1635634.44611034,1635635.49321493,1,0,74,0,0
18,32,532.761852024123,1,0,1635637.18733611,1635638.23439836,1,1,99,16,8
18,33,613.778425846249,0,0,1635639.95205375,1635640.99919761,1,0,99,4,4
18,34,552.764808526263,1,0,1635642.75210041,1635643.79918921,1,1,63,0,16
18,35,570.83179615438,0,0,1635645.39918937,1635646.44628665,1,0,87,16,4
18,36,459.694336634129,0,0,1635648.04627949,1635649.09335251,1,0,65,8,4
18,37,610.118217300624,0,0,1635650.62278393,1635651.66984926,1,0,80,0,16
18,38,758.830561302602,1,0,1635653.35221181,1635654.39929254,1,1,100,16,16
18,39,690.569668542594,1,0,1635656.19931494,1635657.24638566,1,1,78,16,0
18,40,609.315573703498,1,0,1635659.09346184,1635660.14054026,1,1,65,16,16
18,41,595.977446297184,1,0,1635661.87002165,1635662.91704886,1,1,67,8,0
18,42,703.048178227618,0,0,1635664.54059631,1635665.58766048,1,0,90,4,4
18,43,773.077966412529,0,0,1635667.3406191,1635668.38768866,1,0,96,0,16
18,44,835.807355120778,0,0,1635670.17595089,1635671.22301853,1,0,72,8,8
18,45,496.300274506211,1,0,1635673.10539486,1635674.15247289,1,1,100,8,4
18,46,605.488291708753,1,0,1635675.8230772,1635676.87014753,1,1,69,0,8
18,47,461.67226601392,0,0,1635678.58785758,1635679.63494678,1,0,75,4,0
18,48,625.748787308112,0,0,1635681.281978,1635682.32903331,1,0,71,16,4
18,49,589.008882874623,0,0,1635684.10552382,1635685.15259801,1,0,96,4,8
18,50,547.158621950075,0,0,1635686.85850208,1635687.90556856,1,0,66,0,4
18,51,612.407580250874,1,0,1635689.48206222,1635690.5291341,1,1,81,0,16
18,52,670.500498730689,0,0,1635692.29385558,1635693.34093053,1,0,88,16,4
18,53,710.739698261023,0,0,1635695.04683075,1635696.09390378,1,0,75,8,16
18,54,514.799958327785,0,0,1635697.95279788,1635698.99983087,1,0,78,4,0
18,55,522.329410072416,1,0,1635700.54101938,1635701.58808586,1,1,82,4,4
18,56,784.263392211869,0,0,1635703.18810565,1635704.23517444,1,0,64,4,0
18,57,506.829341873527,0,0,1635706.21169837,1635707.25873829,1,0,96,4,8
18,58,709.649488795549,1,0,1635708.85879157,1635709.90583841,1,1,94,4,8
18,59,848.992652958259,1,0,1635711.77644726,1635712.82350874,1,1,79,8,16
18,60,565.208286512643,0,0,1635714.75294963,1635715.80001534,1,0,76,8,4
18,61,774.582778802142,0,0,1635717.41180146,1635718.45886717,1,0,91,0,8
18,62,445.966243743896,1,0,1635720.34124928,1635721.38831615,1,1,67,16,0
18,63,366.77399976179,0,0,1635723.03540704,1635724.08251779,1,0,65,4,4
18,64,385.336817475036,1,0,1635725.65896026,1635726.70602635,1,1,64,8,0
18,65,598.328787833452,1,0,1635728.22369606,1635729.27076293,1,1,99,4,4
18,66,399.861009325832,1,0,1635731.04725729,1635732.09433185,1,1,68,16,0
18,67,820.602167164907,0,0,1635733.69435164,1635734.7414212,1,0,62,0,8
18,68,557.554492726922,1,0,1635736.74143853,1635737.78850732,1,1,84,8,16
18,69,929.935314692557,0,0,1635739.50623662,1635740.55325806,1,0,85,4,8
18,70,651.18546737358,1,0,1635742.52974387,1635743.57681228,1,1,100,4,8
18,71,690.364869311452,1,0,1635745.341543,1635746.38861026,1,1,81,4,16
18,72,625.248722732067,1,0,1635748.14157311,1635749.18864883,1,1,83,0,0
18,73,425.070177996531,1,0,1635751.023966,1635752.07103248,1,1,88,0,16
18,74,555.465694516897,1,0,1635753.60046236,1635754.64753731,1,1,77,8,0
18,75,634.303774451837,1,0,1635756.24755132,1635757.29462088,1,1,71,16,16
18,76,573.096521664411,0,0,1635759.09464868,1635760.14171285,1,0,74,16,4
18,77,688.313027378172,0,0,1635761.80056391,1635762.84763501,1,0,96,0,8
18,78,359.258407028392,1,0,1635764.7064783,1635765.75354516,1,1,87,0,4
18,79,665.212674997747,0,0,1635767.3065104,1635768.35357611,1,0,81,16,16
18,80,516.116139944643,0,0,1635770.05947903,1635771.10655552,1,0,83,0,4
18,81,653.125285869464,0,0,1635786.37732282,1635787.42439161,2,0,87,0,4
18,82,663.624326232821,0,0,1635789.14213092,1635790.18911925,2,0,88,16,16
18,83,435.306674800813,1,0,1635791.93033079,1635792.97740035,2,1,77,16,0
18,84,609.777526929975,0,0,1635794.5185981,1635795.56569153,2,0,77,4,0
18,85,543.094204040244,0,0,1635797.28333267,1635798.33040762,2,0,66,16,16
18,86,572.589912917465,1,0,1635800.05983589,1635801.10690853,2,1,89,0,4
18,87,528.182356385514,0,0,1635802.74222385,1635803.78929225,2,0,82,4,0
18,88,391.721394844353,1,0,1635805.47171293,1635806.51873746,2,1,88,16,4
18,89,410.18566233106,0,0,1635808.04816426,1635809.09523382,2,0,64,8,8
18,90,594.695141073316,1,0,1635810.53054921,1635811.57766266,2,1,63,8,8
18,91,536.257297266275,1,0,1635813.35411006,1635814.40117615,2,1,68,16,8
18,92,679.58942707628,0,0,1635816.03649724,1635817.08361608,2,0,66,8,16
18,93,627.209329046309,1,0,1635818.91888359,1635819.9659543,2,1,72,8,0
18,94,504.2243108619,1,0,1635821.70715082,1635822.75422577,2,1,61,4,16
18,95,633.479957934469,1,0,1635824.43659526,1635825.48366405,2,1,87,8,4
18,96,581.450559431687,1,0,1635827.17780602,1635828.22487366,2,1,75,8,0
18,97,494.149112608284,1,0,1635829.82489652,1635830.87196339,2,1,66,8,0
18,98,438.87102836743,1,0,1635832.41314998,1635833.46030077,2,1,64,8,4
18,99,798.655157675967,1,0,1635835.00142923,1635836.0484984,2,1,95,16,0
18,100,600.378320086747,0,0,1635837.8838198,1635838.93088051,2,0,61,0,4
18,101,574.823456350714,1,0,1635840.66036459,1635841.70738257,2,1,85,4,4
18,102,535.080856876448,1,0,1635843.33093502,1635844.37800728,2,1,96,4,16
18,103,606.754813343287,0,0,1635846.07214578,1635847.11922189,2,0,84,4,4
18,104,1114.85516186804,0,0,1635848.87223479,1635849.9192466,2,0,92,16,4
18,105,429.200424114242,1,0,1635852.04868973,1635853.09575737,2,1,67,0,0
18,106,679.443142144009,0,0,1635854.71937911,1635855.76639131,2,0,72,16,4
18,107,593.013246776536,0,0,1635857.44875078,1635858.49582265,2,0,94,8,8
18,108,481.027333298698,1,0,1635860.24878358,1635861.29584544,2,1,85,4,4
18,109,673.657178645954,0,0,1635862.83705475,1635863.88411738,2,0,66,4,0
18,110,852.058866992593,0,0,1635865.75473354,1635866.80180118,2,0,72,4,8
18,111,645.976175786927,0,0,1635868.75477011,1635869.80184237,2,0,95,16,0
18,112,621.034555137157,1,0,1635871.55479829,1635872.60187247,2,1,78,0,16
18,113,904.528661165386,0,0,1635874.33130266,1635875.37837414,2,0,74,16,8
18,114,643.794602015987,0,0,1635877.4607531,1635878.50782189,2,0,94,8,16
18,115,419.407402165234,1,0,1635880.34313328,1635881.39020553,2,1,76,4,16
18,116,730.646414449438,0,0,1635882.86082724,1635883.90789064,2,0,63,4,4
18,117,647.259635617957,1,0,1635885.79026351,1635886.83733269,2,1,91,0,0
18,118,706.823875429109,1,0,1635888.56676596,1635889.61384245,2,1,78,0,0
18,119,832.219903822988,1,0,1635891.49621377,1635892.54327756,2,1,97,0,16
18,120,821.976092644036,0,0,1635894.43742754,1635895.48450095,2,0,70,8,16
18,121,792.654001386836,1,0,1635897.50804747,1635898.56688799,2,1,99,8,0
18,122,625.430809566751,0,0,1635900.41396494,1635901.46103758,2,0,86,0,4
18,123,530.225729104131,1,0,1635903.1551757,1635904.20223988,2,1,96,4,0
18,124,507.114982698113,0,0,1635905.80226659,1635906.84933923,2,0,65,0,4
18,125,415.138570126146,1,0,1635908.55523406,1635909.60230324,2,1,95,0,8
18,126,438.233148073778,0,0,1635911.10821432,1635912.15528734,2,0,86,4,0
18,127,598.531277384609,0,0,1635913.62588556,1635914.67295898,2,0,87,8,8
18,128,880.617965944111,0,0,1635916.28474163,1635917.33181235,2,0,81,8,4
18,129,620.082161854953,0,0,1635919.3200695,1635920.36714137,2,0,94,4,4
18,130,632.121045840904,0,0,1635922.02598666,1635923.07305198,2,0,77,0,8
18,131,482.95598779805,0,1,1635924.76719511,1635925.81426082,2,1,92,16,8
18,132,718.578658299521,1,0,1635927.49662761,1635928.54371026,2,1,65,4,8
18,133,850.786186056212,1,0,1635930.36726494,1635931.41434143,2,1,92,16,4
18,134,676.312254508957,1,0,1635933.43788718,1635934.48495367,2,1,91,8,4
18,135,610.324171371758,1,0,1635936.29678167,1635937.34380696,2,1,84,16,8
18,136,738.812591182068,1,0,1635939.02619107,1635940.07325986,2,1,67,4,8
18,137,845.164216123521,0,0,1635941.8379698,1635942.88507324,2,0,93,4,16
18,138,1002.89350072853,0,0,1635944.93220054,1635945.97921505,2,0,69,16,0
18,139,745.785774197429,0,0,1635948.08517825,1635949.13218776,2,0,70,16,16
18,140,2584.42938723601,0,0,1635951.01456486,1635952.06163712,2,0,62,4,16
18,141,719.712753081694,1,0,1635955.77932484,1635956.82639749,2,1,87,0,16
18,142,765.719822607934,1,0,1635958.74407589,1635959.79114777,2,1,70,16,16
18,143,629.818979417905,0,0,1635961.74410939,1635962.79118395,2,0,72,0,8
18,144,1134.15748928674,1,0,1635964.56766484,1635965.61474018,2,1,64,16,8
18,145,772.724187467247,1,0,1635967.85006489,1635968.89712482,2,1,92,8,16
18,146,773.71199731715,0,0,1635970.85009838,1635971.89716293,2,0,89,8,0
18,147,610.803447663784,1,0,1635973.86193939,1635974.90897469,2,1,97,0,8
18,148,630.341371288523,0,0,1635976.67369695,1635977.72075958,2,0,92,8,16
18,149,466.011930955574,1,0,1635979.52078352,1635980.56785732,2,1,96,0,0
18,150,554.743122775108,1,0,1635982.07375223,1635983.1208291,2,1,92,8,8
18,151,754.999429918826,0,0,1635984.82672932,1635985.87380389,2,0,87,8,4
18,152,608.267709845677,1,0,1635987.69735318,1635988.7444239,2,1,68,0,8
18,153,564.241649582982,0,0,1635990.49738483,1635991.54445554,2,0,81,16,16
18,154,1340.55738826282,0,0,1635993.16800491,1635994.21507294,2,0,100,16,0
18,155,724.212561966851,0,0,1635996.75628301,1635997.80335488,2,0,91,0,0
18,156,627.214718610048,0,0,1635999.55632119,1636000.60339114,2,0,91,0,16
18,157,538.137446856126,1,0,1636002.41517834,1636003.46223597,2,1,86,4,8
18,158,1452.43859267794,0,0,1636005.02697408,1636006.07404056,2,0,78,4,8
18,159,718.76228461042,0,0,1636008.65059351,1636009.69761573,2,0,65,16,4
18,160,758.302779868245,1,0,1636011.57999437,1636012.6270647,2,1,98,0,16
18,161,927.883087657392,0,0,1636027.82723324,1636028.87432705,3,0,90,8,16
18,162,684.161993442103,1,0,1636030.94492966,1636031.9919973,3,1,82,4,0
18,163,789.553910726681,1,0,1636033.7096677,1636034.75673457,3,1,69,16,0
18,164,624.270152067766,1,0,1636036.6038427,1636037.65088762,3,1,62,8,8
18,165,589.001953601837,1,0,1636039.29796581,1636040.34504115,3,1,61,8,0
18,166,698.452899232507,0,0,1636042.12153435,1636043.16859698,3,0,75,4,0
18,167,785.79091723077,0,0,1636044.94509288,1636045.99216822,3,0,70,8,0
18,168,786.43957641907,0,0,1636047.92159833,1636048.96866597,3,0,90,4,8
18,169,644.473288208246,1,0,1636050.87457727,1636051.92164183,3,1,66,0,8
18,170,555.995015893131,1,0,1636053.60402325,1636054.65114362,3,1,65,16,16
18,171,563.009389443323,1,0,1636056.3569988,1636057.40410494,3,1,87,0,4
18,172,976.486718980595,0,0,1636059.08644362,1636060.13350433,3,0,99,4,16
18,173,562.508555362001,1,0,1636062.23941363,1636063.28648396,3,1,87,16,4
18,174,651.729802368209,0,0,1636065.00415321,1636066.05122354,3,0,97,0,4
18,175,704.624978359789,0,0,1636067.85124633,1636068.89833168,3,0,70,8,4
18,176,525.969600770622,1,0,1636070.62775032,1636071.67481757,3,1,77,4,0
18,177,556.286046281457,0,0,1636073.23954683,1636074.28661331,3,0,75,4,4
18,178,1206.43352484331,0,0,1636075.89840366,1636076.94547015,3,0,100,8,8
18,179,519.68049351126,0,0,1636079.26314494,1636080.31021796,3,0,88,0,4
18,180,798.78065478988,0,0,1636081.87498726,1636082.92201101,3,0,71,8,16
18,181,694.763433421031,0,0,1636084.83967209,1636085.88682404,3,0,91,16,4
18,182,825.773347634822,1,0,1636087.68681141,1636088.73385865,3,1,96,4,16
18,183,577.387681463733,0,0,1636090.61622112,1636091.66329261,3,0,75,4,4
18,184,770.959911169484,1,0,1636093.40448951,1636094.45156138,3,1,80,4,4
18,185,716.090655419976,1,0,1636096.26334473,1636097.31041853,3,1,64,16,0
18,186,629.480598494411,1,0,1636099.07514579,1636100.12221227,3,1,79,16,8
18,187,653.669235762209,0,0,1636101.94576695,1636102.9928369,3,0,93,4,4
18,188,742.82503942959,1,0,1636104.71050653,1636105.75761805,3,1,94,16,4
18,189,681.400283472613,0,0,1636107.63995743,1636108.68702583,3,0,96,8,4
18,190,889.355424791574,1,0,1636110.54588413,1636111.59294292,3,1,61,4,8
18,191,595.344185363501,0,0,1636113.54590223,1636114.5929791,3,0,82,0,4
18,192,622.073949780315,1,0,1636116.27534935,1636117.32243662,3,1,96,8,4
18,193,691.722626565024,1,0,1636119.12248674,1636120.16952089,3,1,83,0,4
18,194,722.337417071685,1,0,1636122.05188644,1636123.09896293,3,1,100,8,4
18,195,635.24769875221,0,0,1636125.00486539,1636126.05193803,3,0,84,8,8
18,196,571.857332251966,0,0,1636127.828427,1636128.87552389,3,0,88,0,16
18,197,613.013508496806,0,0,1636130.49905286,1636131.54612204,3,0,85,16,4
18,198,806.191538460553,1,0,1636133.3108466,1636134.35791462,3,1,87,4,8
18,199,913.346961839125,0,0,1636136.32264104,1636137.36971637,3,0,61,0,0
18,200,751.801944104955,1,0,1636139.29915072,1636140.34627802,3,1,87,16,0
18,201,503.707693424076,0,0,1636142.13448328,1636143.18155092,3,0,94,0,8
18,202,746.743557043374,0,0,1636144.80510029,1636145.85222182,3,0,87,16,0
18,203,676.447760779411,0,0,1636147.62866267,1636148.67573339,3,0,73,4,16
18,204,730.592135107145,1,0,1636150.48752059,1636151.53459053,3,1,95,0,16
18,205,829.850469017401,0,0,1636153.46402873,1636154.5111364,3,0,90,4,8
18,206,825.094276573509,0,0,1636156.37003358,1636157.41701961,3,0,87,4,16
18,207,793.147521326318,1,0,1636159.42880326,1636160.47586974,3,1,72,0,16
18,208,857.696620281786,0,0,1636162.41708043,1636163.46414499,3,0,71,0,0
18,209,705.07461251691,1,0,1636165.38185496,1636166.42889142,3,1,65,16,0
18,210,1661.51627991349,1,0,1636168.25243763,1636169.29951297,3,1,77,0,8
18,211,636.329439235851,1,0,1636172.09954615,1636173.14661494,3,1,62,0,0
18,212,634.742630179971,0,0,1636174.92310815,1636175.97017617,3,0,88,0,16
18,213,690.896115498617,0,0,1636177.73491844,1636178.78202111,3,0,73,8,16
18,214,548.663819208741,0,0,1636180.58199193,1636181.62906611,3,0,94,0,16
18,215,712.554404046386,1,0,1636183.33497827,1636184.38203743,3,1,82,8,0
18,216,895.52326919511,1,0,1636186.27617894,1636187.32324658,3,1,90,4,0
18,217,812.267762143165,0,0,1636189.32327507,1636190.37037158,3,0,64,4,4
18,218,577.759553678334,1,0,1636192.35859254,1636193.40576566,3,1,84,8,0
18,219,536.147198406979,0,0,1636195.07628873,1636196.12335329,3,0,97,16,8
18,220,525.2778257709,1,0,1636197.67633046,1636198.72338463,3,1,87,8,4
18,221,524.517913116142,0,0,1636200.44106042,1636201.48813036,3,0,73,16,16
18,222,810.061550932005,0,0,1636203.1822631,1636204.22933497,3,0,70,16,16
18,223,810.010736109689,1,0,1636206.18230506,1636207.22936885,3,1,80,8,0
18,224,697.777677560225,1,0,1636209.21763831,1636210.26469979,3,1,89,4,8
18,225,775.391581933945,1,0,1636212.1588363,1636213.2059074,3,1,68,16,8
18,226,661.615599645302,1,0,1636215.06475723,1636216.11182602,3,1,91,0,8
18,227,557.127956068143,1,0,1636217.88832154,1636218.93539264,3,1,67,16,8
18,228,611.663835356012,0,0,1636220.67658954,1636221.72366449,3,0,76,0,0
18,229,594.47802323848,0,0,1636223.52368805,1636224.57075608,3,0,71,0,8
18,230,607.26950597018,0,0,1636226.31194952,1636227.35902485,3,0,66,8,8
18,231,523.23329821229,1,0,1636229.15904341,1636230.20613414,3,1,74,8,16
18,232,728.887912817299,1,0,1636231.85319308,1636232.90026226,3,1,70,16,16
18,233,553.334935568273,1,0,1636234.81793681,1636235.86500907,3,1,70,0,0
18,234,835.615644464269,1,0,1636237.53561299,1636238.58268217,3,1,92,4,0
18,235,873.220941051841,0,0,1636240.52392211,1636241.57095779,3,0,73,8,16
18,236,666.488050715998,1,0,1636243.54743553,1636244.59450817,3,1,69,16,16
18,237,526.189413387328,1,0,1636246.27688766,1636247.32396068,3,1,87,8,8
18,238,631.749173626304,0,0,1636249.00634171,1636250.0534132,3,0,67,16,4
18,239,590.75352596119,0,0,1636251.75931265,1636252.80638144,3,0,87,4,16
18,240,951.425760285929,0,0,1636254.50051109,1636255.54759182,3,0,88,16,8
18,241,767.464080592617,0,0,1636267.8184057,1636268.86539596,4,0,90,4,8
18,242,742.761136032641,1,0,1636270.73605716,1636271.78310863,4,1,69,8,16
18,243,808.879335876554,0,0,1636273.54786437,1636274.59494625,4,0,76,0,16
18,244,803.067195229232,0,0,1636276.6066687,1636277.6537398,4,0,71,16,4
18,245,591.067269211635,0,0,1636279.51258809,1636280.55965688,4,0,76,8,0
18,246,783.847634214908,1,0,1636282.34790641,1636283.39496981,4,1,92,8,16
18,247,651.083837728947,0,0,1636285.31264899,1636286.3597251,4,0,79,0,0
18,248,559.69295068644,0,0,1636288.20682091,1636289.25388624,4,0,91,4,0
18,249,609.613533364609,1,0,1636291.00684794,1636292.05391172,4,1,86,16,4
18,250,696.558891097084,0,0,1636293.74804869,1636294.79512557,4,0,79,16,16
18,251,597.705150954425,0,0,1636296.6657425,1636297.71286095,4,0,88,0,8
18,252,481.946235056967,1,0,1636299.37164849,1636300.41872152,4,1,73,8,0
18,253,461.342739406973,1,0,1636302.04226819,1636303.08933429,4,1,78,4,4
18,254,535.472362069413,1,0,1636304.65405624,1636305.70113042,4,1,66,4,16
18,255,500.452078413218,0,0,1636307.35998071,1636308.40704796,4,0,86,0,8
18,256,537.679343251511,1,0,1636309.92473345,1636310.97178146,4,1,98,0,0
18,257,521.236120723188,1,0,1636312.54827436,1636313.59534815,4,1,78,4,4
18,258,720.544268842787,0,0,1636315.27771725,1636316.32478334,4,0,93,8,4
18,259,682.962839957327,0,0,1636318.10127963,1636319.14836805,4,0,100,4,16
18,260,531.759798526764,0,0,1636320.93662182,1636321.98367945,4,0,96,4,8
18,261,625.330719398335,1,0,1636323.57193175,1636324.619004,4,1,83,0,16
18,262,558.588112937287,0,0,1636326.28961678,1636327.33668634,4,0,87,4,0
18,263,635.974120115861,1,0,1636328.96023186,1636330.00730912,4,1,65,0,4
18,264,653.154928004369,0,0,1636331.66614286,1636332.71321665,4,0,67,8,8
18,265,764.590347185731,0,0,1636334.44264261,1636335.48971794,4,0,80,4,8
18,266,574.48045630008,0,0,1636337.34856662,1636338.39564157,4,0,88,0,16
18,267,807.250181213021,0,0,1636340.04280637,1636341.08978855,4,0,81,8,16
18,268,521.033631172031,0,0,1636343.03098922,1636344.07805994,4,0,82,4,16
18,269,599.711952498183,0,0,1636345.7722535,1636346.81926878,4,0,64,16,16
18,270,593.025180511177,1,0,1636348.58399257,1636349.6310656,4,1,88,4,16
18,271,779.837111011148,0,0,1636351.38402268,1636352.43110032,4,0,83,4,4
18,272,613.992464262992,0,0,1636354.24289368,1636355.28995708,4,0,89,16,8
18,273,492.77480202727,0,0,1636356.98409944,1636358.03116862,4,0,74,0,8
18,274,573.963068658486,1,0,1636359.6900062,1636360.73710618,4,1,75,16,0
18,275,672.879172489047,1,0,1636362.44298291,1636363.49007942,4,1,75,0,8
18,276,667.474705725908,1,0,1636365.23125477,1636366.27833742,4,1,88,16,0
18,277,528.52920605801,1,0,1636368.12540321,1636369.172477,4,1,66,8,4
18,278,662.459819344804,0,0,1636370.73719664,1636371.78427082,4,0,92,16,0
18,279,666.935760295019,0,0,1636373.65488775,1636374.70196232,4,0,82,8,4
18,280,920.196572085842,1,0,1636376.47844552,1636377.52551238,4,1,61,4,0
18,281,793.069374281913,0,0,1636379.51377415,1636380.56085257,4,0,91,8,8
18,282,750.803355360404,0,0,1636382.56088914,1636383.60799912,4,0,62,16,8
18,283,716.730075655505,1,0,1636385.36094773,1636386.40797687,4,1,72,16,4
18,284,565.262180985883,0,0,1636388.24329481,1636389.29036206,4,0,64,0,16
18,285,491.908639902249,0,0,1636390.92567892,1636391.97274578,4,0,73,0,8
18,286,660.567351151258,0,0,1636393.66688237,1636394.71395655,4,0,69,0,4
18,287,682.096677832305,0,0,1636396.49046515,1636397.537512,4,0,71,8,0
18,288,710.398237919435,1,0,1636399.30224657,1636400.34931421,4,1,73,16,16
18,289,750.561984954402,1,0,1636402.1258232,1636403.17288198,4,1,63,8,4
18,290,1612.8310370259,1,0,1636405.04348929,1636406.09056347,4,1,62,0,0
18,291,1145.95962245949,0,0,1636408.79648178,1636409.84361332,4,0,88,16,16
18,292,1286.40185040422,0,0,1636412.12593214,1636413.17299978,4,0,89,4,16
18,293,647.651911014691,0,0,1636415.64367692,1636416.69069182,4,0,81,4,4
18,294,629.481753567234,1,0,1636418.43188372,1636419.4789579,4,1,82,4,0
18,295,729.613564210013,1,0,1636421.1966233,1636422.24369786,4,1,63,8,16
18,296,538.834226084873,1,0,1636424.11430979,1636425.16137242,4,1,83,4,4
18,297,732.460350496694,1,0,1636426.7966939,1636427.84376731,4,1,85,16,0
18,298,692.849022569135,1,0,1636429.71441619,1636430.76145072,4,1,99,0,16
18,299,537.625448545441,1,0,1636432.5614739,1636433.60853383,4,1,73,0,4
18,300,796.299966517836,0,0,1636435.24386109,1636436.29091833,4,0,83,16,4
18,301,934.463225537911,1,0,1636438.14976508,1636439.19683464,4,1,80,4,8
18,302,743.060250533745,0,0,1636441.24392345,1636442.29099879,4,0,92,16,0
18,303,1765.27596265078,1,0,1636444.14983938,1636445.19690817,4,1,100,8,8
18,304,866.537248715758,1,0,1636448.00870922,1636449.05578109,4,1,86,0,4
18,305,796.423154184595,1,0,1636451.06756552,1636452.11464432,4,1,83,0,4
18,306,1034.74825038575,1,0,1636454.04417683,1636455.09117209,4,1,82,16,4
18,307,812.081441050395,1,0,1636457.20882078,1636458.25588457,4,1,81,8,8
18,308,676.333812298253,1,0,1636460.27944765,1636461.32651105,4,1,70,8,4
18,309,799.796567065641,1,0,1636463.04418068,1636464.09125525,4,1,83,8,0
18,310,685.144798830152,0,0,1636465.92656702,1636466.97364544,4,0,71,16,8
18,311,783.664007904008,1,0,1636468.8442462,1636469.89132577,4,1,62,8,8
18,312,745.285324985161,1,0,1636471.72662292,1636472.77370826,4,1,95,4,8
18,313,820.553276920691,0,0,1636474.65608383,1636475.70315377,4,0,100,4,0
18,314,985.304634552449,0,0,1636477.58552895,1636478.63260082,4,0,70,8,16
18,315,596.335844835266,0,0,1636480.70321652,1636481.75028839,4,0,92,0,0
18,316,1066.33930187672,1,0,1636483.49148799,1636484.53855255,4,1,79,8,0
18,317,870.639008004218,0,0,1636486.76210978,1636487.80918434,4,0,69,16,8
18,318,711.186637869105,1,0,1636489.84450643,1636490.89157369,4,1,82,16,16
18,319,654.770608991385,1,0,1636492.72692742,1636493.77396118,4,1,90,16,8
18,320,544.441182631999,1,0,1636495.60926834,1636496.65634291,4,1,66,0,0
18,321,695.511797443032,0,0,1636511.2447565,1636512.29182838,5,0,76,0,4
18,322,657.861075596884,0,0,1636514.15071632,1636515.19773814,5,0,92,4,8
18,323,719.353969674557,0,0,1636516.98600038,1636518.03305993,5,0,75,16,0
18,324,601.408860413358,1,0,1636519.93898086,1636520.98604388,5,1,97,16,0
18,325,621.448388090357,0,0,1636522.70371774,1636523.75078499,5,0,87,4,8
18,326,498.088418273255,1,0,1636525.43316063,1636526.48022904,5,1,86,8,0
18,327,586.794972419739,0,0,1636528.17436716,1636529.22144519,5,0,76,8,0
18,328,642.978099873289,0,0,1636530.88028509,1636531.92740739,5,0,89,16,16
18,329,989.910692442209,0,0,1636533.63326065,1636534.6803279,5,0,63,0,16
18,330,659.81205762364,1,0,1636536.77446895,1636537.8215439,5,1,98,4,0
18,331,744.538115803152,1,0,1636539.57450944,1636540.62158016,5,1,70,0,0
18,332,680.258874315768,1,0,1636542.51571089,1636543.56278546,5,1,65,16,4
18,333,735.441488213837,1,0,1636545.42163336,1636546.468701,5,1,100,8,16
18,334,680.61534804292,1,0,1636548.3863694,1636549.43344204,5,1,73,16,8
18,335,775.318824220449,1,0,1636551.17464241,1636552.22171236,5,1,91,8,4
18,336,793.833136791363,0,0,1636554.104091,1636555.15118982,5,0,99,8,16
18,337,1422.8566524107,0,0,1636556.99828602,1636558.04531285,5,0,96,0,16
18,338,631.777275819331,1,0,1636560.55122316,1636561.59829195,5,1,68,0,0
18,339,2090.79125197604,0,0,1636563.31596389,1636564.36303384,5,0,82,0,0
18,340,583.514335099608,1,0,1636567.49247927,1636568.53955152,5,1,86,8,8
18,341,783.883050549775,1,0,1636570.31604011,1636571.36312161,5,1,97,0,0
18,342,678.263236768544,1,0,1636573.24548909,1636574.2925548,5,1,67,8,8
18,343,579.965379787609,0,0,1636576.08083782,1636577.12789391,5,0,66,16,0
18,344,1018.94098357297,0,0,1636578.78673226,1636579.83380606,5,0,90,8,8
18,345,757.485122652724,0,0,1636582.0102995,1636583.05737137,5,0,100,16,4
18,346,555.939196608961,1,0,1636584.98686692,1636586.03388336,5,1,68,0,4
18,347,671.415550867096,0,0,1636587.66919059,1636588.71626054,5,0,64,8,0
18,348,909.760665381327,1,0,1636590.43392979,1636591.48100281,5,1,82,8,0
18,349,605.563743971288,1,0,1636593.43396674,1636594.48103977,5,1,66,16,8
18,350,901.630674954504,0,0,1636596.13988198,1636597.1869473,5,0,66,0,8
18,351,772.796175209805,1,0,1636599.1517407,1636600.19874905,5,1,99,0,8
18,352,796.657980186865,0,0,1636602.13995165,1636603.18702391,5,0,84,4,4
18,353,569.851300679147,1,0,1636605.05763468,1636606.1047104,5,1,100,0,16
18,354,693.876868113875,0,0,1636607.71647958,1636608.76355569,5,0,88,16,16
18,355,627.335596363992,0,0,1636610.6459351,1636611.69300697,5,0,79,4,16
18,356,475.1763115637,0,0,1636613.43420696,1636614.48128576,5,0,75,16,8
18,357,533.48057391122,1,0,1636615.99893776,1636617.04601386,5,1,75,4,16
18,358,709.599443944171,1,0,1636618.65779344,1636619.70486493,5,1,73,0,8
18,359,622.477388940752,1,0,1636621.56370629,1636622.61078316,5,1,100,4,0
18,360,520.976271945983,1,0,1636624.2813917,1636625.32849321,5,1,80,16,16
18,361,734.032916137949,1,0,1636626.89318744,1636627.940257,5,1,94,16,8
18,362,670.612137531862,0,0,1636629.68146122,1636630.72857852,5,0,86,4,0
18,363,550.319536356255,1,0,1636632.56384256,1636633.6109152,5,1,65,4,16
18,364,612.053030868992,1,0,1636635.35210941,1636636.39918013,5,1,85,4,8
18,365,591.455309884623,1,0,1636638.12861417,1636639.17568642,5,1,87,4,8
18,366,804.521962767467,1,0,1636640.86982801,1636641.91689026,5,1,61,16,16
18,367,707.577243912965,1,0,1636643.89339956,1636644.94045834,5,1,82,16,8
18,368,1038.15669473261,0,0,1636646.77577935,1636647.82284276,5,0,69,0,4
18,369,598.731841892004,1,0,1636649.95228665,1636650.99935313,5,1,89,0,16
18,370,743.800915544853,0,0,1636652.76408501,1636653.81115534,5,0,92,4,0
18,371,610.825390554965,0,0,1636655.56417902,1636656.61118622,5,0,96,0,8
18,372,526.008096756414,1,0,1636658.32892745,1636659.37592117,5,1,97,8,16
18,373,611.817049793899,0,0,1636660.91713779,1636661.96419657,5,0,94,16,0
18,374,885.445761261508,0,0,1636663.6583293,1636664.70539463,5,0,90,4,16
18,375,835.352331399918,1,0,1636666.70542427,1636667.75248537,5,1,80,4,4
18,376,824.588052928448,1,1,1636669.61134289,1636670.6584113,5,0,67,0,4
18,377,1199.74906276912,0,0,1636672.68196899,1636673.72904817,5,0,61,16,4
18,378,801.329866517335,1,0,1636676.01141049,1636677.05848621,5,1,100,16,4
18,379,1105.13566737063,1,0,1636678.99968381,1636680.04675491,5,1,63,16,0
18,380,1364.83187181875,1,0,1636682.18796822,1636683.23502777,5,1,97,4,4
18,381,602.217663545161,1,0,1636685.61153653,1636686.65860571,5,1,98,8,4
18,382,736.023164354265,0,0,1636688.36450901,1636689.41157395,5,0,70,8,4
18,383,750.847240909934,1,0,1636691.30571353,1636692.3528366,5,1,92,0,4
18,384,617.088705301285,1,0,1636694.11751343,1636695.16458838,5,1,96,4,8
18,385,594.461855012923,0,0,1636696.83519423,1636697.88226687,5,0,69,4,0
18,386,588.069193297997,0,0,1636699.51758411,1636700.56465444,5,0,70,0,0
18,387,634.446979966015,0,0,1636702.34114226,1636703.38821452,5,0,78,16,16
18,388,623.309289570898,1,0,1636705.04707097,1636706.09413129,5,1,74,8,16
18,389,612.140032229945,0,0,1636707.83532204,1636708.88239737,5,0,88,8,8
18,390,875.553034478799,0,0,1636710.50594251,1636711.55300899,5,0,69,8,16
18,391,607.655622065067,0,0,1636713.5648015,1636714.61187645,5,0,99,0,16
18,392,573.44183139503,1,0,1636716.36485432,1636717.41190848,5,1,63,8,8
18,393,1022.28860394098,1,0,1636719.01193135,1636720.05900129,5,1,83,8,4
18,394,767.205002252012,0,0,1636722.10608664,1636723.15315812,5,0,99,4,4
18,395,830.119941849262,0,0,1636725.05906212,1636726.10612898,5,0,76,16,4
18,396,708.55696965009,0,0,1636728.02380162,1636729.07086887,5,0,67,0,8
18,397,593.922139611095,0,0,1636730.95325829,1636732.00032054,5,0,75,4,4
18,398,601.320319343358,0,0,1636733.71798786,1636734.76505665,5,0,78,4,16
18,399,905.368261039257,1,0,1636736.42390309,1636737.47096726,5,1,72,8,4
18,400,885.612834244967,0,0,1636739.40041354,1636740.44747387,5,0,82,8,0
18,401,738.888428546488,1,0,1636747.42403359,1636748.47110239,6,1,84,8,8
18,402,768.472293624654,1,0,1636750.24759598,1636751.2946717,6,1,80,4,4
18,403,610.160177806392,1,0,1636753.14175173,1636754.18882052,6,1,95,0,16
18,404,796.539027476683,0,0,1636755.85946371,1636756.90649593,6,0,81,16,0
18,405,645.665512420237,1,0,1636758.76534037,1636759.812408,6,1,77,8,4
18,406,635.619571199641,0,0,1636761.6242029,1636762.67127208,6,0,74,4,0
18,407,719.745089765638,1,0,1636764.48305504,1636765.53013192,6,1,82,8,16
18,408,795.86457577534,1,0,1636767.28309015,1636768.33020244,6,1,76,16,16
18,409,590.286183403805,1,0,1636770.21253681,1636771.25961138,6,1,70,16,8
18,410,786.226307973266,0,0,1636772.96551545,1636774.01258462,6,0,87,16,4
18,411,884.914130205289,0,0,1636776.00084332,1636777.0478994,6,0,91,0,16
18,412,790.925141656771,1,0,1636778.95382264,1636780.00095149,6,1,81,0,0
18,413,606.745574157685,1,0,1636781.94209442,1636782.9891609,6,1,82,4,16
18,414,678.633569041267,0,0,1636784.75392243,1636785.80101508,6,0,86,8,16
18,415,1097.32904424891,0,0,1636787.53038406,1636788.57745748,6,0,90,8,0
18,416,858.60782279633,1,0,1636790.84807618,1636791.89514651,6,1,79,16,0
18,417,666.665902594104,0,0,1636793.90693555,1636794.9540055,6,0,95,0,8
18,418,603.984634159133,0,0,1636796.77755672,1636797.82462975,6,0,75,16,8
18,419,604.192897910252,1,0,1636799.58936393,1636800.63642233,6,1,99,0,8
18,420,765.623197425157,0,0,1636802.35409389,1636803.40116383,6,0,86,4,8
18,421,744.607793632895,0,0,1636805.31883108,1636806.36591065,6,0,91,4,0
18,422,857.516458490863,0,0,1636808.3188715,1636809.36594299,6,0,88,4,4
18,423,658.807309577242,1,0,1636811.2836622,1636812.33069057,6,1,89,8,4
18,424,1043.45760727301,0,0,1636814.02481945,1636815.07189479,6,0,99,4,0
18,425,720.893428428099,0,0,1636817.24838669,1636818.29545933,6,0,97,8,8
18,426,607.679874403402,0,0,1636820.03669011,1636821.08373003,6,0,78,8,16
18,427,1009.5309978351,1,0,1636822.83668749,1636823.88376475,6,1,91,8,0
18,428,914.74244534038,0,0,1636825.95437237,1636827.00149005,6,0,70,16,16
18,429,905.160381924361,1,0,1636829.02500385,1636830.07206841,6,1,93,4,16
18,430,786.412629298866,1,0,1636831.98974412,1636833.03681214,6,1,96,8,4
18,431,1146.08204015531,1,0,1636834.96624341,1636836.01332413,6,1,70,0,16
18,432,601.319934474304,0,0,1636838.18981411,1636839.2368879,6,0,67,0,4
18,433,971.099575283006,0,0,1636841.02513281,1636842.07220622,6,0,96,4,4
18,434,728.940267581493,1,0,1636844.17820484,1636845.22518778,6,1,94,8,16
18,435,950.210053706542,1,0,1636846.98991812,1636848.03698768,6,1,94,4,0
18,436,741.952332900837,0,0,1636850.02525946,1636851.07232903,6,0,70,8,0
18,437,625.601347070187,1,0,1636852.87236529,1636853.91940906,6,1,66,16,16
18,438,698.466757778078,0,0,1636855.67237615,1636856.71945071,6,0,80,0,0
18,439,637.349970638752,1,0,1636858.50770601,1636859.5547775,6,1,77,0,4
18,440,757.720333756879,1,0,1636861.39009082,1636862.43716038,6,1,73,16,4
18,441,666.996584041044,1,0,1636864.3077723,1636865.35485765,6,1,67,4,8
18,442,650.298517663032,1,0,1636867.06074902,1636868.10781473,6,1,97,4,8
18,443,761.560704326257,0,0,1636869.93145718,1636870.97848478,6,0,93,4,16
18,444,724.058192456141,0,0,1636872.81374998,1636873.86082993,6,0,96,8,0
18,445,793.010090244934,1,0,1636875.76673547,1636876.81380079,6,1,82,16,4
18,446,626.728127710521,0,0,1636878.8020718,1636879.84912905,6,0,71,0,16
18,447,828.406865475699,0,0,1636881.54326986,1636882.59033827,6,0,80,4,8
18,448,598.235242301598,0,0,1636884.57860543,1636885.62567345,6,0,79,0,4
18,449,690.205880440772,0,0,1636887.39040571,1636888.43747451,6,0,64,0,16
18,450,954.728725133464,1,0,1636890.30809221,1636891.35514753,6,1,95,16,16
18,451,845.285863848403,1,0,1636893.40224134,1636894.44930513,6,1,62,16,8
18,452,594.778677914292,0,0,1636896.37879837,1636897.42581789,6,0,66,16,4
18,453,653.618035838008,1,0,1636899.17878036,1636900.22589342,6,1,78,8,0
18,454,580.256025539711,1,0,1636901.95527818,1636903.00234659,6,1,88,8,4
18,455,769.521312089637,0,0,1636904.62590327,1636905.6729686,6,0,93,8,8
18,456,686.29660201259,1,0,1636907.61416774,1636908.66123961,6,1,70,16,0
18,457,961.968686198816,0,0,1636910.40243805,1636911.44951224,6,0,83,16,0
18,458,1039.27500639111,0,0,1636913.5671871,1636914.61426359,6,0,67,8,4
18,459,875.681611243635,1,0,1636916.7436944,1636917.79076242,6,1,72,4,0
18,460,740.987235680223,0,0,1636919.76725786,1636920.81432434,6,0,88,0,0
18,461,717.811046168208,1,0,1636922.66140437,1636923.70850242,6,1,62,8,8
18,462,665.153006091714,0,0,1636925.5790901,1636926.62615273,6,0,99,0,8
18,463,1136.27246487886,0,0,1636928.33206065,1636929.37913367,6,0,100,4,16
18,464,615.272459574044,1,0,1636931.68503982,1636932.73211169,6,1,68,0,8
18,465,792.614735197276,1,0,1636934.40271792,1636935.44978787,6,1,69,4,8
18,466,765.113509027287,0,0,1636937.3909897,1636938.43806542,6,0,71,16,4
18,467,698.306998936459,1,0,1636940.35572574,1636941.40281955,6,1,70,16,8
18,468,698.266963008791,0,0,1636943.14400452,1636944.19107293,6,0,96,16,8
18,469,630.59313595295,1,0,1636946.07344926,1636947.12054539,6,1,94,4,16
18,470,701.237321831286,0,0,1636948.8617165,1636949.90878606,6,0,98,0,0
18,471,598.948574857786,1,0,1636951.74410823,1636952.79118318,6,1,84,0,4
18,472,722.614974016324,0,0,1636954.57943233,1636955.62650189,6,0,61,0,4
18,473,813.879593741149,1,0,1636957.40299047,1636958.45006542,6,1,79,16,16
18,474,923.146527959034,1,0,1636960.35596942,1636961.4030409,6,1,72,4,4
18,475,641.937935259193,1,0,1636963.50894982,1636964.55602054,6,1,88,0,0
18,476,809.476795140654,0,0,1636966.34427315,1636967.3913481,6,0,93,8,8
18,477,586.470450507477,0,0,1636969.33254916,1636970.37962142,6,0,96,0,8
18,478,750.446496531367,0,0,1636972.14434483,1636973.19141939,6,0,68,4,4
18,479,571.059308247641,0,0,1636975.13264201,1636976.17968617,6,0,84,8,16
18,480,867.864209227264,1,0,1636977.87382083,1636978.92089539,6,1,71,16,0
18,481,897.828415501863,1,0,1637000.94468867,1637001.99176209,7,1,82,16,8
18,482,640.995936002582,1,0,1637003.90942895,1637004.95649581,7,1,78,16,0
18,483,661.970918765292,1,0,1637006.70946405,1637007.75653323,7,1,92,16,0
18,484,721.591362729669,0,0,1637009.59184809,1637010.63892034,7,0,91,16,16
18,485,501.139618922025,1,0,1637012.52129745,1637013.56836662,7,1,76,0,4
18,486,551.142967771739,1,0,1637015.07427192,1637016.12133879,7,1,91,0,16
18,487,871.605259831995,0,0,1637017.79194617,1637018.8390192,7,0,69,8,4
18,488,885.214784648269,1,0,1637020.73315609,1637021.78023027,7,1,74,4,16
18,489,698.84324958548,0,0,1637023.72143403,1637024.76854478,7,0,79,8,8
18,490,592.765716835856,0,0,1637026.67440296,1637027.72151526,7,0,87,0,8
18,491,747.797195101157,0,0,1637029.52150609,1637030.56860876,7,0,82,16,16
18,492,565.341867972165,0,0,1637032.35683057,1637033.40389475,7,0,93,0,0
18,493,498.937257099897,1,0,1637034.99214936,1637036.039227,7,1,67,4,4
18,494,647.838232107461,1,0,1637037.62753397,1637038.67454848,7,1,62,8,8
18,495,661.002741893753,0,0,1637040.49809315,1637041.5451758,7,0,69,8,4
18,496,644.67462291941,1,0,1637043.38047449,1637044.42754521,7,1,67,0,8
18,497,676.024688640609,1,0,1637046.1569881,1637047.20405959,7,1,90,4,8
18,498,713.773575611413,0,0,1637048.88643446,1637049.93351749,7,0,99,4,16
18,499,704.381682910025,0,0,1637051.78058675,1637052.82765708,7,0,98,16,16
18,500,656.282350653782,1,0,1637054.56884551,1637055.6159528,7,1,88,16,16
18,501,618.730178801343,0,0,1637057.29830842,1637058.34536759,7,0,85,8,16
18,502,835.139447823167,1,0,1637060.07480009,1637061.12187119,7,1,83,16,4
18,503,814.298816258088,0,0,1637063.03954152,1637064.08660954,7,0,79,4,0
18,504,1422.77465574443,0,0,1637066.01604581,1637067.06313038,7,0,66,0,16
18,505,893.103404669091,0,0,1637069.62785503,1637070.67492651,7,0,79,0,4
18,506,757.530548144132,0,0,1637072.66320214,1637073.71025938,7,0,80,8,16
18,507,731.293918797746,0,0,1637075.54557693,1637076.59264303,7,0,97,4,8
18,508,567.08073662594,0,0,1637078.53393456,1637079.58091327,7,0,96,16,0
18,509,594.883002340794,1,0,1637081.33387766,1637082.38097302,7,1,69,0,0
18,510,1017.94393453747,0,0,1637084.08684937,1637085.13395242,7,0,93,8,0
18,511,595.719907432795,1,0,1637087.27512608,1637088.32218909,7,1,99,16,0
18,512,681.656667497009,1,0,1637090.0281024,1637091.07517158,7,1,99,8,0
18,513,662.477142410353,0,0,1637092.96930847,1637094.01637534,7,0,69,0,8
18,514,671.543358126655,1,0,1637095.73404535,1637096.78111684,7,1,74,0,0
18,515,1160.83489893936,0,0,1637098.59290596,1637099.63997244,7,0,78,4,16
18,516,777.415321674198,1,0,1637101.82824299,1637102.87530986,7,1,82,8,16
18,517,634.034301852807,0,0,1637104.8165063,1637105.86358317,7,0,79,8,8
18,518,607.550912769511,1,0,1637107.65183617,1637108.69890034,7,1,80,8,4
18,519,675.284793833271,0,0,1637110.44010264,1637111.48717374,7,0,67,16,4
18,520,690.250150859356,0,0,1637113.19307973,1637114.24014698,7,0,70,0,16
18,521,828.48732220009,0,0,1637115.95812073,1637117.0048881,7,0,92,4,4
18,522,753.312530694529,0,0,1637118.85196659,1637119.89904039,7,0,61,4,0
18,523,630.157359875739,0,0,1637121.84024145,1637122.88730832,7,0,75,0,16
18,524,811.107230139896,1,0,1637124.67556439,1637125.72244019,7,1,80,0,4
18,525,941.586927976459,0,0,1637127.61677585,1637128.6638458,7,0,85,16,0
18,526,723.863017279655,1,0,1637130.78152952,1637131.82859022,7,1,61,4,0
18,527,983.386374078691,1,0,1637133.5697852,1637134.61685823,7,1,76,0,16
18,528,655.40232998319,1,0,1637136.67570837,1637137.72278601,7,1,99,4,4
18,529,574.116668198258,1,0,1637139.46397483,1637140.51104401,7,1,70,4,8
18,530,841.04667394422,1,0,1637142.11106765,1637143.15813759,7,1,97,16,4
18,531,861.033076886088,0,0,1637145.11111885,1637146.15818995,7,0,61,0,8
18,532,592.927015619352,1,0,1637148.06408162,1637149.11114579,7,1,99,0,4
18,533,578.047119546682,0,0,1637150.81704178,1637151.86412058,7,0,84,8,4
18,534,693.454566178843,1,0,1637153.58179252,1637154.62886593,7,1,84,4,0
18,535,650.953721255064,1,0,1637156.47594327,1637157.52301745,7,1,65,4,4
18,536,1072.39165809006,0,0,1637159.34656598,1637160.3936313,7,0,85,16,4
18,537,679.95667993091,0,0,1637162.57017324,1637163.61720623,7,0,75,4,16
18,538,649.740324122831,1,0,1637165.47605414,1637166.52313563,7,1,94,8,4
18,539,602.39205067046,0,0,1637168.34667145,1637169.39374102,7,0,96,16,8
18,540,708.149295765907,1,0,1637171.14670387,1637172.19377959,7,1,61,16,4
18,541,441.443722462282,1,0,1637174.01733004,1637175.06439344,7,1,97,16,8
18,542,622.917784145102,0,0,1637176.58206199,1637177.62913387,7,0,87,8,0
18,543,692.066781921312,0,0,1637179.40562515,1637180.4526974,7,0,81,16,16
18,544,705.021488014609,1,0,1637182.34684122,1637183.39396776,7,1,84,8,8
18,545,673.011984210461,0,0,1637185.15862996,1637186.20570414,7,0,97,8,16
18,546,501.719370018691,1,0,1637187.94693723,1637188.99398062,7,1,69,8,8
18,547,538.625962333754,1,0,1637190.64105341,1637191.68812682,7,1,86,8,0
18,548,482.366612646729,1,0,1637193.33520963,1637194.38228458,7,1,85,4,4
18,549,663.136965595186,1,0,1637195.97052494,1637197.01764879,7,1,69,0,8
18,550,622.200986836106,0,0,1637198.77056698,1637199.81763192,7,0,62,16,8
18,551,669.730962021276,1,0,1637201.55883191,1637202.60590802,7,1,71,4,16
18,552,1005.58822765015,0,0,1637204.31180593,1637205.35890782,7,0,91,0,4
18,553,767.202307470143,0,0,1637207.53545746,1637208.58247121,7,0,90,8,16
18,554,678.459566785023,0,0,1637210.5001142,1637211.5471853,7,0,78,16,8
18,555,641.314298612997,1,0,1637213.40602743,1637214.45310123,7,1,89,4,0
18,556,722.425188170746,1,0,1637216.15900414,1637217.20606831,7,1,61,0,0
18,557,818.838660838082,0,0,1637219.13551036,1637220.18261765,7,0,92,8,0
18,558,944.675854640082,1,0,1637222.07672528,1637223.12387607,7,1,90,4,8
18,559,587.706945138052,0,0,1637225.276843,1637226.32382749,7,0,76,0,0
18,560,596.556427422911,1,0,1637227.93562515,1637228.98268317,7,1,98,4,8
18,561,658.209465211257,1,0,1637238.52398062,1637239.57104634,8,1,100,8,8
18,562,766.754597658291,0,0,1637241.25341813,1637242.30048884,8,0,68,0,0
18,563,507.516497047618,0,0,1637244.1005124,1637245.14758389,8,0,86,4,8
18,564,456.695105880499,1,0,1637246.80647037,1637247.85349373,8,1,77,16,0
18,565,514.987819362432,0,0,1637249.41822376,1637250.46531257,8,0,84,4,4
18,566,801.205524243414,0,0,1637252.18295949,1637253.23003367,8,0,63,8,4
18,567,459.288202691823,1,0,1637255.04182356,1637256.08888466,8,1,78,16,16
18,568,871.529422467574,0,0,1637257.71244519,1637258.7595109,8,0,70,8,0
18,569,600.274380529299,0,0,1637260.65364856,1637261.70071389,8,0,97,16,8
18,570,471.424867166206,0,0,1637263.45368637,1637264.50075477,8,0,67,8,4
18,571,727.577505633235,1,0,1637266.07727847,1637267.12430953,8,1,79,16,16
18,572,680.352419614792,0,0,1637268.86551529,1637269.91257947,8,0,73,16,4
18,573,1612.50882479362,1,0,1637271.61848508,1637272.66555194,8,1,66,0,4
18,574,496.366102714092,0,0,1637275.47734992,1637276.52442679,8,0,84,8,0
18,575,665.08871759288,1,0,1637278.06560876,1637279.11268063,8,1,83,4,0
18,576,667.093209456652,1,0,1637280.86566119,1637281.91272267,8,1,81,8,16
18,577,734.887914266437,1,0,1637283.75981348,1637284.8068688,8,1,74,8,8
18,578,733.515913365409,0,0,1637286.68925591,1637287.73632432,8,0,99,0,8
18,579,574.848478892818,1,0,1637289.66575867,1637290.71283015,8,1,64,0,16
18,580,492.702814284712,0,0,1637292.35994029,1637293.40702486,8,0,75,8,16
18,581,473.710765130818,1,0,1637295.05406032,1637296.10113065,8,1,88,0,4
18,582,520.928536774591,1,0,1637297.67761623,1637298.7246858,8,1,85,0,16
18,583,525.141549762338,0,0,1637300.4423612,1637301.48942614,8,0,95,0,4
18,584,586.766870226711,1,0,1637303.07768499,1637304.12478419,8,1,77,4,4
18,585,706.610991852358,1,0,1637305.8659553,1637306.91302564,8,1,74,16,0
18,586,572.498677298427,1,0,1637308.66600427,1637309.71306536,8,1,96,8,8
18,587,669.417218770832,1,0,1637311.31307283,1637312.36014894,8,1,72,4,8
18,588,574.910842580721,0,0,1637314.18368822,1637315.23077472,8,0,66,16,0
18,589,569.625713629648,0,0,1637316.9366684,1637317.98373911,8,0,94,4,0
18,590,1007.50225340016,0,0,1637319.57205224,1637320.61908022,8,0,63,16,16
18,591,881.202721502632,0,0,1637322.77206256,1637323.81910209,8,0,78,8,16
18,592,504.138849675655,0,0,1637325.76030623,1637326.80737425,8,0,80,0,0
18,593,705.710953101516,1,0,1637328.45452058,1637329.50154394,8,1,71,0,4
18,594,1335.43240302242,1,0,1637331.33684225,1637332.38390796,8,1,96,4,16
18,595,927.66096512787,1,0,1637334.80747935,1637335.85454737,8,1,79,8,4
18,596,1049.00450981222,0,0,1637337.92515691,1637338.97222339,8,0,90,4,8
18,597,1163.3760263212,0,0,1637341.04284564,1637342.08991019,8,0,95,4,4
18,598,674.679635092616,1,0,1637344.40758999,1637345.45465339,8,1,96,4,16
18,599,592.897758586332,0,0,1637347.27820653,1637348.32528418,8,0,92,0,8
18,600,707.694272045046,1,0,1637350.1253216,1637351.1724285,8,1,99,16,16
18,601,553.83345996961,1,0,1637353.07830093,1637354.12540706,8,1,95,0,8
18,602,622.660245280713,1,0,1637355.86654044,1637356.91362079,8,1,72,4,8
18,603,739.386568078771,1,0,1637358.61953178,1637359.66658556,8,1,68,8,16
18,604,873.631694354117,0,0,1637361.58426051,1637362.63132006,8,0,97,16,16
18,605,640.375378774479,0,0,1637364.56077096,1637365.60783282,8,0,84,4,16
18,606,579.600436845794,1,0,1637367.38432564,1637368.43140252,8,1,65,0,8
18,607,452.464384958148,0,0,1637370.12553756,1637371.17260481,8,0,83,4,4
18,608,660.173536045477,1,0,1637372.77262999,1637373.81969416,8,1,63,4,0
18,609,888.388017890975,0,0,1637375.53737072,1637376.58443335,8,0,100,16,8
18,610,770.100293448195,0,0,1637378.66681808,1637379.71388148,8,0,80,8,4
18,611,547.209436772391,0,0,1637381.57273208,1637382.61980395,8,0,86,16,0
18,612,536.669975612313,1,0,1637384.30216997,1637385.34924607,8,1,77,0,16
18,613,610.233320388943,1,0,1637386.93750415,1637387.98457025,8,1,62,0,0
18,614,733.968627639115,0,0,1637389.67870182,1637390.7257787,8,0,98,8,0
18,615,545.356234768406,1,0,1637392.59639255,1637393.64346211,8,1,65,8,0
18,616,735.812590457499,1,0,1637395.37289769,1637396.41999651,8,1,87,0,16
18,617,682.322265114635,0,0,1637398.2552798,1637399.30234397,8,0,61,8,16
18,618,872.685845242813,0,0,1637401.07884565,1637402.12594292,8,0,90,8,0
18,619,641.703109256923,1,0,1637404.12593676,1637405.17300363,8,1,87,16,4
18,620,763.100933283567,0,0,1637407.00832503,1637408.05539575,8,0,80,4,4
18,621,671.625354792923,0,0,1637409.87894312,1637410.92601884,8,0,96,0,8
18,622,714.089243439958,1,0,1637412.80839363,1637413.85546358,8,1,94,8,4
18,623,691.349599510431,1,0,1637415.66725539,1637416.71432419,8,1,71,4,16
18,624,645.545404637232,0,0,1637418.47905722,1637419.52612216,8,0,98,4,16
18,625,800.005985656753,1,0,1637421.36143702,1637422.4085085,8,1,93,8,8
18,626,564.926880178973,1,0,1637424.26734794,1637425.31443598,8,1,76,8,8
18,627,933.071591425687,0,0,1637427.07914861,1637428.12622241,8,0,83,4,8
18,628,700.447766808793,0,0,1637430.14977509,1637431.19684619,8,0,64,16,4
18,629,837.570861447603,0,0,1637433.05569448,1637434.10276404,8,0,80,16,4
18,630,811.591385863721,1,0,1637436.10280408,1637437.14985477,8,1,100,4,0
18,631,903.364539146423,1,0,1637438.99693943,1637440.0440086,8,1,90,4,0
18,632,820.748067228124,1,0,1637442.02050674,1637443.0675736,8,1,62,0,0
18,633,767.88176340051,0,0,1637444.93818514,1637445.98528858,8,0,86,0,0
18,634,745.293794199824,1,0,1637447.85586471,1637448.90293311,8,1,73,16,8
18,635,989.32709149085,1,0,1637450.7617891,1637451.80885905,8,1,85,16,4
18,636,550.376125611365,0,0,1637453.91509634,1637454.96183291,8,0,66,0,16
18,637,767.616525292397,0,0,1637456.63244376,1637457.67951024,8,0,92,16,0
18,638,903.811478754506,0,0,1637459.53837123,1637460.58543464,8,0,96,16,8
18,639,596.329300431535,1,0,1637462.5266511,1637463.57370449,8,1,78,16,8
18,640,598.214839119464,0,0,1637465.26783414,1637466.31490717,8,0,89,0,4
18,641,553.353413706645,1,0,1637491.91528574,1637492.96228178,9,1,74,0,8
18,642,485.817017732188,1,0,1637494.67995834,1637495.72702212,9,1,66,8,16
18,643,1152.08435128443,0,0,1637497.35056918,1637498.39763798,9,0,89,8,4
18,644,864.876911975443,1,0,1637500.69178857,1637501.73885582,9,1,71,16,0
18,645,536.724640056491,1,0,1637503.63299387,1637504.68006613,9,1,88,4,4
18,646,695.018662372604,0,0,1637506.35079824,1637507.39777887,9,0,100,4,8
18,647,533.761595608667,0,0,1637509.29188766,1637510.33895414,9,0,92,0,8
18,648,849.704830674455,1,0,1637511.95082418,1637512.99782407,9,1,71,4,16
18,649,980.756705859676,0,0,1637514.96254624,1637516.00968009,9,0,65,4,4
18,650,715.817718300968,0,0,1637518.10376109,1637519.1508318,9,0,74,16,0
18,651,730.625626631081,0,0,1637520.96263786,1637522.00974554,9,0,97,4,4
18,652,841.41854592599,1,0,1637523.79794618,1637524.84501574,9,1,80,8,0
18,653,637.841565767303,0,0,1637526.86858151,1637527.91564568,9,0,82,4,0
18,654,497.155657736585,1,0,1637529.58624883,1637530.63331608,9,1,78,4,4
18,655,829.720737412572,1,0,1637532.22158378,1637533.26864179,9,1,82,8,4
18,656,768.930396996439,1,0,1637535.13925333,1637536.18632405,9,1,69,8,0
18,657,717.572370078415,0,0,1637537.97457974,1637539.0216493,9,0,74,0,16
18,658,626.609559869394,1,0,1637540.82166901,1637541.86874319,9,1,95,8,8
18,659,569.892491446808,1,0,1637543.64522369,1637544.69239335,9,1,79,0,0
18,660,645.122717367485,0,0,1637546.45703861,1637547.50410547,9,0,63,8,16
18,661,764.479478355497,1,0,1637549.17477946,1637550.22180128,9,1,62,0,0
18,662,812.753197969869,0,0,1637552.09245055,1637553.13947122,9,0,61,16,16
18,663,605.738901300356,1,0,1637555.10418993,1637556.15129068,9,1,62,8,16
18,664,745.339219225571,0,0,1637557.88069969,1637558.92776964,9,0,91,16,16
18,665,1051.49251245894,0,0,1637560.83367979,1637561.88073588,9,0,100,8,4
18,666,616.672177566215,1,0,1637564.05738869,1637565.10430773,9,1,74,0,16
18,667,757.95516022481,0,0,1637566.82198468,1637567.8690577,9,0,71,4,16
18,668,741.451113717631,0,0,1637569.7984882,1637570.84554775,9,0,93,4,16
18,669,565.917384577915,1,0,1637572.62210948,1637573.66911938,9,1,68,8,8
18,670,465.03951982595,0,0,1637575.28093052,1637576.32799469,9,0,82,0,4
18,671,784.574440447614,0,0,1637577.8574084,1637578.9044822,9,0,90,8,0
18,672,557.866696035489,0,0,1637580.78685776,1637581.83393772,9,0,75,8,4
18,673,660.787933738902,0,0,1637583.58687901,1637584.63400208,9,0,71,0,8
18,674,645.471492083743,1,0,1637586.46927613,1637587.51634338,9,1,98,0,8
18,675,528.843334177509,0,0,1637589.28109336,1637590.3281352,9,0,93,4,16
18,676,600.552707212046,0,0,1637591.86933064,1637592.9164079,9,0,87,8,16
18,677,905.414071399719,1,0,1637594.57524857,1637595.62231813,9,1,95,16,0
18,678,663.615857018158,1,0,1637597.74000609,1637598.78706063,9,1,73,8,8
18,679,621.188924647868,1,0,1637600.51649852,1637601.56356654,9,1,97,8,4
18,680,857.093771453947,0,0,1637603.31652632,1637604.36359588,9,0,70,16,4
18,681,834.793752990663,1,0,1637606.35187574,1637607.39892606,9,1,97,0,4
18,682,740.985311102122,0,0,1637609.37541764,1637610.42250992,9,0,98,4,0
18,683,913.656855467707,1,0,1637612.35192887,1637613.39899727,9,1,63,16,16
18,684,590.05559165962,1,0,1637615.4225538,1637616.46963068,9,1,68,16,4
18,685,868.565222946927,0,0,1637618.15198707,1637619.19906433,9,0,74,8,8
18,686,1206.31072227843,1,0,1637621.15203288,1637622.19910283,9,1,84,8,0
18,687,712.025852873921,1,0,1637624.49324842,1637625.54031875,9,1,79,0,16
18,688,1023.71680922806,1,0,1637627.26975625,1637628.31682081,9,1,98,4,0
18,689,583.540512481704,0,0,1637630.51685076,1637631.56391955,9,0,88,0,4
18,690,620.287731057033,1,0,1637633.25805768,1637634.30512416,9,1,96,4,8
18,691,524.728101678193,1,0,1637635.92867507,1637636.97574733,9,1,68,8,8
18,692,713.954892009497,0,0,1637638.50517875,1637639.55224946,9,0,95,0,0
18,693,734.740859363228,1,0,1637641.44639444,1637642.49346015,9,1,84,16,8
18,694,606.496889377013,1,0,1637644.23465859,1637645.28173124,9,1,98,4,0
18,695,678.964635590091,0,0,1637647.01116104,1637648.05823214,9,0,87,16,4
18,696,790.764612844214,0,0,1637649.84648629,1637650.89355393,9,0,76,16,4
18,697,855.900392401963,0,0,1637652.71711323,1637653.7641851,9,0,66,4,8
18,698,880.940178176388,1,0,1637655.71715326,1637656.76422206,9,1,63,16,0
18,699,894.330660114065,0,1,1637658.74071211,1637659.78777936,9,1,64,0,16
18,700,850.851629395038,0,0,1637661.71742043,1637662.76429404,9,0,69,4,4
18,701,786.749084945768,1,0,1637664.7643387,1637665.811379,9,1,69,16,8
18,702,685.224100714549,1,0,1637667.64669925,1637668.69377112,9,1,99,0,0
18,703,877.986372914165,0,0,1637670.54085192,1637671.5879211,9,0,99,4,0
18,704,789.981987327337,1,0,1637673.49383048,1637674.54089542,9,1,68,0,0
18,705,650.797041831538,0,0,1637676.43504117,1637677.48210573,9,0,76,4,16
18,706,608.56759455055,1,0,1637679.22330302,1637680.27037797,9,1,88,16,0
18,707,819.09504509531,0,0,1637682.04686809,1637683.09393534,9,0,80,16,8
18,708,543.80638198927,1,0,1637685.03514141,1637686.08220597,9,1,88,16,4
18,709,686.663084896281,1,0,1637687.74111208,1637688.78812698,9,1,72,0,16
18,710,524.931745836511,0,0,1637690.50578814,1637691.55286848,9,0,85,0,4
18,711,774.974283995107,1,0,1637693.25876908,1637694.30591256,9,1,81,8,16
18,712,555.476858280599,0,0,1637696.12938755,1637697.1764575,9,0,76,8,0
18,713,804.55699423328,0,0,1637698.84706719,1637699.89416062,9,0,83,4,8
18,714,1032.23445545882,0,0,1637701.78827865,1637702.83534359,9,0,73,4,8
18,715,802.368490956724,0,0,1637705.03536854,1637706.08244734,9,0,71,0,8
18,716,799.025490181521,0,0,1637708.02364494,1637709.07077417,9,0,93,16,16
18,717,620.49214518629,1,0,1637711.01191787,1637712.05898859,9,1,94,0,4
18,718,564.909556880593,0,0,1637713.88254019,1637714.92961129,9,0,87,16,8
18,719,799.891267204657,1,0,1637716.63551652,1637717.68258877,9,1,81,16,8
18,720,809.656187193468,0,0,1637719.67084285,1637720.71792126,9,0,68,16,16
