sub_id,Trial,RT,Resp,Error,Fix_onset,Disp_onset,block,tid,tloc,fish_setsize,bird_setsize
10,1,594.218561425805,0,0,1062096.07772491,1062097.12477656,1,0,83,16,16
10,2,606.739850016311,0,0,1062098.76004236,1062099.807084,1,0,78,16,8
10,3,660.060612950474,1,0,1062101.41882204,1062102.46585906,1,1,85,4,8
10,4,697.994812158868,1,0,1062104.31293042,1062105.35993241,1,1,68,16,0
10,5,461.514693219215,1,0,1062107.10107674,1062108.14811915,1,1,65,0,0
10,6,520.746554480866,0,0,1062109.65398636,1062110.70101992,1,0,72,0,16
10,7,588.559228694066,1,0,1062112.3951072,1062113.44214538,1,1,95,4,0
10,8,662.119392072782,1,0,1062115.17151947,1062116.21855957,1,1,91,8,8
10,9,642.230307450518,0,0,1062117.92440939,1062118.9714645,1,0,88,8,0
10,10,637.887546094134,1,0,1062120.7596497,1062121.80669249,1,1,70,0,8
10,11,655.394098255783,1,0,1062123.58312863,1062124.63015911,1,1,68,4,8
10,12,551.109312102199,1,0,1062126.3124804,1062127.35952281,1,1,77,16,16
10,13,691.714919637889,1,0,1062128.98301376,1062130.03005001,1,1,81,16,16
10,14,595.504720928147,0,0,1062131.87708518,1062132.92411874,1,0,65,4,8
10,15,600.065371254459,1,0,1062134.65353903,1062135.70052601,1,1,93,16,4
10,16,481.707513099536,1,0,1062137.47696022,1062138.52399648,1,1,63,0,16
10,17,475.757918553427,0,0,1062140.02985329,1062141.07688762,1,0,63,4,0
10,18,468.634958378971,1,0,1062142.61804627,1062143.66506789,1,1,83,0,8
10,19,630.171358818188,0,0,1062145.30032675,1062146.34736069,1,0,91,16,16
10,20,496.838846709579,1,0,1062148.07675096,1062149.12377643,1,1,92,0,16
10,21,523.976389318705,0,0,1062150.82964434,1062151.87666711,1,0,66,8,4
10,22,436.313511803746,1,0,1062153.59428099,1062154.64130377,1,1,67,4,4
10,23,614.587309304625,1,0,1062156.12362591,1062157.17076649,1,1,76,8,8
10,24,606.382604688406,0,0,1062158.90003934,1062159.94707982,1,0,99,4,4
10,25,559.343658853322,0,0,1062161.65291963,1062162.69995626,1,0,72,16,8
10,26,700.4354740493,0,0,1062164.39404894,1062165.44107403,1,0,100,8,8
10,27,528.995914617553,1,0,1062167.32338562,1062168.37042533,1,1,62,4,0
10,28,483.904108637944,1,0,1062169.9233288,1062170.97036736,1,1,64,4,4
10,29,515.546096721664,0,0,1062172.54680165,1062173.59383867,1,0,95,4,4
10,30,695.979533484206,1,0,1062175.3114922,1062176.35848996,1,1,91,4,4
10,31,540.660661645234,0,0,1062178.25260604,1062179.29959879,1,0,71,0,0
10,32,557.862323243171,1,0,1062180.89958932,1062181.94659516,1,1,64,8,16
10,33,521.171937696636,1,0,1062183.52303715,1062184.57007186,1,1,87,0,0
10,34,507.151605794206,0,0,1062186.17004045,1062187.21706515,1,0,82,8,0
10,35,459.502109326422,0,0,1062188.88762622,1062189.93465747,1,0,83,4,8
10,36,497.343532508239,0,0,1062191.42874676,1062192.47577262,1,0,78,0,16
10,37,467.946260701865,1,0,1062194.09926972,1062195.14631213,1,1,63,8,4
10,38,692.396303173155,1,0,1062196.66392686,1062197.7109558,1,1,90,16,0
10,39,553.482220740989,1,0,1062199.52268606,1062200.569715,1,1,94,4,8
10,40,511.579828802496,0,0,1062202.2167464,1062203.26378073,1,0,69,0,16
10,41,470.88737366721,1,0,1062204.88727629,1062205.93430716,1,1,61,0,4
10,42,357.469353824854,0,0,1062207.51083307,1062208.55777616,1,0,63,8,0
10,43,612.301787128672,0,0,1062210.00481149,1062211.05185775,1,0,78,0,8
10,44,561.331989942119,1,0,1062212.75769139,1062213.80472264,1,1,86,4,0
10,45,370.939189568162,0,0,1062215.42826517,1062216.47526677,1,0,74,8,16
10,46,668.804264860228,0,0,1062217.8752416,1062218.9222663,1,0,79,8,16
10,47,601.397341117263,0,0,1062220.79281267,1062221.83984238,1,0,81,0,4
10,48,579.95416293852,1,0,1062223.58098324,1062224.62802026,1,1,69,16,0
10,49,477.820547297597,0,0,1062226.322101,1062227.36913609,1,0,82,8,4
10,50,443.317133234814,0,0,1062228.99262704,1062230.03967523,1,0,73,4,16
10,51,641.503498423845,1,0,1062231.59257253,1062232.63961186,1,1,85,16,4
10,52,554.385727504268,1,0,1062234.34545821,1062235.39249292,1,1,87,0,8
10,53,435.935093555599,0,0,1062237.06312175,1062238.11012104,1,0,65,4,16
10,54,830.674042692408,0,0,1062239.60422958,1062240.65120039,1,0,99,8,0
10,55,589.072768576443,0,0,1062242.52174829,1062243.56878801,1,0,88,8,16
10,56,596.072925487533,1,0,1062245.36874882,1062246.41578507,1,1,78,4,16
10,57,543.409678386524,0,0,1062248.13339587,1062249.18043559,1,0,87,8,4
10,58,651.537159457803,1,0,1062250.78039994,1062251.8274308,1,1,92,8,4
10,59,547.760908957571,1,0,1062253.59210942,1062254.63914259,1,1,95,16,0
10,60,628.746612928808,1,0,1062256.33322526,1062257.38025381,1,1,92,8,0
10,61,478.265948826447,1,0,1062259.15669457,1062260.2037262,1,1,72,4,16
10,62,604.199097724631,0,0,1062261.7095938,1062262.75661388,1,0,100,0,0
10,63,447.329981951043,1,0,1062264.55657508,1062265.60360786,1,1,74,16,8
10,64,627.093199174851,1,0,1062267.25063464,1062268.29767821,1,1,94,16,16
10,65,712.647252483293,0,0,1062270.12116369,1062271.16819956,1,0,67,16,0
10,66,618.142822291702,1,0,1062273.05051307,1062274.09755279,1,1,97,8,8
10,67,443.079226650298,0,0,1062275.74457688,1062276.79160928,1,0,96,0,0
10,68,477.4155667983,1,0,1062278.40333577,1062279.45038819,1,1,67,8,16
10,69,558.542937040329,0,0,1062281.06211623,1062282.10914863,1,0,78,16,4
10,70,658.337521133944,0,0,1062283.74442058,1062284.79146415,1,0,71,0,4
10,71,557.8977400437,0,0,1062286.47376773,1062287.52082361,1,0,87,16,8
10,72,438.901999266818,0,1,1062289.21494016,1062290.26191789,1,1,96,16,4
10,73,473.547079134732,1,0,1062291.74436977,1062292.79128244,1,1,67,0,4
10,74,463.253183523193,0,0,1062294.28537443,1062295.33240606,1,0,63,4,0
10,75,705.711384303868,0,0,1062296.81476785,1062297.86176714,1,0,91,4,16
10,76,576.297019841149,0,0,1062299.62643229,1062300.67347932,1,0,100,0,8
10,77,447.853915626183,0,0,1062302.4617315,1062303.50871924,1,0,88,0,4
10,78,525.25099995546,1,0,1062305.08514583,1062306.13219479,1,1,83,16,8
10,79,501.025698380545,0,0,1062307.81450761,1062308.86154309,1,0,76,8,8
10,80,486.698935972527,0,0,1062310.3909165,1062311.43795737,1,0,64,16,4
10,81,504.134269896895,0,0,1062327.10801871,1062328.15526867,2,0,86,0,4
10,82,484.33449678123,1,0,1062329.66111971,1062330.70814441,2,1,95,0,8
10,83,563.672946533188,1,0,1062332.33164961,1062333.37869317,2,1,78,0,0
10,84,474.621509434655,0,0,1062334.97865906,1062336.02570147,2,0,61,4,0
10,85,591.099210781977,1,0,1062337.64919204,1062338.69623599,2,1,80,16,0
10,86,503.082552691922,1,0,1062340.34325045,1062341.39028555,2,1,69,0,16
10,87,682.0554418955,0,0,1062342.93144227,1062343.97848391,2,0,89,16,8
10,88,614.68355008401,0,0,1062345.82529937,1062346.87255225,2,0,73,16,0
10,89,569.1682852339,1,0,1062348.6489676,1062349.69601425,2,1,88,8,4
10,90,566.155954264104,1,0,1062351.29597129,1062352.34302409,2,1,84,8,16
10,91,408.655115170404,0,0,1062354.10768731,1062355.1547328,2,0,75,0,8
10,92,464.76339106448,1,0,1062356.67239873,1062357.7193807,2,1,97,0,0
10,93,558.885553386062,1,0,1062359.22524137,1062360.27228455,2,1,80,0,4
10,94,657.570675946772,0,0,1062361.84871345,1062362.89575894,2,0,92,4,0
10,95,620.692813536152,1,0,1062364.60160413,1062365.64864347,2,1,70,8,16
10,96,567.360116867349,1,0,1062367.34273267,1062368.38976431,2,1,78,4,4
10,97,569.086288334802,0,0,1062370.02503472,1062371.07206828,2,0,89,16,16
10,98,460.685099009424,0,0,1062372.70733022,1062373.75437494,2,0,85,8,4
10,99,464.614795753732,1,0,1062375.38963727,1062376.43666967,2,1,89,0,16
10,100,488.773883553222,0,0,1062378.06016678,1062379.10726347,2,0,71,16,4
10,101,438.391538802534,0,0,1062380.77776757,1062381.82480074,2,0,74,16,4
10,102,429.977414896712,0,0,1062383.40124466,1062384.44829015,2,0,62,4,8
10,103,538.015199825168,1,0,1062386.06001048,1062387.10706829,2,1,87,4,4
10,104,553.920692997053,1,0,1062388.8482053,1062389.89524271,2,1,92,16,16
10,105,617.150774225593,0,0,1062391.55403202,1062392.6010752,2,0,94,0,0
10,106,566.204459639266,1,0,1062394.30692154,1062395.35395664,2,1,93,16,8
10,107,347.344841342419,0,0,1062397.1186291,1062398.16566881,2,0,84,8,0
10,108,565.970787312835,1,0,1062399.64799596,1062400.69503298,2,1,87,16,8
10,109,443.243990419433,1,1,1062402.30677025,1062403.35380766,2,0,88,16,0
10,110,477.139933500439,1,0,1062404.84790195,1062405.89493589,2,1,85,8,16
10,111,577.925795922056,1,0,1062407.56549966,1062408.61252898,2,1,99,4,4
10,112,467.552829068154,0,0,1062410.22426703,1062411.27131367,2,0,76,0,16
10,113,502.832712139934,1,0,1062412.82420828,1062413.87125031,2,1,85,8,8
10,114,445.625368040055,0,0,1062415.42416609,1062416.47120042,2,0,76,8,8
10,115,388.397621456534,0,0,1062417.95352949,1062419.00056381,2,0,75,0,0
10,116,505.863906349987,1,0,1062420.41236122,1062421.47110764,2,1,65,8,4
10,117,354.840445099398,0,0,1062423.11814366,1062424.16518492,2,0,64,16,16
10,118,549.747440498322,1,0,1062425.56496867,1062426.64728327,2,1,90,16,16
10,119,434.128080029041,1,0,1062428.23569156,1062429.28273974,2,1,76,4,16
10,120,520.438584499061,0,0,1062430.8944647,1062431.94152713,2,0,82,16,0
10,121,479.973257286474,0,0,1062433.52973781,1062434.57675096,2,0,66,4,8
10,122,604.35231262818,0,0,1062436.24730549,1062437.29435983,2,0,93,16,8
10,123,639.806198887527,1,0,1062439.05903268,1062440.10606431,2,1,82,4,4
10,124,470.419259276241,0,0,1062441.84723481,1062442.89426606,2,0,88,0,4
10,125,669.975320808589,0,0,1062444.51774469,1062445.56484869,2,0,61,16,4
10,126,623.970383778214,0,0,1062447.27064846,1062448.31770511,2,0,90,4,8
10,127,668.639500858262,1,0,1062450.10592072,1062451.15295504,2,1,65,8,8
10,128,525.214043445885,0,0,1062452.87060511,1062453.91757515,2,0,93,4,16
10,129,477.916787844151,0,0,1062455.55287097,1062456.59990299,2,0,76,4,8
10,130,432.232524966821,1,0,1062458.22341742,1062459.27043865,2,1,85,8,0
10,131,593.504456104711,1,0,1062460.82341102,1062461.88221019,2,1,72,16,0
10,132,643.16961588338,0,0,1062463.61153463,1062464.65856972,2,0,100,8,0
10,133,718.932919437066,0,0,1062466.45852938,1062467.50558526,2,0,100,8,4
10,134,639.453958254308,0,0,1062469.37613317,1062470.42320291,2,0,82,16,16
10,135,437.786763068289,1,0,1062472.19961673,1062473.24670957,2,1,66,0,4
10,136,507.834914140403,0,0,1062474.78779738,1062475.8348344,2,0,71,0,8
10,137,380.047785816714,0,0,1062477.50547516,1062478.55244866,2,0,72,0,16
10,138,460.423324489966,1,0,1062479.97595355,1062481.02298864,2,1,94,4,4
10,139,399.05992615968,0,0,1062482.50532426,1062483.55235704,2,0,95,0,16
10,140,512.261597206816,1,0,1062485.15233333,1062486.19937189,2,1,81,0,8
10,141,499.009649967775,1,0,1062487.84640522,1062488.89344108,2,1,75,16,8
10,142,633.901644963771,0,0,1062490.49341891,1062491.54045323,2,0,82,8,0
10,143,529.15259427391,1,0,1062493.29336625,1062494.34040789,2,1,92,4,16
10,144,501.642023213208,0,0,1062495.91684872,1062496.96388959,2,0,80,4,0
10,145,490.326437167823,0,0,1062498.55210143,1062499.59916424,2,0,92,0,8
10,146,465.492125134915,0,0,1062501.2579343,1062502.30496978,2,0,96,4,0
10,147,468.545647105202,1,0,1062503.96380606,1062505.01082075,2,1,74,4,16
10,148,471.329695545137,1,0,1062506.64607269,1062507.69310586,2,1,75,16,4
10,149,658.883397700265,1,0,1062509.28132154,1062510.32835895,2,1,91,8,8
10,150,763.843792956322,0,0,1062512.16362081,1062513.22245424,2,0,79,4,8
10,151,592.568612424657,1,0,1062515.16358424,1062516.21062319,2,1,78,16,4
10,152,435.928549151868,0,0,1062517.86941096,1062518.91648455,2,0,86,0,4
10,153,507.96156655997,1,0,1062520.46943151,1062521.51641464,2,1,92,4,16
10,154,592.179415281862,0,0,1062523.12814037,1062524.17518278,2,0,89,8,16
10,155,804.464259883389,1,0,1062525.93991644,1062526.98689764,2,1,100,8,16
10,156,628.82437533699,1,0,1062528.96335103,1062530.01040191,2,1,72,4,0
10,157,606.891525210813,1,0,1062531.81048322,1062532.85747135,2,1,94,8,4
10,158,594.542699865997,0,0,1062534.6456142,1062535.6926362,2,0,91,8,0
10,159,469.560023164377,1,0,1062537.35146863,1062538.3985222,2,1,71,8,8
10,160,636.981344548985,1,0,1062539.95143567,1062541.01019827,2,1,100,0,0
10,161,632.797572528943,0,0,1062548.7983646,1062549.84536351,3,0,93,8,16
10,162,445.600345730782,1,0,1062551.58653978,1062552.63353369,3,1,85,8,4
10,163,442.392453551292,1,0,1062554.28057394,1062555.32761597,3,1,88,8,8
10,164,475.528480950743,0,0,1062556.78641806,1062557.83345238,3,0,95,0,4
10,165,428.182719973847,1,0,1062559.51577945,1062560.56282225,3,1,84,0,4
10,166,482.919374946505,0,0,1062562.04516672,1062563.09220451,3,0,91,8,16
10,167,636.600616620854,0,0,1062564.72746453,1062565.7745054,3,0,91,16,8
10,168,669.500662013888,0,0,1062567.46859153,1062568.51563779,3,0,99,16,4
10,169,472.142736194655,0,0,1062570.30384069,1062571.3508881,3,0,77,4,0
10,170,492.139610461891,0,0,1062572.95085746,1062573.99790064,3,0,79,0,0
10,171,567.057151347399,0,0,1062575.55081604,1062576.59785922,3,0,76,8,4
10,172,443.204724229872,0,0,1062578.30371596,1062579.3507526,3,0,95,4,4
10,173,545.768728246912,1,0,1062580.88018067,1062581.92718728,3,1,69,8,8
10,174,506.217301823199,1,0,1062583.50366045,1062584.55067052,3,1,80,8,0
10,175,560.425403295085,0,0,1062586.06829487,1062587.11533305,3,0,72,16,8
10,176,710.668545449153,1,0,1062588.82119826,1062589.86823451,3,1,73,16,4
10,177,490.2321214322,0,0,1062591.59761669,1062592.64466449,3,0,79,0,8
10,178,526.999499183148,1,0,1062594.29169281,1062595.33875255,3,1,88,0,16
10,179,1107.92476427741,0,0,1062596.87996047,1062597.92693859,3,0,100,4,16
10,180,575.27032494545,1,0,1062600.19748673,1062601.24454569,3,1,61,4,8
10,181,556.242786347866,0,0,1062602.84451582,1062603.8915436,3,0,72,4,16
10,182,567.79743428342,0,0,1062605.4679879,1062606.51502839,3,0,95,4,8
10,183,480.575723340735,0,0,1062608.20912145,1062609.25618734,3,0,61,0,8
10,184,580.982782877982,0,0,1062610.87965866,1062611.92672109,3,0,63,16,0
10,185,573.477939935401,1,0,1062613.53825828,1062614.58548999,3,1,70,16,8
10,186,685.180567204952,1,0,1062616.33845112,1062617.38545234,3,1,70,16,4
10,187,571.603557793424,1,0,1062619.15012827,1062620.19717145,3,1,86,0,8
10,188,500.922528328374,0,0,1062621.91480419,1062622.96184082,3,0,72,16,0
10,189,545.604734215885,0,0,1062624.50299215,1062625.55003303,3,0,99,4,8
10,190,497.942534042522,1,0,1062627.26764767,1062628.31469817,3,1,74,8,0
10,191,611.638881964609,1,0,1062629.94996781,1062630.99700599,3,1,89,16,0
10,192,497.363165719435,1,0,1062632.73818496,1062633.78519696,3,1,70,4,16
10,193,555.709613487124,0,0,1062635.36166051,1062636.40872448,3,0,98,0,16
10,194,401.700768619776,0,0,1062637.99689858,1062639.043946,3,0,75,8,8
10,195,492.102268850431,0,0,1062640.62038645,1062641.66743002,3,0,77,8,8
10,196,608.757823007181,0,0,1062643.25568266,1062644.3026885,3,0,63,8,0
10,197,641.90924866125,1,0,1062645.94972336,1062646.99675769,3,1,100,4,0
10,198,543.035494862124,0,0,1062648.80849373,1062649.85553114,3,0,97,0,16
10,199,477.920252364129,1,0,1062651.60851883,1062652.65548656,3,1,72,0,0
10,200,575.751143274829,1,0,1062654.31429088,1062655.38485719,3,1,71,8,16
10,201,432.160536991432,0,0,1062657.17315094,1062658.22026727,3,0,77,0,16
10,202,430.747339734808,0,0,1062659.83185171,1062660.89070515,3,0,76,16,16
10,203,388.735618442297,0,0,1062662.33769852,1062663.38473978,3,0,85,0,0
10,204,552.915940992534,1,0,1062664.84354341,1062665.89058697,3,1,81,4,4
10,205,413.509106496349,1,0,1062667.52588087,1062668.57289287,3,1,65,8,16
10,206,529.172612121329,1,0,1062670.05525889,1062671.10227743,3,1,70,8,4
10,207,452.272129710764,0,0,1062672.81992827,1062673.86694681,3,0,66,4,4
10,208,485.211826162413,0,0,1062675.5139836,1062676.56103525,3,0,98,0,0
10,209,546.288042562082,1,0,1062678.06689207,1062679.11391677,3,1,96,4,0
10,210,466.464925091714,1,0,1062680.66683102,1062681.71387689,3,1,75,16,4
10,211,609.63938687928,0,1,1062683.21975565,1062684.26677843,3,1,100,4,16
10,212,645.534055074677,0,0,1062685.92560007,1062686.97262747,3,0,89,16,16
10,213,518.207727000117,0,0,1062688.70202313,1062689.74906438,3,0,76,16,0
10,214,492.926473496482,1,0,1062691.44315436,1062692.49019831,3,1,65,0,8
10,215,609.178586862981,0,0,1062694.09017344,1062695.13721393,3,0,90,0,4
10,216,475.163536379114,1,0,1062696.84311764,1062697.89013464,3,1,78,0,0
10,217,685.463514644653,0,0,1062699.51362751,1062700.56066877,3,0,92,8,4
10,218,441.61829398945,1,0,1062702.26632245,1062703.31356677,3,1,77,4,8
10,219,567.213061265647,1,0,1062704.89001299,1062705.93708427,3,1,82,4,8
10,220,587.931354995817,1,0,1062707.53703438,1062708.58407448,3,1,99,8,8
10,221,547.700854716823,0,0,1062710.32527617,1062711.37228316,3,0,97,4,0
10,222,684.771737083793,0,0,1062712.92525476,1062713.9722452,3,0,90,8,0
10,223,484.316403511912,1,0,1062715.70161199,1062716.74869135,3,1,77,8,4
10,224,512.79592490755,1,0,1062718.41923395,1062719.46633449,3,1,70,16,16
10,225,678.121510893106,0,0,1062721.07806638,1062722.12506798,3,0,71,4,4
10,226,545.6443852745,0,0,1062723.85444785,1062724.90149296,3,0,82,0,4
10,227,600.864168023691,1,0,1062726.52500662,1062727.57204325,3,1,86,8,16
10,228,699.65246040374,1,0,1062729.20731482,1062730.25436031,3,1,98,16,4
10,229,573.724700836465,0,0,1062732.10145977,1062733.14843789,3,0,68,16,8
10,230,558.090221136808,0,0,1062734.86605909,1062735.91310997,3,0,82,0,8
10,231,461.648275144398,1,0,1062737.65426045,1062738.70129439,3,1,75,16,0
10,232,568.448790349066,0,0,1062740.19539754,1062741.24244264,3,0,85,4,16
10,233,460.806362098083,1,0,1062742.85419724,1062743.90122926,3,1,77,0,4
10,234,514.392749173567,1,0,1062745.3835514,1062746.43060382,3,1,100,4,4
10,235,490.604379912838,1,0,1062748.05419023,1062749.10115565,3,1,75,16,8
10,236,638.117368798703,1,0,1062750.72465776,1062751.77170518,3,1,87,16,16
10,237,532.501767622307,1,0,1062753.59527381,1062754.64225039,3,1,89,0,16
10,238,726.222953293473,0,0,1062756.26575905,1062757.31279953,3,0,90,16,16
10,239,435.306449886411,1,0,1062759.18336554,1062760.23041141,3,1,68,8,0
10,240,652.267433237284,1,0,1062761.81862325,1062762.86567028,3,1,96,4,0
10,241,448.334733955562,0,0,1062774.2655377,1062775.31256124,4,0,86,16,4
10,242,528.502007713541,1,0,1062776.93606451,1062777.98311038,4,1,94,0,4
10,243,635.866878321394,0,0,1062779.64198746,1062780.68894788,4,0,61,4,0
10,244,393.569976789877,0,0,1062782.53598151,1062783.58302931,4,0,64,0,4
10,245,424.910923931748,1,0,1062785.05360009,1062786.10063634,4,1,86,4,0
10,246,486.40713468194,1,0,1062787.61826877,1062788.66531503,4,1,65,4,16
10,247,504.782546777278,0,0,1062790.33591653,1062791.38292699,4,0,71,8,8
10,248,612.595128826797,0,0,1062792.98290019,1062794.02994415,4,0,83,16,16
10,249,492.536506382748,1,1,1062795.82992574,1062796.87697123,4,0,89,16,8
10,250,473.710688296705,1,0,1062798.52400033,1062799.57105351,4,1,65,4,4
10,251,604.907813714817,1,0,1062801.19455794,1062802.24160266,4,1,90,8,8
10,252,571.422240464017,1,0,1062803.95922539,1062805.00626742,4,1,86,8,8
10,253,488.109823549166,1,0,1062806.5944881,1062807.64152551,4,1,68,8,0
10,254,690.995039884001,0,0,1062809.3356255,1062810.38267715,4,0,97,16,4
10,255,452.00342591852,1,0,1062812.13558669,1062813.18265836,4,1,77,16,8
10,256,554.02809754014,0,0,1062814.74731396,1062815.79435868,4,0,91,16,8
10,257,470.783048775047,1,0,1062817.42963179,1062818.47668151,4,1,75,8,4
10,258,502.382306149229,1,0,1062820.06489373,1062821.11195346,4,1,70,4,4
10,259,416.546845110133,1,0,1062822.77073738,1062823.81778287,4,1,88,0,0
10,260,522.446163464338,1,0,1062825.31187832,1062826.35892189,4,1,69,0,16
10,261,685.354185290635,1,0,1062827.90015098,1062828.94713564,4,1,63,8,16
10,262,457.737826509401,0,0,1062830.81768894,1062831.86473867,4,0,68,4,16
10,263,525.872714119032,1,0,1062833.3823711,1062834.42940081,4,1,67,4,4
10,264,552.685348549858,0,0,1062836.11173943,1062837.15877914,4,0,92,16,4
10,265,990.148584591225,0,0,1062838.78228972,1062839.82934368,4,0,79,16,4
10,266,480.024072341621,1,0,1062841.88813284,1062842.93518218,4,1,74,8,8
10,267,680.898244958371,1,0,1062844.57046529,1062845.61750462,4,1,93,16,0
10,268,593.268089229241,1,0,1062847.33512235,1062848.39393306,4,1,89,4,8
10,269,598.971307743341,1,0,1062850.07626745,1062851.12330986,4,1,92,8,0
10,270,499.651382444426,0,0,1062852.85270128,1062853.89974215,4,0,89,4,0
10,271,551.722942385823,0,0,1062855.41740422,1062856.46441545,4,0,71,0,8
10,272,414.583151694387,1,0,1062858.15851082,1062859.20555901,4,1,77,0,16
10,273,481.770261889324,1,0,1062860.71148743,1062861.75846016,4,1,77,0,0
10,274,451.702770311385,1,0,1062863.35844338,1062864.40548425,4,1,63,0,0
10,275,590.784311527386,1,0,1062865.95846586,1062867.00545476,4,1,94,16,8
10,276,630.011599510908,0,0,1062868.66425831,1062869.71131112,4,0,91,16,8
10,277,596.53988503851,0,0,1062871.49951787,1062872.54655912,4,0,73,8,0
10,278,414.357563713565,0,0,1062874.27596402,1062875.32298988,4,0,63,0,16
10,279,504.761373857036,1,0,1062876.75827384,1062877.80538092,4,1,82,0,8
10,280,425.635423278436,0,0,1062879.49941162,1062880.54645711,4,0,84,4,16
10,281,525.41884360835,0,0,1062882.12290796,1062883.16995614,4,0,96,8,4
10,282,547.820577863604,0,0,1062884.89934333,1062885.94638766,4,0,61,16,16
10,283,548.287922516465,0,0,1062887.58166154,1062888.62870626,4,0,97,8,16
10,284,536.168534774333,0,0,1062890.36986136,1062891.41690223,4,0,67,8,16
10,285,563.42118117027,0,0,1062893.07570887,1062894.12275821,4,0,94,8,4
10,286,487.346827751026,0,1,1062895.76979423,1062896.81683664,4,1,90,0,8
10,287,644.13972129114,1,0,1062898.41682332,1062899.46386765,4,1,70,4,8
10,288,488.325402373448,0,0,1062901.22854704,1062902.27559599,4,0,83,4,4
10,289,675.282797776163,0,0,1062903.82853526,1062904.87555881,4,0,61,16,0
10,290,435.566299594939,1,0,1062906.67553887,1062907.72257935,4,1,76,8,16
10,291,485.176409594715,1,0,1062909.32256757,1062910.36960575,4,1,74,4,8
10,292,459.672262892127,0,0,1062911.99312634,1062913.0401622,4,0,88,0,16
10,293,632.342932047322,0,0,1062914.67543801,1062915.72248581,4,0,89,16,16
10,294,631.894835736603,1,0,1062917.54602903,1062918.5930418,4,1,70,16,0
10,295,652.864509960637,1,0,1062920.24012863,1062921.28711638,4,1,71,8,4
10,296,558.349300874397,1,0,1062923.07533237,1062924.12238287,4,1,68,4,0
10,297,500.333150848746,1,0,1062925.72236069,1062926.76940657,4,1,94,0,4
10,298,495.594648178667,0,0,1062928.42820974,1062929.47525792,4,0,88,4,16
10,299,646.018337924033,0,0,1062931.00464749,1062932.05169298,4,0,83,8,8
10,300,466.063024476171,0,0,1062933.75755511,1062934.80460137,4,0,76,8,0
10,301,698.919491842389,0,0,1062936.29870491,1062937.3457527,4,0,70,4,8
10,302,784.219854976982,1,0,1062939.06337505,1062940.11041939,4,1,90,8,4
10,303,424.056307645515,1,0,1062941.94569088,1062942.99273406,4,1,86,0,0
10,304,641.730626346543,0,0,1062944.62800794,1062945.67505381,4,0,71,16,16
10,305,493.041192181408,1,0,1062947.34562721,1062948.39267385,4,1,83,4,16
10,306,488.196824910119,1,0,1062950.09852828,1062951.14557416,4,1,61,0,4
10,307,454.618475865573,0,0,1062952.67497413,1062953.72202116,4,0,94,0,8
10,308,543.410448357463,1,0,1062955.35729041,1062956.40433744,4,1,65,16,16
10,309,630.085512297228,0,0,1062958.03961094,1062959.08665681,4,0,80,16,0
10,310,488.484006840736,0,0,1062960.81604785,1062961.86309334,4,0,88,0,0
10,311,690.049957018346,1,0,1062963.48659468,1062964.53364825,4,1,71,8,0
10,312,572.908580536023,0,0,1062966.28656935,1062967.33361638,4,0,87,16,0
10,313,504.450709326193,0,0,1062969.01597848,1062970.06299317,4,0,63,0,16
10,314,408.347914926708,1,0,1062971.71003882,1062972.75708315,4,1,86,8,16
10,315,624.856567475945,1,0,1062974.22768087,1062975.27469865,4,1,98,16,4
10,316,525.493911234662,0,0,1062976.90997021,1062977.95702879,4,0,87,4,8
10,317,443.608165020123,0,0,1062979.56876337,1062980.61580963,4,0,84,0,4
10,318,416.42519691959,1,0,1062982.10993819,1062983.15695557,4,1,62,0,8
10,319,425.778629491106,0,0,1062984.72164081,1062985.76869708,4,0,75,4,4
10,320,961.381881032139,0,0,1062987.2980805,1062988.34512868,4,0,91,4,0
10,321,566.380387404934,1,0,1063010.88603671,1063011.93308875,5,1,70,4,4
10,322,499.945108778775,1,0,1063013.5684223,1063014.615447,5,1,94,0,0
10,323,590.644954936579,1,0,1063016.20362996,1063017.25066583,5,1,88,8,0
10,324,442.341253627092,1,0,1063018.94476235,1063019.99181554,5,1,96,8,16
10,325,449.190890183672,1,0,1063021.47417772,1063022.52119895,5,1,95,4,0
10,326,491.059405729175,0,0,1063024.02705731,1063025.07410511,5,0,66,16,8
10,327,469.949605176225,0,1,1063026.67408448,1063027.72112843,5,1,71,16,4
10,328,1371.61980336532,0,0,1063029.35641501,1063030.40346704,5,0,87,0,16
10,329,645.870127249509,1,0,1063032.95639207,1063034.00344064,5,1,88,16,8
10,330,579.498752718791,1,0,1063035.74457264,1063036.79161775,5,1,71,8,16
10,331,622.159520396963,0,0,1063038.42689393,1063039.4739375,5,0,78,16,8
10,332,430.064801359549,1,0,1063041.16803595,1063042.21508259,5,1,76,0,0
10,333,528.47275044769,1,0,1063043.83864052,1063044.88563982,5,1,91,0,0
10,334,526.68113540858,1,0,1063046.6032664,1063047.65032075,5,1,87,8,4
10,335,651.795469457284,0,0,1063049.35621983,1063050.40322144,5,0,91,8,4
10,336,698.487179121003,0,0,1063052.19143666,1063053.23847946,5,0,87,16,4
10,337,472.690922673792,1,0,1063055.03846105,1063056.0855127,5,1,62,0,8
10,338,600.364486686885,0,0,1063057.73254949,1063058.77959498,5,0,83,8,4
10,339,467.650224454701,0,0,1063060.49723273,1063061.54427899,5,0,67,0,16
10,340,460.152695886791,0,0,1063063.10896423,1063064.15600587,5,0,62,4,8
10,341,665.062429849058,1,0,1063065.76774661,1063066.81480134,5,1,61,8,0
10,342,742.194659775123,0,0,1063068.67359635,1063069.72064569,5,0,93,8,8
10,343,598.202152643353,0,0,1063071.66180379,1063072.70885121,5,0,72,0,8
10,344,556.533047929406,0,0,1063074.4264851,1063075.47352289,5,0,68,16,0
10,345,452.545453095809,1,0,1063077.13232414,1063078.17937656,5,1,63,16,16
10,346,559.821397066116,1,0,1063079.69705249,1063080.74404832,5,1,61,8,16
10,347,550.900662550703,1,0,1063082.39110013,1063083.43814254,5,1,86,0,4
10,348,583.941989112645,0,0,1063085.09694647,1063086.14400621,5,0,71,8,8
10,349,496.158618247136,1,0,1063087.81456305,1063088.86160392,5,1,71,4,16
10,350,585.417165188119,0,0,1063090.41452432,1063091.46156904,5,0,83,4,0
10,351,460.310145514086,0,0,1063093.10864856,1063094.15566326,5,0,96,0,0
10,352,415.453936671838,1,0,1063095.62623172,1063096.67328299,5,1,85,4,8
10,353,625.206113327295,1,0,1063098.21444356,1063099.26148905,5,1,81,16,0
10,354,627.590570598841,0,0,1063101.08499762,1063102.13204927,5,0,69,4,4
10,355,542.09965118207,1,0,1063103.84967047,1063104.89672096,5,1,82,16,16
10,356,686.010161181912,0,0,1063106.59087292,1063107.6378676,5,0,90,4,8
10,357,491.744638653472,1,0,1063109.39084721,1063110.43785843,5,1,74,8,8
10,358,617.137300549075,1,0,1063112.00252135,1063113.04958146,5,1,91,16,4
10,359,396.769784390926,1,0,1063114.82601722,1063115.87306502,5,1,65,0,16
10,360,437.245120760053,0,0,1063117.30834321,1063118.35538755,5,0,77,0,8
10,361,398.550235899165,1,0,1063119.96713791,1063121.01418224,5,1,74,4,0
10,362,444.245277903974,1,0,1063122.50828577,1063123.55532934,5,1,88,8,8
10,363,486.486051697284,1,0,1063125.10825359,1063126.15530524,5,1,76,8,0
10,364,444.346137810498,0,0,1063127.81410571,1063128.86115043,5,0,89,8,4
10,365,436.804338824004,1,0,1063130.37884639,1063131.42582759,5,1,68,4,0
10,366,610.191423213109,0,0,1063132.95527875,1063134.00229768,5,0,91,0,4
10,367,528.831920586526,0,0,1063135.73171605,1063136.77871227,5,0,70,4,8
10,368,486.424457747489,1,0,1063138.46106012,1063139.50809368,5,1,74,16,4
10,369,443.73751222156,0,0,1063141.0845476,1063142.13165777,5,0,74,0,8
10,370,367.438726127148,1,0,1063143.60216849,1063144.64921167,5,1,67,0,16
10,371,867.835237411782,1,0,1063146.02567684,1063147.07272579,5,1,74,16,0
10,372,594.424516428262,0,0,1063149.04916724,1063150.09620966,5,0,79,8,16
10,373,496.348404558375,0,0,1063151.8020714,1063152.84912575,5,0,84,4,4
10,374,455.078506143764,0,0,1063154.53145705,1063155.57850985,5,0,71,16,8
10,375,619.194539962336,0,0,1063157.19025444,1063158.23729993,5,0,90,16,16
10,376,569.438528968021,0,0,1063160.06081351,1063161.10785746,5,0,90,4,16
10,377,939.856705954298,0,0,1063162.71960706,1063163.76666063,5,0,69,16,4
10,378,457.328226417303,0,0,1063165.80192358,1063166.8489683,5,0,80,0,0
10,379,458.228653529659,1,0,1063168.43718706,1063169.48423678,5,1,64,0,8
10,380,574.913849821314,0,0,1063171.1312728,1063172.17832214,5,0,84,16,0
10,381,436.617247061804,0,0,1063173.95477291,1063175.00182187,5,0,64,16,16
10,382,444.565951591358,0,1,1063176.50774644,1063177.55472995,5,1,68,4,4
10,383,630.950137972832,1,0,1063179.11945677,1063180.16647878,5,1,91,0,4
10,384,496.828452916816,0,0,1063181.8135121,1063182.86055528,5,0,77,4,16
10,385,668.579446617514,0,0,1063184.50760131,1063185.55464757,5,0,62,16,0
10,386,576.05333882384,1,0,1063187.37815576,1063188.42520934,5,1,70,4,16
10,387,428.165396675467,0,0,1063190.17813005,1063191.22517438,5,0,97,4,4
10,388,552.751946961507,1,0,1063192.76637152,1063193.81338506,5,1,92,0,4
10,389,420.339495176449,0,0,1063195.4368891,1063196.48394229,5,0,74,0,16
10,390,579.007540363818,0,0,1063197.97783387,1063199.02509015,5,0,85,4,0
10,391,506.644995184615,0,0,1063200.8015363,1063201.84859142,5,0,73,4,16
10,392,558.209174545482,0,0,1063203.38974506,1063204.43682635,5,0,72,16,8
10,393,591.129237785935,0,0,1063206.13089092,1063207.17794334,5,0,88,4,8
10,394,621.385361067951,0,0,1063208.88380586,1063209.93085712,5,0,71,8,4
10,395,594.223950756714,1,0,1063211.63672041,1063212.6837659,5,1,97,8,16
10,396,563.961283536628,1,0,1063214.36610028,1063215.41320852,5,1,95,8,0
10,397,415.447392268106,0,0,1063217.14254412,1063218.18959154,5,0,74,0,4
10,398,446.765241911635,1,0,1063219.64839747,1063220.6954395,5,1,84,16,16
10,399,458.938909228891,1,0,1063222.1660122,1063223.2130627,5,1,85,8,8
10,400,554.861926240847,1,0,1063224.86016108,1063225.90715229,5,1,100,8,0
10,401,695.577632868662,0,0,1063244.38931121,1063245.43635092,6,0,100,16,8
10,402,438.739544944838,0,0,1063247.34222106,1063248.38926116,6,0,66,8,8
10,403,397.399968234822,0,0,1063249.87160755,1063250.91865035,6,0,86,4,8
10,404,407.135283341631,0,0,1063252.41275195,1063253.45980052,6,0,87,0,0
10,405,554.700626758859,1,0,1063255.03625368,1063256.08329725,6,1,68,4,4
10,406,400.337616447359,0,0,1063257.73034058,1063258.77738722,6,0,76,4,0
10,407,640.203095274046,0,0,1063260.21271084,1063261.25971321,6,0,90,0,4
10,408,588.282440556213,0,0,1063262.9655842,1063264.01262853,6,0,71,4,8
10,409,520.585254998878,0,0,1063265.6832,1063266.73024703,6,0,72,4,4
10,410,402.000269386917,0,1,1063268.30670789,1063269.35375415,6,1,81,0,0
10,411,573.53529939428,0,0,1063270.82431684,1063271.87136888,6,0,64,0,8
10,412,540.49243289046,0,0,1063273.48311577,1063274.53016434,6,0,68,16,4
10,413,444.791154470295,0,0,1063276.1419174,1063277.18897252,6,0,78,4,0
10,414,535.089869983494,0,0,1063278.65953328,1063279.70658224,6,0,93,16,16
10,415,579.965326935053,0,0,1063281.3065643,1063282.35361364,6,0,63,4,0
10,416,551.731411600485,0,0,1063284.09481763,1063285.14181924,6,0,84,16,0
10,417,611.987272975966,0,0,1063286.89478383,1063287.94179583,6,0,77,8,0
10,418,535.534116905183,0,0,1063289.5770674,1063290.62411481,6,0,68,8,8
10,419,743.130118586123,1,0,1063292.30645304,1063293.35350315,6,1,86,8,4
10,420,381.794360699132,1,0,1063295.14175495,1063296.18876964,6,1,65,8,4
10,421,349.902531830594,0,0,1063297.60051815,1063298.64756288,6,0,63,0,16
10,422,453.289585420862,0,0,1063300.11816522,1063301.16517722,6,0,76,8,0
10,423,379.955779993907,1,0,1063302.75340137,1063303.80045186,6,1,66,16,8
10,424,431.47953832522,0,0,1063305.31807814,1063306.36512402,6,0,78,8,16
10,425,456.02012402378,0,0,1063307.95341015,1063309.00039443,6,0,96,4,8
10,426,454.869856359437,1,0,1063310.54156462,1063311.58864476,6,1,63,4,4
10,427,441.541301785037,1,0,1063313.1768258,1063314.22387013,6,1,72,4,0
10,428,665.154050802812,1,0,1063315.75325739,1063316.80031135,6,1,97,4,0
10,429,429.097390733659,0,0,1063318.54148917,1063319.5885235,6,0,86,16,8
10,430,609.625528566539,0,0,1063321.17674187,1063322.22378197,6,0,97,8,8
10,431,566.362679004669,1,0,1063323.91794163,1063324.96494093,6,1,94,8,16
10,432,398.479017894715,0,0,1063326.61197387,1063327.6590286,6,0,76,0,16
10,433,429.680223809555,1,0,1063329.17665988,1063330.22370075,6,1,94,0,8
10,434,631.431726040319,0,0,1063331.71780505,1063332.76486016,6,0,72,16,4
10,435,462.005905108526,0,0,1063334.44719493,1063335.49423618,6,0,94,0,0
10,436,463.255108101293,1,0,1063337.05893028,1063338.10598116,6,1,86,16,16
10,437,609.331416897476,0,0,1063339.75300986,1063340.80006575,6,0,88,16,8
10,438,596.581076039001,0,0,1063342.47063452,1063343.51768771,6,0,61,8,4
10,439,447.751130675897,1,0,1063345.28243293,1063346.32943261,6,1,97,4,4
10,440,474.731993628666,1,0,1063347.92942006,1063348.97645823,6,1,68,4,8
10,441,469.454928534105,1,0,1063350.56467007,1063351.61171633,6,1,64,16,4
10,442,507.846077904105,0,0,1063353.23523114,1063354.28228472,6,0,94,0,4
10,443,563.35920211859,0,0,1063355.85874095,1063356.90578375,6,0,72,0,8
10,444,556.655466090888,1,0,1063358.576366,1063359.62347154,6,1,77,16,16
10,445,478.218213422224,1,0,1063361.19985579,1063362.24690282,6,1,66,16,0
10,446,496.780332643539,1,0,1063363.77633666,1063364.82334828,6,1,70,8,4
10,447,685.415009269491,1,0,1063366.39980759,1063367.44685116,6,1,92,8,16
10,448,508.378095924854,1,0,1063369.2468343,1063370.29387825,6,1,64,0,0
10,449,445.990697713569,0,0,1063371.92916483,1063372.97626575,6,0,66,8,8
10,450,437.81794491224,1,0,1063374.57625513,1063375.62325712,6,1,68,8,4
10,451,616.733090020716,1,0,1063377.2114601,1063378.25851213,6,1,81,0,0
10,452,699.784117517993,0,0,1063379.91735687,1063380.96436695,6,0,69,4,16
10,453,750.514853047207,0,0,1063382.81140482,1063383.85845185,6,0,95,16,0
10,454,695.926408749074,1,0,1063385.68203626,1063386.72902439,6,1,95,8,16
10,455,624.37882903032,0,0,1063388.54076274,1063389.58779977,6,0,72,4,16
10,456,460.436413064599,0,0,1063391.2936696,1063392.34071817,6,0,85,4,16
10,457,634.834794094786,1,0,1063393.96423337,1063395.0112804,6,1,61,4,4
10,458,546.713426010683,1,0,1063396.76421496,1063397.81126046,6,1,97,8,0
10,459,410.56953324005,1,0,1063399.50535967,1063400.55239708,6,1,65,4,16
10,460,632.436862913892,1,0,1063402.14062585,1063403.18767596,6,1,79,16,16
10,461,641.608208185062,0,0,1063405.01120571,1063406.0582335,6,0,81,16,0
10,462,540.319199906662,1,0,1063407.8464518,1063408.89348574,6,1,70,8,16
10,463,480.063723400235,1,0,1063410.62289718,1063411.66993651,6,1,70,0,8
10,464,387.870607897639,0,0,1063413.3052177,1063414.35225395,6,0,64,0,4
10,465,451.76705904305,1,0,1063415.90519399,1063416.95224564,6,1,68,16,0
10,466,555.178365204483,1,0,1063418.57575699,1063419.62280248,6,1,70,16,8
10,467,645.816232543439,1,0,1063421.25808059,1063422.30512839,6,1,99,0,16
10,468,589.801502414048,0,1,1063424.10511076,1063425.15216164,6,1,94,4,16
10,469,605.085666291416,1,0,1063426.77568146,1063427.82272541,6,1,72,0,4
10,470,763.717140303925,0,0,1063429.61093909,1063430.65804502,6,0,85,8,0
10,471,506.145698949695,1,0,1063432.46973794,1063433.51678921,6,1,81,0,4
10,472,590.249213622883,0,0,1063435.08147252,1063436.12852417,6,0,85,16,16
10,473,404.04942445457,1,0,1063437.91673477,1063438.9638561,6,1,93,0,16
10,474,926.816873252392,0,0,1063440.41087488,1063441.45787918,6,0,71,0,8
10,475,399.823306594044,1,0,1063443.55198094,1063444.59902989,6,1,65,4,8
10,476,500.296194572002,1,0,1063446.12843024,1063447.17547573,6,1,90,16,4
10,477,648.840497713536,0,0,1063448.8578182,1063449.9049326,6,0,79,16,4
10,478,519.322193227708,1,0,1063451.72837496,1063452.77541814,6,1,91,0,16
10,479,481.482694856822,1,0,1063454.44599462,1063455.49303703,6,1,63,8,0
10,480,693.436471745372,1,0,1063457.18713701,1063458.23419097,6,1,81,8,8
10,481,435.86118076928,1,0,1063479.65751916,1063480.70461662,7,1,65,8,4
10,482,536.522700218484,1,0,1063482.28101126,1063483.32806522,7,1,84,4,4
10,483,405.462621478364,0,0,1063484.98687955,1063486.03390733,7,0,92,0,0
10,484,359.960060566664,1,0,1063487.55158365,1063488.59859989,7,1,75,8,8
10,485,406.89237206243,0,0,1063490.05740737,1063491.1044621,7,0,75,0,4
10,486,619.621463352814,0,0,1063492.59861144,1063493.64567771,7,0,95,4,4
10,487,561.662672553211,1,0,1063495.44560195,1063496.49265014,7,1,100,0,16
10,488,509.642312768847,0,0,1063498.1985192,1063499.24562089,7,0,71,0,0
10,489,489.762852201238,1,0,1063500.84554714,1063501.89258685,7,1,62,4,16
10,490,415.215260116383,0,0,1063503.42198528,1063504.46903731,7,0,62,8,0
10,491,484.986623050645,1,1,1063506.05725184,1063507.10430388,7,0,90,8,4
10,492,594.91996304132,1,0,1063508.65722659,1063509.704274,7,1,90,0,8
10,493,421.306135831401,1,0,1063511.42191598,1063512.4689607,7,1,62,0,0
10,494,547.476421575993,1,0,1063513.9748283,1063515.02187302,7,1,68,4,4
10,495,412.385401083156,1,0,1063516.62186047,1063517.66890827,7,1,96,0,16
10,496,600.916138151661,1,0,1063519.1512539,1063520.19830131,7,1,98,4,0
10,497,633.468947373331,0,0,1063521.82180342,1063522.8688543,7,0,92,8,8
10,498,497.528699692339,0,0,1063524.68061113,1063525.72765739,7,0,94,8,8
10,499,527.166187996045,0,0,1063527.31587615,1063528.3629178,7,0,91,4,0
10,500,618.216350208968,1,0,1063530.06879533,1063531.11583004,7,1,88,16,0
10,501,558.435532497242,1,0,1063532.86876076,1063533.91581317,7,1,61,16,16
10,502,692.122209817171,1,0,1063535.50403232,1063536.55108397,7,1,98,16,4
10,503,497.515226015821,1,0,1063538.42165229,1063539.46869701,7,1,61,4,16
10,504,547.8001749143,1,0,1063541.09226995,1063542.13926309,7,1,81,16,4
10,505,419.993798946962,1,0,1063543.73925092,1063544.78630257,7,1,71,0,4
10,506,479.298417922109,1,0,1063546.36275727,1063547.4098016,7,1,93,4,8
10,507,419.50181662105,0,0,1063548.91566766,1063549.96271507,7,0,74,4,8
10,508,565.767911961302,1,0,1063551.53918709,1063552.5862295,7,1,72,8,4
10,509,466.081502614543,0,0,1063554.30385994,1063555.35089888,7,0,68,0,16
10,510,464.798422530293,0,0,1063556.83328993,1063557.8802873,7,0,78,4,4
10,511,461.962789297104,0,0,1063559.39791743,1063560.44497062,7,0,76,16,4
10,512,475.41414690204,1,0,1063561.96259266,1063563.00965508,7,1,62,4,0
10,513,374.217914883047,1,0,1063564.56258357,1063565.60962791,7,1,63,0,16
10,514,629.269391763955,0,0,1063567.15079194,1063568.19783397,7,0,93,16,4
10,515,441.94589718245,0,0,1063569.84488154,1063570.89193087,7,0,77,0,0
10,516,412.913184612989,1,0,1063572.3860729,1063573.43308259,7,1,85,8,0
10,517,566.638697171584,1,0,1063574.86836694,1063575.91541127,7,1,99,0,4
10,518,360.177564434707,1,0,1063577.55069401,1063578.59773873,7,1,77,0,16
10,519,419.046791270375,0,0,1063579.9977301,1063581.04477213,7,0,86,16,8
10,520,479.435464832932,0,0,1063582.56241111,1063583.60945313,7,0,94,0,8
10,521,630.531683797017,0,0,1063585.11532997,1063586.16237739,7,0,100,4,0
10,522,590.049803256989,1,0,1063587.84470792,1063588.89176188,7,1,69,16,8
10,523,458.315270254388,0,0,1063590.65645204,1063591.70350254,7,0,68,16,4
10,524,523.0112883728,0,0,1063593.23297334,1063594.27994261,7,0,63,0,0
10,525,471.204582834616,0,0,1063595.89169335,1063596.93873114,7,0,79,8,16
10,526,569.401572458446,1,0,1063598.45637936,1063599.50342716,7,1,73,8,16
10,527,558.699231594801,0,0,1063601.22105837,1063602.26810771,7,0,72,16,0
10,528,420.890761306509,0,0,1063603.87988194,1063604.92690818,7,0,73,4,0
10,529,458.142807008699,0,0,1063606.39747934,1063607.44452136,7,0,88,4,16
10,530,466.162344673648,0,0,1063608.99748642,1063610.0445296,7,0,63,8,0
10,531,397.463101893663,0,0,1063611.60919251,1063612.65624185,7,0,75,0,4
10,532,495.076873572543,0,0,1063614.24446909,1063615.29150765,7,0,70,0,4
10,533,367.553445044905,1,0,1063616.8562029,1063617.90325185,7,1,66,0,8
10,534,517.88666844368,1,0,1063619.37389269,1063620.42087351,7,1,89,4,16
10,535,586.069676559418,0,0,1063622.03262695,1063623.07967667,7,0,80,8,16
10,536,874.990534270182,0,0,1063624.72676351,1063625.77376473,7,0,82,8,8
10,537,580.679817125201,1,0,1063627.76198411,1063628.80903268,7,1,79,8,8
10,538,604.400818236172,1,0,1063630.45607216,1063631.50312458,7,1,90,16,8
10,539,557.804964017123,0,0,1063633.26781552,1063634.3148664,7,0,61,4,8
10,540,656.762639759108,0,0,1063635.87955395,1063636.92667027,7,0,98,16,0
10,541,547.320127021521,1,0,1063638.69128691,1063639.73834626,7,1,94,16,8
10,542,450.182553613558,0,0,1063641.49126735,1063642.53830976,7,0,67,16,16
10,543,501.700152643025,1,0,1063644.02066463,1063645.06775477,7,1,73,8,0
10,544,521.649291273206,1,0,1063646.65593003,1063647.7029786,7,1,100,8,0
10,545,591.29207697697,1,0,1063649.2441411,1063650.2911889,7,1,86,8,16
10,546,447.781927883625,0,0,1063651.91470025,1063652.96174997,7,0,79,0,8
10,547,411.5762100555,0,0,1063654.50290785,1063655.54996258,7,0,65,4,4
10,548,554.672524565831,1,0,1063657.05583364,1063658.10287836,7,1,77,16,16
10,549,420.525816967711,0,0,1063659.79697989,1063660.84403346,7,0,84,4,8
10,550,578.379666665569,0,0,1063662.29107148,1063663.33812005,7,0,95,8,16
10,551,382.975040469319,1,0,1063664.97340972,1063666.02049871,7,1,87,4,8
10,552,470.61443538405,1,0,1063667.56161809,1063668.60866435,7,1,68,16,0
10,553,542.120824102312,1,0,1063670.138062,1063671.18511173,7,1,82,16,8
10,554,402.743631741032,0,0,1063672.80863116,1063673.85567627,7,0,85,4,16
10,555,652.394470758736,0,0,1063675.39684223,1063676.44387886,7,0,91,16,16
10,556,506.606498733163,1,0,1063678.10269512,1063679.14974446,7,1,94,8,4
10,557,367.590016452596,0,0,1063680.8556089,1063681.90265785,7,0,85,16,16
10,558,387.567642377689,0,0,1063683.40853123,1063684.4555771,7,0,63,0,8
10,559,453.370427712798,1,0,1063686.04379933,1063687.09084636,7,1,64,8,4
10,560,531.428107293323,1,0,1063688.59670741,1063689.64376099,7,1,72,16,0
10,561,502.555539133027,1,0,1063695.65547424,1063696.70251819,8,1,95,8,16
10,562,459.545610239729,1,0,1063698.30249794,1063699.34956768,8,1,100,0,4
10,563,458.631709218025,1,0,1063700.96131304,1063702.00840858,8,1,82,0,0
10,564,564.800501335412,0,0,1063703.60839718,1063704.65538685,8,0,93,4,8
10,565,430.00282230787,0,0,1063706.32596949,1063707.37300959,8,0,75,4,16
10,566,591.628534020856,0,0,1063708.96125106,1063710.00834698,8,0,100,4,8
10,567,475.861088372767,0,0,1063711.71421181,1063712.76122381,8,0,74,8,16
10,568,521.961110876873,1,0,1063714.37295261,1063715.41999656,8,1,94,16,16
10,569,417.544667841867,0,0,1063717.13762776,1063718.18468095,8,0,93,4,0
10,570,486.564969178289,1,0,1063719.70230569,1063720.74935734,8,1,64,16,0
10,571,435.290281428024,1,0,1063722.38464508,1063723.43168903,8,1,87,4,8
10,572,527.662019710988,0,0,1063725.04344401,1063726.0904868,8,0,68,8,16
10,573,519.053874537349,1,0,1063727.72577339,1063728.77281772,8,1,89,4,16
10,574,400.212888838723,1,0,1063730.47868524,1063731.52573458,8,1,97,0,8
10,575,449.014192447066,0,0,1063733.06688938,1063734.11394257,8,0,67,0,8
10,576,528.403072385117,1,0,1063735.67863473,1063736.72567406,8,1,83,8,4
10,577,450.324989622459,0,0,1063738.32567037,1063739.3727147,8,0,87,8,0
10,578,670.844565844163,0,0,1063741.00800129,1063742.05505332,8,0,91,4,0
10,579,589.992058929056,1,0,1063743.81973887,1063744.86678975,8,1,78,8,4
10,580,446.372580248863,0,0,1063746.53735429,1063747.58440401,8,0,94,4,0
10,581,586.498524760827,1,0,1063749.18439531,1063750.2314408,8,1,81,16,16
10,582,607.628343161196,0,0,1063751.93731294,1063752.98436151,8,0,90,16,8
10,583,540.990189416334,0,0,1063754.66669589,1063755.71375486,8,0,99,4,0
10,584,422.244674293324,1,0,1063757.26667372,1063758.31372421,8,1,83,0,16
10,585,451.494890497997,1,0,1063759.87839906,1063760.92548844,8,1,63,0,4
10,586,551.9581544213,0,0,1063762.40780172,1063763.45485568,8,0,62,16,4
10,587,657.434399239719,0,0,1063765.12542369,1063766.1724738,8,0,94,4,4
10,588,542.691338341683,0,0,1063767.89011655,1063768.93714818,8,0,77,16,0
10,589,547.16768162325,1,0,1063770.57244092,1063771.61947948,8,1,81,8,16
10,590,594.101917929947,0,0,1063773.31358986,1063774.36063882,8,0,97,8,8
10,591,446.97735644877,0,0,1063776.05473996,1063777.10184435,8,0,83,16,8
10,592,395.852034213021,0,0,1063778.59594981,1063779.6429364,8,0,94,0,4
10,593,544.18691736646,0,0,1063781.17233983,1063782.21938724,8,0,79,8,8
10,594,454.39096307382,1,0,1063783.81937739,1063784.86642018,8,1,74,8,8
10,595,565.11963554658,0,0,1063786.41937908,1063787.46640032,8,0,88,16,4
10,596,447.851605946198,0,0,1063789.05462332,1063790.10167612,8,0,83,4,8
10,597,427.350430982187,1,0,1063791.72518593,1063792.7722345,8,1,64,8,4
10,598,499.026588397101,0,0,1063794.25457897,1063795.30162485,8,0,83,16,4
10,599,405.019529629499,0,0,1063796.96043764,1063798.00747851,8,0,64,0,0
10,600,686.388194561005,1,0,1063799.43099763,1063800.4780489,8,1,91,4,16
10,601,553.535730345175,0,0,1063802.32508869,1063803.37214265,8,0,71,8,8
10,602,488.425877643749,1,0,1063805.07799978,1063806.12505874,8,1,91,0,0
10,603,505.227948306128,1,0,1063807.76033223,1063808.80738196,8,1,71,4,4
10,604,484.230941860005,0,0,1063810.41913733,1063811.4661832,8,0,73,16,8
10,605,471.223830943927,1,0,1063813.01911477,1063814.06616218,8,1,63,0,16
10,606,833.642873214558,1,0,1063815.63085127,1063816.67790292,8,1,98,8,0
10,607,569.938210071996,0,0,1063818.70141527,1063819.74846615,8,0,93,4,16
10,608,687.010678695515,0,0,1063821.40726816,1063822.45431673,8,0,91,4,4
10,609,481.371055822819,0,0,1063824.26606702,1063825.31311366,8,0,75,4,0
10,610,595.53320822306,0,0,1063826.971928,1063828.01896925,8,0,98,16,0
10,611,521.178097464144,1,0,1063829.65425468,1063830.70130248,8,1,96,0,8
10,612,622.543327976018,0,0,1063832.27776295,1063833.32480651,8,0,62,16,16
10,613,472.616239916533,1,1,1063834.98361661,1063836.03066556,8,0,96,16,16
10,614,812.287466600537,1,0,1063837.60712103,1063838.65417191,8,1,81,0,0
10,615,385.963118867949,0,0,1063840.65415536,1063841.70121086,8,0,74,0,8
10,616,482.477822806686,0,0,1063843.26591149,1063844.31294698,8,0,77,8,0
10,617,521.130746696144,1,0,1063845.90116612,1063846.94824857,8,1,94,16,8
10,618,397.406127536669,0,0,1063848.51290994,1063849.55996121,8,0,83,0,8
10,619,503.389752702788,1,0,1063851.15994519,1063852.20699299,8,1,71,8,4
10,620,583.469255128875,1,0,1063853.86580155,1063854.91285474,8,1,70,8,16
10,621,568.850306328386,0,1,1063856.64227927,1063857.68937942,8,1,98,16,16
10,622,404.143355088308,1,0,1063859.34811098,1063860.39515109,8,1,65,4,8
10,623,577.014589915052,1,0,1063861.88931583,1063862.93631166,8,1,70,0,4
10,624,527.268588077277,0,0,1063864.71277205,1063865.75981215,8,0,69,16,0
10,625,553.1784852501,1,0,1063867.3009758,1063868.34802668,8,1,96,16,0
10,626,508.847750257701,1,0,1063869.93628471,1063870.98330364,8,1,94,0,16
10,627,612.499272916466,0,0,1063872.66563763,1063873.71268851,8,0,93,8,8
10,628,576.84559142217,0,0,1063875.4891439,1063876.53619247,8,0,91,0,4
10,629,604.019320337102,1,0,1063878.13617723,1063879.18322195,8,1,79,8,0
10,630,443.438396556303,1,0,1063880.9714441,1063882.01849459,8,1,62,0,16
10,631,537.669503362849,1,0,1063883.61847742,1063884.66553023,8,1,83,16,8
10,632,434.810618404299,1,0,1063886.27728521,1063887.32432993,8,1,73,0,16
10,633,624.448507325724,1,0,1063888.80666516,1063889.85371373,8,1,79,8,4
10,634,417.837239103392,1,1,1063891.63017759,1063892.67722038,8,0,64,4,16
10,635,711.46041341126,0,0,1063894.20662689,1063895.2536693,8,0,80,4,4
10,636,499.152086209506,1,0,1063896.9948348,1063898.04187721,8,1,73,16,4
10,637,499.487773515284,0,0,1063899.66538779,1063900.71244214,8,0,85,8,0
10,638,438.232934335247,1,0,1063902.34773103,1063903.39477498,8,1,67,16,4
10,639,428.360187448561,1,0,1063904.99476089,1063906.04180792,8,1,65,0,0
10,640,560.516639379784,1,0,1063907.5712125,1063908.61827147,8,1,88,4,4
10,641,574.992382200435,0,0,1063916.73584593,1063917.78287871,9,0,82,0,8
10,642,568.373722955585,1,0,1063919.51227398,1063920.55933641,9,1,90,0,0
10,643,712.229183409363,0,0,1063922.25342947,1063923.30048189,9,0,100,4,4
10,644,422.06720658578,1,0,1063925.13576185,1063926.18281389,9,1,65,0,8
10,645,475.136204157025,1,0,1063927.64161944,1063928.6886657,9,1,62,4,16
10,646,601.093220757321,1,0,1063930.28865469,1063931.33569826,9,1,90,16,8
10,647,919.500662013888,0,0,1063933.0062832,1063934.05333254,9,0,87,0,16
10,648,424.798514926806,1,0,1063936.17096166,1063937.21800253,9,1,84,4,16
10,649,357.677233405411,0,0,1063938.7709418,1063939.8179792,9,0,64,0,4
10,650,545.57047272101,0,0,1063941.31209159,1063942.35913746,9,0,72,16,16
10,651,395.939420675859,1,0,1063943.93559639,1063944.9826338,9,1,84,16,4
10,652,552.87359515205,0,0,1063946.41793432,1063947.46497596,9,0,92,16,16
10,653,410.306988982484,1,0,1063949.10025176,1063950.14730418,9,1,64,4,16
10,654,586.836906615645,1,0,1063951.61792192,1063952.66493161,9,1,80,8,16
10,655,350.062676239759,1,0,1063954.33550577,1063955.38254665,9,1,68,0,16
10,656,453.328466741368,1,0,1063956.79430594,1063957.84135412,9,1,65,8,16
10,657,620.110750431195,0,0,1063959.42957327,1063960.47662377,9,0,95,4,0
10,658,532.897894037887,1,0,1063962.22955218,1063963.27659651,9,1,92,0,8
10,659,493.94123442471,0,0,1063964.97070805,1063966.01776008,9,0,68,4,0
10,660,477.730850921944,1,0,1063967.71184737,1063968.75891442,9,1,81,0,0
10,661,630.475094309077,1,0,1063970.25305144,1063971.30005304,9,1,93,4,4
10,662,548.409955576062,1,0,1063973.10004581,1063974.14708899,9,1,78,0,16
10,663,570.962595520541,1,0,1063975.77063729,1063976.81765507,9,1,79,0,8
10,664,515.633098315448,1,0,1063978.55882133,1063979.60586259,9,1,99,8,0
10,665,557.446563849226,0,1,1063981.25291555,1063982.29995449,9,1,81,4,8
10,666,705.237110611051,0,0,1063984.04111422,1063985.08816971,9,0,90,16,8
10,667,512.653873767704,0,0,1063986.86467938,1063987.91167406,9,0,62,0,16
10,668,702.624370343983,1,0,1063989.46461448,1063990.51167267,9,1,81,8,4
10,669,435.731448465958,1,0,1063992.37052696,1063993.41753203,9,1,72,16,16
10,670,404.889412457123,1,0,1063994.92337961,1063995.97043396,9,1,67,4,8
10,671,510.953494813293,0,0,1063997.52335359,1063998.57040485,9,0,91,0,4
10,672,626.986564602703,1,0,1064000.12333218,1064001.17038691,9,1,91,16,4
10,673,467.338404851034,1,0,1064002.94684269,1064003.99388895,9,1,74,8,16
10,674,448.596123373136,1,0,1064005.65269789,1064006.69974376,9,1,82,0,8
10,675,447.554029989988,0,0,1064008.29973583,1064009.34678633,9,0,66,0,4
10,676,570.64769603312,1,0,1064010.86441722,1064011.91152931,9,1,69,4,16
10,677,613.86588960886,0,0,1064013.51151869,1064014.55852876,9,0,96,16,0
10,678,614.919146988541,0,0,1064016.32318775,1064017.37024363,9,0,91,0,0
10,679,415.37655913271,0,0,1064019.04081394,1064020.08786598,9,0,73,8,4
10,680,403.531649848446,0,0,1064021.69961519,1064022.74666145,9,0,82,0,4
10,681,513.755251420662,0,0,1064024.31137055,1064025.35841373,9,0,84,16,16
10,682,608.686990104616,0,0,1064027.05252027,1064028.09956306,9,0,70,0,4
10,683,475.124270189554,1,0,1064029.78189975,1064030.82894486,9,1,66,8,4
10,684,591.95382730104,1,0,1064032.32305301,1064033.37010235,9,1,90,16,4
10,685,501.464940374717,0,0,1064035.08773394,1064036.13477981,9,0,91,0,16
10,686,503.382438328117,0,0,1064037.68770753,1064038.73476303,9,0,66,8,16
10,687,392.050144961104,1,0,1064040.37004268,1064041.41709241,9,1,66,8,0
10,688,573.06256541051,0,0,1064043.01708217,1064044.06413227,9,0,70,16,4
10,689,561.469421489164,1,0,1064045.69941077,1064046.74646127,9,1,89,16,8
10,690,347.956546815112,0,0,1064048.36997339,1064049.41701926,9,0,85,4,0
10,691,521.434482187033,0,0,1064050.93470213,1064051.98172067,9,0,94,16,0
10,692,394.299095729366,1,0,1064053.67580911,1064054.72285729,9,1,66,8,8
10,693,505.548237124458,0,0,1064056.19343962,1064057.2404778,9,0,91,16,16
10,694,560.08817628026,0,0,1064058.81694943,1064059.86399415,9,0,80,4,16
10,695,459.13139055483,0,0,1064061.46397737,1064062.51102324,9,0,71,8,0
10,696,487.952758790925,0,0,1064064.16983603,1064065.21687767,9,0,67,0,0
10,697,657.787409611046,0,0,1064066.71099044,1064067.75808405,9,0,91,16,0
10,698,522.274470422417,0,0,1064069.52273187,1064070.56977505,9,0,78,8,8
10,699,508.928207447752,1,0,1064072.21682339,1064073.26387735,9,1,67,8,8
10,700,488.827008521184,1,0,1064074.85210228,1064075.89915777,9,1,77,4,4
10,701,493.987045250833,1,0,1064077.56971808,1064078.6167678,9,1,74,4,8
10,702,608.643489191309,0,0,1064080.14617201,1064081.19321172,9,0,97,16,8
10,703,711.826127720997,1,0,1064082.85203029,1064083.89907655,9,1,78,4,0
10,704,376.894943416119,0,0,1064085.71081952,1064086.75787964,9,0,83,8,0
10,705,776.145652635023,0,0,1064088.27551053,1064089.32256103,9,0,100,4,8
10,706,653.663692064583,1,0,1064091.29902481,1064092.34606144,9,1,80,4,4
10,707,541.123001370579,0,0,1064094.16958196,1064095.21662167,9,0,90,0,0
10,708,542.755242204294,1,0,1064096.95778602,1064098.00494083,9,1,97,8,8
10,709,567.658462561667,1,0,1064099.64012425,1064100.68716473,9,1,69,4,8
10,710,574.419173179194,0,0,1064102.33421076,1064103.38125779,9,0,89,16,0
10,711,623.018371639773,0,0,1064105.11066115,1064106.15770741,9,0,81,8,8
10,712,564.707340672612,1,0,1064107.84004333,1064108.88709344,9,1,82,4,4
10,713,563.579015666619,0,0,1064110.59296365,1064111.64001453,9,0,79,4,0
10,714,543.764228699729,0,0,1064113.25176566,1064114.29881654,9,0,93,16,4
10,715,479.667212115601,1,0,1064115.8988063,1064116.94585834,9,1,73,16,0
10,716,528.559752274305,0,0,1064118.53407749,1064119.58112144,9,0,83,8,4
10,717,592.299523763359,1,0,1064121.27522181,1064122.3222777,9,1,81,8,16
10,718,467.369586927816,0,0,1064123.98108279,1064125.02812789,9,0,82,8,0
10,719,429.857691284269,1,0,1064126.6398721,1064127.68693298,9,1,76,8,4
10,720,560.421938542277,0,0,1064129.32221803,1064130.36926082,9,0,99,16,8
