sub_id,Trial,RT,Resp,Error,Fix_onset,Disp_onset,block,tid,tloc,fish_setsize,bird_setsize
12,1,482.091506477445,1,0,2283274.83514982,2283275.8822009,1,1,97,16,4
12,2,557.474561966956,1,0,2283277.45871151,2283278.5058007,1,1,92,8,0
12,3,592.76508865878,1,0,2283280.23527285,2283281.28235088,1,1,100,0,4
12,4,511.894799303263,0,0,2283282.95298098,2283284.00011521,1,0,77,0,4
12,5,618.25027409941,1,0,2283285.57659772,2283286.6236846,1,1,78,16,4
12,6,588.413104880601,1,0,2283288.38844689,2283289.43553224,1,1,90,16,0
12,7,515.075346920639,1,0,2283291.22382257,2283292.27091331,1,1,87,4,0
12,8,437.780959997326,0,0,2283293.96513458,2283295.01217296,1,0,95,4,4
12,9,541.636498179287,0,0,2283296.50633156,2283297.5534196,1,0,97,8,4
12,10,713.202819228172,1,0,2283299.20052242,2283300.24760738,1,1,62,4,16
12,11,468.237146735191,0,0,2283302.10648724,2283303.15357682,1,0,65,16,8
12,12,446.555375121534,1,0,2283304.82421847,2283305.87130112,1,1,72,4,0
12,13,691.764728631824,0,0,2283307.49488706,2283308.54197317,1,0,89,16,16
12,14,401.116508059204,1,0,2283310.25966975,2283311.30675125,1,1,85,8,8
12,15,503.433742094785,0,0,2283312.88326686,2283313.93037761,1,0,93,8,4
12,16,460.513674654067,0,0,2283315.44805733,2283316.49514344,1,0,74,16,16
12,17,605.929213110358,0,0,2283318.16584476,2283319.21286697,1,0,70,4,0
12,18,479.331336449832,0,0,2283321.00115615,2283322.04824534,1,0,93,0,16
12,19,499.504830688238,1,0,2283323.66005841,2283324.70714337,1,1,64,0,0
12,20,420.526624657214,1,0,2283326.36600867,2283327.41310942,1,1,75,16,8
12,21,680.009945761412,0,0,2283328.89550554,2283329.94259319,1,0,89,8,4
12,22,571.02095335722,1,0,2283331.64852575,2283332.69561379,1,1,98,0,4
12,23,560.393721330911,1,0,2283334.37801753,2283335.42510788,1,1,97,8,0
12,24,652.759714052081,0,0,2283337.14280292,2283338.18988788,1,0,100,4,4
12,25,483.637509867549,1,0,2283339.94288807,2283340.98997188,1,1,78,8,16
12,26,563.524223864079,1,0,2283342.64884565,2283343.69593715,1,1,97,8,8
12,27,437.713207211345,1,0,2283345.36661383,2283346.41370842,1,1,76,8,8
12,28,471.842305734754,1,0,2283347.9313531,2283348.97844076,1,1,87,16,8
12,29,495.131289586425,1,0,2283350.49613241,2283351.54321775,1,1,67,16,4
12,30,429.440395906568,1,0,2283353.11974337,2283354.16681139,1,1,75,0,4
12,31,460.154506377876,1,0,2283355.64922522,2283356.69631249,1,1,63,4,16
12,32,456.79572224617,0,0,2283358.34342224,2283359.39051336,1,0,75,16,16
12,33,939.240347128361,0,0,2283360.87288985,2283361.92002408,1,0,91,16,4
12,34,622.521800454706,1,0,2283363.87299071,2283364.92007913,1,1,100,0,8
12,35,644.049972761422,0,0,2283366.56718273,2283367.61428193,1,0,79,16,16
12,36,646.849408745766,0,0,2283369.30844431,2283370.35553311,1,0,68,16,0
12,37,672.791157849133,1,0,2283372.12032813,2283373.16738883,1,1,71,4,4
12,38,598.340862896293,0,0,2283374.90860768,2283375.95569572,1,0,77,4,16
12,39,409.402792807668,0,0,2283377.60280393,2283378.64989351,1,0,74,16,0
12,40,486.089326441288,0,0,2283380.14405558,2283381.1911417,1,0,86,4,4
12,41,433.405109215528,0,0,2283382.87354775,2283383.92063309,1,0,74,0,0
12,42,571.4101488702,1,0,2283385.53245039,2283386.57953728,1,1,92,8,0
12,43,538.5298631154,0,0,2283388.33253131,2283389.37962243,1,0,89,8,16
12,44,742.380165494978,1,0,2283391.08555345,2283392.13264072,1,1,61,8,8
12,45,489.461584016681,0,0,2283394.03857127,2283395.08566547,1,0,74,4,16
12,46,435.489672236145,1,0,2283396.75630827,2283397.80339285,1,1,86,0,0
12,47,706.621142104268,0,0,2283399.36818832,2283400.41523479,1,0,70,4,8
12,48,772.16921467334,0,0,2283402.29763268,2283403.34472688,1,0,91,4,0
12,49,504.66831214726,1,0,2283405.22714209,2283406.27421974,1,1,83,4,8
12,50,517.76583911851,0,0,2283407.9449326,2283408.99196212,1,0,93,8,16
12,51,454.799314029515,1,0,2283410.65083089,2283411.69792856,1,1,65,8,0
12,52,395.636204164475,0,0,2283413.23913285,2283414.28621858,1,0,73,0,0
12,53,675.062427762896,0,0,2283415.87450168,2283416.92158202,1,0,100,4,8
12,54,630.185603164136,1,0,2283418.68635432,2283419.73343659,1,1,79,0,16
12,55,454.525992274284,1,0,2283421.55702553,2283422.60411858,1,1,84,0,0
12,56,601.979513652623,0,0,2283424.22768912,2283425.2748018,1,0,72,16,8
12,57,645.092446822673,1,0,2283426.89840506,2283427.94544999,1,1,66,4,8
12,58,731.978520285338,0,0,2283429.63961775,2283430.68676007,1,0,99,4,0
12,59,464.709364343435,1,0,2283432.48675283,2283433.5338428,1,1,78,0,16
12,60,441.512386780232,1,0,2283435.18095332,2283436.22804367,1,1,66,8,16
12,61,492.031198460609,1,0,2283437.7574978,2283438.80459085,1,1,98,0,4
12,62,573.790362104774,0,0,2283440.4046499,2283441.45178991,1,0,99,16,4
12,63,459.384199231863,0,0,2283443.22824423,2283444.27532842,1,0,80,8,0
12,64,622.791273519397,1,0,2283445.81655389,2283446.86364116,1,1,99,0,8
12,65,465.868481900543,1,0,2283448.62839883,2283449.67555424,1,1,65,0,16
12,66,630.354216322303,1,0,2283451.20500222,2283452.25203559,1,1,89,4,8
12,67,453.831137623638,0,0,2283453.93444357,2283454.98153007,1,0,65,8,4
12,68,644.656285643578,0,0,2283456.48750158,2283457.53459886,1,0,73,0,16
12,69,411.50044510141,1,0,2283459.32281605,2283460.36992835,1,1,78,0,8
12,70,514.483276754618,0,0,2283461.87584519,2283462.92293439,1,0,96,16,0
12,71,567.474693059921,0,0,2283464.59357565,2283465.64066022,1,0,80,4,16
12,72,515.194684732705,0,0,2283467.33483376,2283468.38191795,1,0,95,4,4
12,73,729.145978111774,0,0,2283469.93490668,2283470.98199549,1,0,62,16,0
12,74,511.370867025107,0,0,2283472.89969699,2283473.9467858,1,0,79,0,8
12,75,448.82241031155,1,0,2283475.57042333,2283476.61744823,1,1,87,8,8
12,76,477.383818943053,1,0,2283478.15868641,2283479.20576174,1,1,84,16,16
12,77,459.084699396044,0,0,2283480.74699722,2283481.79408026,1,0,94,0,8
12,78,615.206002257764,1,0,2283483.40588947,2283484.45297674,1,1,100,16,8
12,79,590.700157452375,0,0,2283486.24127208,2283487.28835319,1,0,89,8,4
12,80,436.551779974252,0,0,2283488.99430076,2283490.04137571,1,0,88,8,16
12,81,542.433752678335,1,0,2283505.66536048,2283506.71244698,2,1,76,8,8
12,82,535.029413178563,1,0,2283508.30073585,2283509.34782273,2,1,68,16,4
12,83,477.535109035671,1,0,2283511.08907931,2283512.13612923,2,1,86,16,16
12,84,698.924232739955,1,0,2283513.65382858,2283514.70092471,2,1,63,16,8
12,85,447.224437724799,0,0,2283516.52449979,2283517.57158206,2,0,76,16,8
12,86,362.658908125013,1,0,2283519.15985977,2283520.20697283,2,1,75,0,8
12,87,518.667032476515,1,0,2283521.66585053,2283522.71292202,2,1,73,0,8
12,88,649.911772925407,0,0,2283524.43061282,2283525.47770086,2,0,88,4,4
12,89,559.035963378847,1,0,2283527.19539667,2283528.24248586,2,1,68,16,4
12,90,515.138095244765,0,0,2283529.84253606,2283530.88962564,2,0,78,16,8
12,91,497.21931759268,1,0,2283532.51319272,2283533.56029693,2,1,66,8,0
12,92,378.739112522453,0,0,2283535.13680754,2283536.18389981,2,0,75,0,0
12,93,521.63007715717,0,0,2283537.73688353,2283538.78397234,2,0,93,4,8
12,94,556.129893753678,1,0,2283540.37225081,2283541.41934039,2,1,79,4,16
12,95,633.42812936753,0,0,2283542.98409314,2283544.03117733,2,0,71,8,4
12,96,520.255381707102,0,0,2283545.6900615,2283546.73714376,2,0,66,4,16
12,97,609.87313836813,1,0,2283548.27836038,2283549.3254515,2,1,99,0,16
12,98,617.175462655723,1,0,2283551.09021225,2283552.13729875,2,1,69,4,0
12,99,664.24925904721,1,0,2283553.90205757,2283554.949146,2,1,71,16,16
12,100,456.77300915122,1,0,2283556.63155898,2283557.67863585,2,1,64,8,0
12,101,554.721321444958,0,0,2283559.33751271,2283560.38459998,2,0,62,8,0
12,102,636.731864884496,1,0,2283561.99645924,2283563.04355729,2,1,98,4,4
12,103,524.586577434093,0,0,2283564.78472994,2283565.83182144,2,0,65,8,4
12,104,783.164469990879,0,0,2283567.52599267,2283568.57307378,2,0,89,16,4
12,105,673.961824271828,0,0,2283570.51432797,2283571.56142718,2,0,91,16,0
12,106,569.181609898806,0,0,2283573.24380128,2283574.29088662,2,0,88,16,0
12,107,667.787435464561,0,0,2283575.91447526,2283576.96155444,2,0,69,8,4
12,108,569.742882624269,0,0,2283578.83220487,2283579.87929483,2,0,69,4,16
12,109,438.043118454516,0,0,2283581.54992377,2283582.59701528,2,0,88,4,4
12,110,688.386311288923,1,0,2283584.12646979,2283585.17355475,2,1,63,8,8
12,111,420.273320749402,1,0,2283586.97361219,2283588.02069908,2,1,72,0,4
12,112,559.664604719728,1,0,2283589.58545875,2283590.63253639,2,1,70,0,8
12,113,540.647533722222,1,0,2283592.25615159,2283593.3032635,2,1,61,8,16
12,114,733.351676724851,0,0,2283595.04444039,2283596.09151957,2,0,100,8,16
12,115,403.959829825908,0,0,2283598.02099627,2283599.0680947,2,0,75,4,16
12,116,518.653559032828,0,0,2283600.66813681,2283601.71521985,2,0,63,4,0
12,117,509.445677977055,0,0,2283603.36232845,2283604.40940686,2,0,91,4,0
12,118,436.17798294872,0,0,2283606.00946784,2283607.05654895,2,0,85,4,0
12,119,525.403079111129,0,0,2283608.66836433,2283609.71544736,2,0,77,4,16
12,120,550.703868735582,1,0,2283611.43315279,2283612.48023775,2,1,97,0,4
12,121,485.937266610563,0,0,2283614.15087439,2283615.19797283,2,0,94,16,4
12,122,469.042870216072,0,0,2283616.86860523,2283617.91568981,2,0,75,16,16
12,123,595.260405447334,1,0,2283619.53926151,2283620.58635763,2,1,90,0,0
12,124,435.649431310594,1,0,2283622.35111915,2283623.3982018,2,1,65,0,4
12,125,575.622391887009,0,0,2283624.85707373,2283625.90415984,2,0,78,16,0
12,126,479.123072698712,0,0,2283627.64537561,2283628.69249406,2,0,64,16,4
12,127,759.972111787647,1,0,2283630.23369798,2283631.28079448,2,1,79,8,16
12,128,534.767254721373,0,0,2283633.12796614,2283634.17499104,2,0,71,0,0
12,129,565.112957730889,1,0,2283635.81033754,2283636.85742096,2,1,64,4,8
12,130,531.855795066804,1,0,2283638.45746885,2283639.50455689,2,1,81,4,0
12,131,561.340725049376,1,0,2283641.08107674,2283642.12816131,2,1,90,4,4
12,132,545.486107934266,0,0,2283643.83409579,2283644.88118152,2,0,65,16,16
12,133,434.856797102839,0,0,2283646.46946539,2283647.51663427,2,0,78,4,8
12,134,588.7730428949,1,0,2283649.02247606,2283650.06958026,2,1,80,8,4
12,135,621.688745450228,0,0,2283651.77558558,2283652.82259739,2,0,99,8,4
12,136,519.74376803264,0,0,2283654.63441385,2283655.68152576,2,0,65,8,8
12,137,437.120367307216,0,0,2283657.29334113,2283658.34041916,2,0,78,0,4
12,138,588.267589453608,0,0,2283659.91691822,2283660.96400818,2,0,82,8,16
12,139,423.050044104457,0,0,2283662.59935353,2283663.64644619,2,0,75,8,16
12,140,581.284397281706,1,0,2283665.28176305,2283666.32888073,2,1,88,0,16
12,141,478.102156426758,1,0,2283668.02303656,2283669.07012537,2,1,87,0,16
12,142,390.548560302705,0,1,2283670.70550112,2283671.75255991,2,1,74,4,4
12,143,521.337506826967,1,0,2283673.29378153,2283674.34086533,2,1,71,0,0
12,144,589.864022098482,1,0,2283675.97620875,2283677.02330834,2,1,69,8,8
12,145,668.395288754255,0,0,2283678.7645295,2283679.81161484,2,0,100,4,8
12,146,497.797528747469,1,0,2283681.52932028,2283682.57639985,2,1,62,16,8
12,147,663.358074612916,0,0,2283684.25880359,2283685.30589586,2,0,62,8,8
12,148,581.178148277104,0,0,2283687.05888643,2283688.10597101,2,0,70,16,0
12,149,632.05766864121,1,0,2283689.85896774,2283690.90606271,2,1,69,8,0
12,150,643.655387684703,1,0,2283692.64729041,2283693.69437383,2,1,91,4,8
12,151,590.695538092405,1,0,2283695.44737171,2283696.49445436,2,1,64,16,8
12,152,591.921254061162,1,0,2283698.2709749,2283699.31809297,2,1,67,0,0
12,153,496.668053325266,0,0,2283701.11812346,2283702.16521342,2,0,79,0,16
12,154,467.546141706407,1,0,2283703.70643042,2283704.75351577,2,1,78,0,4
12,155,531.634827610105,0,0,2283706.31830778,2283707.36535655,2,0,85,0,8
12,156,459.77493468672,1,0,2283709.03600127,2283710.08308777,2,1,67,8,0
12,157,573.696431703866,0,0,2283711.73018906,2283712.77727902,2,0,97,0,8
12,158,661.184969823807,1,0,2283714.47145294,2283715.51853983,2,1,81,16,0
12,159,652.330482844263,1,0,2283717.37742238,2283718.42450426,2,1,79,16,16
12,160,575.346759986132,0,0,2283720.28339451,2283721.33047639,2,0,85,0,16
12,161,524.449916090816,0,0,2283752.04902219,2283753.09610908,3,0,77,0,0
12,162,539.368693251163,1,0,2283754.80204548,2283755.84913083,3,1,73,16,8
12,163,578.167753759772,1,0,2283757.40215766,2283758.44920798,3,1,78,8,8
12,164,404.308989644051,1,0,2283760.10808021,2283761.15516902,3,1,63,0,8
12,165,519.195969216526,0,0,2283762.7081562,2283763.75524116,3,0,80,4,16
12,166,622.706581838429,0,0,2283765.3435693,2283766.39063693,3,0,83,16,0
12,167,524.211240001023,0,0,2283768.16713899,2283769.21422973,3,0,79,4,4
12,168,792.666846420616,0,0,2283770.89663193,2283771.94371805,3,0,73,4,4
12,169,512.644703499973,0,0,2283773.90848411,2283774.95557754,3,0,95,0,0
12,170,552.551296539605,1,0,2283776.55561888,2283777.60271116,3,1,98,16,8
12,171,572.740573901683,1,0,2283779.22630095,2283780.27342402,3,1,92,8,8
12,172,514.348925556988,0,0,2283781.86165553,2283782.9087455,3,0,76,4,8
12,173,662.481903098524,1,0,2283784.47350209,2283785.52059244,3,1,83,8,16
12,174,470.87181918323,0,0,2283787.39123786,2283788.43831743,3,0,96,16,4
12,175,456.428469158709,1,0,2283790.08542487,2283791.13251022,3,1,64,4,16
12,176,518.279376905411,0,0,2283792.62666497,2283793.67376533,3,0,86,8,4
12,177,541.504071559757,0,0,2283795.34440351,2283796.39149039,3,0,80,0,0
12,178,445.398182608187,0,0,2283798.09742872,2283799.14451638,3,0,89,0,16
12,179,499.228043947369,0,0,2283800.69750125,2283801.74460315,3,0,90,8,0
12,180,622.353187762201,1,0,2283803.40346152,2283804.45055649,3,1,98,4,4
12,181,446.49840099737,1,0,2283806.21530954,2283807.26239681,3,1,95,4,0
12,182,422.015653923154,0,0,2283808.74479986,2283809.79188059,3,0,96,8,8
12,183,626.622404437512,0,0,2283811.28610348,2283812.33314109,3,0,74,16,4
12,184,574.38012259081,1,0,2283814.01553983,2283815.06262594,3,1,89,16,4
12,185,457.923657726496,0,0,2283816.70973762,2283817.75682912,3,0,77,4,16
12,186,496.96254869923,0,0,2283819.36863603,2283820.415726,3,0,100,8,8
12,187,603.398864623159,1,0,2283822.03929846,2283823.08638496,3,1,89,0,8
12,188,600.538219790906,0,0,2283824.74527414,2283825.79235255,3,0,65,0,0
12,189,626.667445059866,1,0,2283827.5100499,2283828.55713833,3,1,99,16,16
12,190,452.633139211684,0,0,2283830.26306203,2283831.31016431,3,0,77,0,4
12,191,569.831423927099,0,0,2283832.88668262,2283833.93376719,3,0,69,16,16
12,192,653.628570958972,1,0,2283835.63970321,2283836.68687171,3,1,90,8,4
12,193,555.110516957939,1,0,2283838.35742751,2283839.40451747,3,1,74,0,8
12,194,616.791656706482,1,0,2283841.00456729,2283842.05168458,3,1,99,8,4
12,195,549.611734692007,1,0,2283843.85171199,2283844.89879811,3,1,67,16,4
12,196,556.056365836412,1,0,2283846.61649892,2283847.66358196,3,1,90,0,16
12,197,456.845381762832,1,0,2283849.32245226,2283850.36959381,3,1,88,16,16
12,198,494.240104686469,1,0,2283851.89900291,2283852.94608825,3,1,72,0,8
12,199,689.674390479922,0,0,2283854.46378067,2283855.51087102,3,0,91,8,4
12,200,537.668705452234,1,0,2283857.38152414,2283858.42861179,3,1,80,0,4
12,201,450.48775151372,0,0,2283860.0168818,2283861.06396869,3,0,66,16,8
12,202,480.829219799489,1,0,2283862.5463702,2283863.59346363,3,1,70,16,0
12,203,682.601888198406,0,0,2283865.19351036,2283866.24059609,3,0,100,4,8
12,204,442.915569525212,1,0,2283868.06418427,2283869.11126692,3,1,67,16,0
12,205,599.85529910773,0,0,2283870.71131442,2283871.7584013,3,0,61,8,0
12,206,500.958058517426,0,0,2283873.47610135,2283874.52318977,3,0,87,4,8
12,207,475.216488819569,0,0,2283876.04088797,2283877.08797062,3,0,64,4,4
12,208,390.559724066406,0,0,2283878.75861265,2283879.80569684,3,0,75,0,16
12,209,609.30763091892,1,0,2283881.29986276,2283882.3469508,3,1,91,0,4
12,210,633.469705469906,1,0,2283884.01758667,2283885.06467355,3,1,61,4,8
12,211,610.72005238384,1,0,2283886.8294343,2283887.87652465,3,1,74,4,16
12,212,516.000792849809,1,0,2283889.54720787,2283890.59425357,3,1,66,4,8
12,213,691.797065548599,1,0,2283892.14729888,2283893.19432263,3,1,100,8,16
12,214,639.641399495304,0,0,2283894.99437391,2283896.04147118,3,0,95,8,0
12,215,507.565913256258,0,0,2283897.70033726,2283898.74742915,3,0,74,8,4
12,216,620.011085644364,0,0,2283900.32394591,2283901.37107745,3,0,79,8,0
12,217,588.199451565742,1,0,2283902.99461335,2283904.04170139,3,1,93,16,8
12,218,677.095021586865,1,0,2283905.68879728,2283906.73590765,3,1,88,0,8
12,219,583.412076812238,1,0,2283908.46535709,2283909.5124459,3,1,93,8,16
12,220,497.717841994017,1,0,2283911.28900378,2283912.33610683,3,1,72,0,0
12,221,490.240360144526,0,0,2283914.01846361,2283915.06555511,3,0,91,0,16
12,222,655.954890418798,0,0,2283916.75972788,2283917.806814,3,0,90,16,16
12,223,500.268208328635,1,0,2283919.63039563,2283920.67747905,3,1,88,8,0
12,224,448.384325020015,0,0,2283922.33635436,2283923.38344009,3,0,88,0,4
12,225,545.107305981219,0,0,2283924.87760177,2283925.92470059,3,0,61,0,16
12,226,654.568261001259,1,0,2283927.56003362,2283928.6071282,3,1,78,4,0
12,227,513.197891879827,0,0,2283930.39544741,2283931.44249387,3,0,86,16,8
12,228,435.231363866478,0,0,2283933.1484349,2283934.19551986,3,0,75,8,16
12,229,494.382925331593,0,0,2283935.77203855,2283936.81913005,3,0,69,4,0
12,230,572.356382850558,1,0,2283938.47800575,2283939.52508725,3,1,89,4,4
12,231,630.029694642872,1,0,2283941.16043028,2283942.20752525,3,1,65,8,8
12,232,453.487367369235,1,0,2283943.87816074,2283944.92525185,3,1,94,4,0
12,233,443.022973835468,0,0,2283946.57236507,2283947.61943887,3,0,87,16,0
12,234,978.664969094098,0,0,2283949.10184115,2283950.14892418,3,0,72,16,4
12,235,705.740351229906,1,0,2283952.16075981,2283953.20784438,3,1,90,4,16
12,236,512.054557912052,0,0,2283954.98436454,2283956.03145719,3,0,80,4,0
12,237,624.848504550755,1,0,2283957.67856194,2283958.72564883,3,1,100,0,4
12,238,611.412212252617,0,0,2283960.37278091,2283961.41986433,3,0,61,16,0
12,239,549.936641473323,1,0,2283963.19637139,2283964.24346905,3,1,69,8,16
12,240,575.845283921808,1,0,2283965.84351425,2283966.89059497,3,1,88,16,16
12,241,1641.77023340017,0,0,2284001.62102452,2284002.66811295,4,0,82,8,0
12,242,680.514244828373,1,0,2284005.45641637,2284006.50351326,4,1,86,0,16
12,243,453.494296874851,0,0,2284008.26827902,2284009.31536359,4,0,76,8,16
12,244,428.150776773691,1,0,2284010.9507278,2284011.99779813,4,1,65,8,8
12,245,429.508534260094,0,0,2284013.5743149,2284014.62140294,4,0,92,16,0
12,246,402.129725553095,1,0,2284016.25674482,2284017.30383093,4,1,85,0,0
12,247,441.728734876961,1,1,2284018.90392887,2284019.95102884,4,0,100,0,16
12,248,574.718887917697,1,0,2284021.40983571,2284022.45693414,4,1,89,4,8
12,249,523.448632564396,0,0,2284024.19815376,2284025.24523872,4,0,74,16,4
12,250,613.535271957517,1,0,2284026.90412212,2284027.95120977,4,1,70,16,8
12,251,722.449196968228,1,0,2284029.70420227,2284030.75128607,4,1,72,16,0
12,252,465.263708028942,0,0,2284032.64546107,2284033.69255489,4,0,87,16,4
12,253,488.97268390283,0,0,2284035.18679241,2284036.23380923,4,0,94,8,0
12,254,481.651496142149,1,0,2284037.92797276,2284038.9750581,4,1,97,8,16
12,255,635.316363535821,1,0,2284040.57510599,2284041.62219249,4,1,100,16,8
12,256,513.582853134722,0,0,2284043.29283221,2284044.33991525,4,0,100,0,0
12,257,614.262463059276,0,0,2284046.03409148,2284047.08117336,4,0,90,4,0
12,258,546.49047087878,1,0,2284048.84593642,2284049.89302485,4,1,67,8,4
12,259,475.746580399573,0,0,2284051.51661464,2284052.56369113,4,0,86,0,16
12,260,619.66269556433,1,0,2284054.22258569,2284055.26966257,4,1,94,8,16
12,261,487.335829995573,0,0,2284057.05794559,2284058.10502285,4,0,66,16,4
12,262,526.707712095231,0,0,2284059.63448738,2284060.68164471,4,0,89,4,4
12,263,555.770339909941,1,0,2284062.29338733,2284063.34049384,4,1,62,16,8
12,264,519.47968499735,1,0,2284064.92876154,2284065.97584573,4,1,71,0,4
12,265,577.053291257471,0,0,2284067.61119031,2284068.65827257,4,0,87,8,0
12,266,469.795468728989,0,0,2284070.41127354,2284071.45841008,4,0,82,0,8
12,267,797.325643710792,0,0,2284073.08193751,2284074.12902863,4,0,61,4,0
12,268,549.598645884544,1,0,2284076.01149158,2284077.05851764,4,1,94,8,0
12,269,616.808980237693,0,0,2284078.62328193,2284079.67037421,4,0,68,4,16
12,270,769.850979559124,1,0,2284081.43511725,2284082.48221106,4,1,90,16,16
12,271,688.152640126646,0,0,2284084.30579269,2284085.35288612,4,0,82,16,16
12,272,496.091766748577,1,0,2284087.10587631,2284088.15296281,4,1,98,4,16
12,273,573.620209936053,1,0,2284089.72948419,2284090.77657262,4,1,83,8,16
12,274,473.141549155116,0,0,2284092.45897059,2284093.50606555,4,0,96,16,4
12,275,524.619683623314,0,0,2284095.14140628,2284096.18849124,4,0,93,8,4
12,276,558.448128402233,1,0,2284097.88266478,2284098.92975282,4,1,85,4,4
12,277,451.054414268583,1,0,2284100.68274801,2284101.72983566,4,1,95,0,0
12,278,444.045044947416,1,0,2284103.37693579,2284104.42408465,4,1,93,0,0
12,279,498.304137494415,1,0,2284105.89466748,2284106.94175436,4,1,68,0,4
12,280,481.014770455658,1,0,2284108.54180495,2284109.5888876,4,1,67,16,16
12,281,557.784840464592,1,0,2284111.14187901,2284112.18896513,4,1,82,8,8
12,282,418.25881972909,0,0,2284113.91843574,2284114.96551877,4,0,83,0,8
12,283,454.116008710116,0,0,2284116.45967506,2284117.50676233,4,0,75,16,0
12,284,467.80406543985,0,0,2284119.04801321,2284120.0950743,4,0,93,0,8
12,285,487.889788579196,0,0,2284121.65982127,2284122.70691586,4,0,82,4,16
12,286,545.420664362609,0,0,2284124.23637499,2284125.28346457,4,0,92,16,4
12,287,629.326755180955,0,0,2284127.03646053,2284128.08354472,4,0,72,4,8
12,288,594.784593209624,0,0,2284129.77770941,2284130.8248294,4,0,95,4,0
12,289,447.791869752109,1,0,2284132.5307404,2284133.57782074,4,1,94,8,4
12,290,572.22588127479,0,0,2284135.10728372,2284136.15436945,4,0,72,4,8
12,291,612.873138859868,0,0,2284137.84854068,2284138.89562641,4,0,99,8,4
12,292,367.896687239408,0,0,2284140.5427762,2284141.5898577,4,0,74,0,16
12,293,459.463501349092,0,1,2284143.08398281,2284144.1310593,4,1,93,4,4
12,294,539.454154670238,0,0,2284145.73112143,2284146.77821294,4,0,78,4,16
12,295,406.435513868928,1,0,2284148.49590759,2284149.54299755,4,1,93,0,8
12,296,539.132711943239,0,0,2284151.03720197,2284152.08425344,4,0,93,8,8
12,297,549.378448165953,1,0,2284153.74312644,2284154.79020524,4,1,86,8,0
12,298,559.46096079424,1,0,2284156.35496645,2284157.40204333,4,1,86,16,16
12,299,441.973570268601,0,0,2284159.14327911,2284160.19036831,4,0,76,16,8
12,300,747.500531375408,1,0,2284161.67276866,2284162.71985054,4,1,69,8,16
12,301,539.983090944588,1,0,2284164.49637994,2284165.54348107,4,1,98,0,4
12,302,711.81118581444,0,0,2284167.24946174,2284168.29649165,4,0,72,4,16
12,303,668.613176327199,0,0,2284170.04956999,2284171.09656757,4,0,67,8,8
12,304,560.865298379213,1,0,2284172.90841482,2284173.95548322,4,1,73,16,16
12,305,670.896764844656,0,0,2284175.52022711,2284176.56731977,4,0,94,8,8
12,306,458.641994744539,0,0,2284178.36737798,2284179.41445832,4,0,77,0,4
12,307,481.707700528204,1,0,2284181.07334249,2284182.12044362,4,1,77,0,16
12,308,426.704093813896,1,0,2284183.67340808,2284184.7204915,4,1,96,4,0
12,309,551.844122819602,1,0,2284186.33231496,2284187.37939377,4,1,87,16,8
12,310,390.345300547779,0,0,2284188.96767956,2284190.01476875,4,0,76,4,8
12,311,663.960923440754,1,0,2284191.45010493,2284192.49722531,4,1,71,4,0
12,312,548.282464034855,1,0,2284194.22666089,2284195.27374508,4,1,89,16,0
12,313,457.864373456687,0,0,2284196.90907849,2284197.95618616,4,0,89,0,4
12,314,489.483526907861,1,0,2284199.45034053,2284200.49742934,4,1,91,8,4
12,315,402.329135220498,1,0,2284202.03865058,2284203.08574054,4,1,86,4,8
12,316,540.484310127795,1,0,2284204.55637456,2284205.60345991,4,1,67,4,4
12,317,610.40399922058,1,0,2284207.30939516,2284208.35648281,4,1,63,4,4
12,318,515.49572404474,1,0,2284210.06244309,2284211.10949918,4,1,73,0,0
12,319,649.135692045093,0,0,2284212.80367194,2284213.85075652,4,0,81,0,8
12,320,819.636441301554,0,0,2284215.59200231,2284216.6390865,4,0,62,16,0
12,321,562.878644093871,0,0,2284227.66293946,2284228.71002095,5,0,92,0,4
12,322,623.802180867642,1,0,2284230.4159716,2284231.46303847,5,1,98,8,8
12,323,740.854180417955,1,0,2284233.13367934,2284234.18081512,5,1,65,4,8
12,324,591.948971152306,1,0,2284236.03983702,2284237.08678802,5,1,89,0,0
12,325,512.612751219422,0,0,2284238.88691282,2284239.93387691,5,0,68,4,4
12,326,426.771846599877,1,0,2284241.59274837,2284242.63985104,5,1,75,0,16
12,327,420.677144546062,0,0,2284244.13400271,2284245.18108921,5,0,97,0,0
12,328,492.511629592627,0,0,2284246.68701607,2284247.73410064,5,0,88,4,4
12,329,602.495746687055,0,0,2284249.28709168,2284250.33418087,5,0,91,16,16
12,330,591.516660060734,0,0,2284252.05187783,2284253.09896664,5,0,73,16,0
12,331,591.1775091663,0,0,2284254.88725505,2284255.93434617,5,0,70,8,0
12,332,397.779281716794,0,0,2284257.67557195,2284258.72266114,5,0,75,4,4
12,333,497.383310925215,0,0,2284260.26387891,2284261.31097234,5,0,88,16,4
12,334,669.756125658751,1,0,2284262.98161129,2284264.02869394,5,1,73,8,0
12,335,627.847735304385,1,0,2284265.88758342,2284266.93466685,5,1,100,0,8
12,336,584.923433605582,0,0,2284268.75825348,2284269.80533498,5,0,90,8,8
12,337,657.816946040839,1,0,2284271.49951159,2284272.54659963,5,1,93,4,16
12,338,480.874260421842,1,0,2284274.35842032,2284275.40549681,5,1,84,4,0
12,339,589.555669110268,1,0,2284276.89966619,2284277.94675038,5,1,82,16,16
12,340,652.937951032072,0,0,2284279.58209611,2284280.62918415,5,0,100,16,0
12,341,494.204688351601,1,0,2284282.44100715,2284283.48808942,5,1,87,0,8
12,342,685.870206449181,1,0,2284285.18233302,2284286.22935254,5,1,70,8,4
12,343,474.485447630286,1,0,2284288.01764056,2284289.0647313,5,1,76,8,0
12,344,622.902141883969,0,0,2284290.70006817,2284291.7471616,5,0,78,4,8
12,345,499.920588452369,0,0,2284293.50024071,2284294.5472429,5,0,98,16,4
12,346,683.837612625211,1,0,2284296.20611629,2284297.2532078,5,1,71,0,4
12,347,507.945099845529,0,0,2284299.12383397,2284300.17093856,5,0,70,16,16
12,348,585.95281932503,1,0,2284301.72392189,2284302.77101609,5,1,92,4,0
12,349,465.129741467536,1,0,2284304.42988371,2284305.47696905,5,1,82,8,8
12,350,573.794981930405,0,0,2284307.07702926,2284308.12410844,5,0,91,16,0
12,351,446.303610689938,0,0,2284309.75945456,2284310.80654221,5,0,97,0,8
12,352,424.598357174546,0,1,2284312.4301832,2284313.47720349,5,1,74,4,16
12,353,540.779575239867,1,0,2284315.04200435,2284316.08905467,5,1,72,4,8
12,354,706.674651708454,0,0,2284317.79497953,2284318.84206449,5,0,90,4,16
12,355,467.305541038513,0,0,2284320.57153317,2284321.61861274,5,0,67,0,8
12,356,423.38380496949,0,0,2284323.23043543,2284324.27752039,5,0,87,0,0
12,357,423.403438180685,0,0,2284325.88932306,2284326.93641919,5,0,74,16,0
12,358,757.003678008914,1,0,2284328.50117963,2284329.54826151,5,1,64,8,8
12,359,617.146590724587,1,0,2284331.33660843,2284332.3836345,5,1,63,4,0
12,360,645.10399568826,1,0,2284334.04251135,2284335.08960324,5,1,90,4,4
12,361,664.380530826747,1,0,2284336.81906769,2284337.86615149,5,1,89,16,4
12,362,515.851813368499,1,0,2284339.58389234,2284340.63094035,5,1,99,4,0
12,363,566.946526523679,0,0,2284342.14863469,2284343.19573274,5,0,78,16,16
12,364,422.600024845451,1,0,2284344.93694851,2284345.98403963,5,1,77,4,16
12,365,451.559097971767,1,0,2284347.48996764,2284348.53705876,5,1,67,0,4
12,366,443.112284410745,1,0,2284350.12534032,2284351.17242027,5,1,63,8,0
12,367,438.454641960561,0,0,2284352.74894859,2284353.79606127,5,0,78,0,4
12,368,662.184713408351,1,0,2284355.39608182,2284356.44317525,5,1,71,16,4
12,369,548.100377898663,1,0,2284358.13733647,2284359.18442028,5,1,76,8,16
12,370,657.001214101911,1,0,2284360.84328635,2284361.89040403,5,1,69,16,4
12,371,481.109086424112,1,0,2284363.74927119,2284364.79635499,5,1,85,0,8
12,372,476.445668842644,0,0,2284366.32580027,2284367.37291295,5,0,80,8,16
12,373,559.189563151449,0,0,2284368.91411647,2284369.96121106,5,0,86,0,0
12,374,674.549659714103,0,0,2284371.59655024,2284372.64363828,5,0,70,16,8
12,375,425.439111422747,1,1,2284374.44369957,2284375.49077952,5,0,71,0,4
12,376,427.505582105368,0,0,2284377.04376825,2284378.0908559,5,0,80,8,16
12,377,661.2354000099,1,0,2284379.64385271,2284380.69094152,5,1,65,0,16
12,378,372.158590238541,0,0,2284382.38510466,2284383.43218693,5,0,74,8,4
12,379,463.591052684933,0,0,2284384.91462154,2284385.96168764,5,0,75,16,8
12,380,409.753877669573,1,0,2284387.53819979,2284388.58529206,5,1,85,16,8
12,381,488.533443305641,1,0,2284390.06768318,2284391.11476698,5,1,84,16,16
12,382,430.624535772949,0,1,2284392.63246903,2284393.67954244,5,1,80,0,16
12,383,713.051530066878,0,0,2284395.20901043,2284396.25609808,5,0,81,8,0
12,384,497.846803627908,1,0,2284398.10321777,2284399.15030427,5,1,76,16,8
12,385,460.842431522906,0,0,2284400.65628464,2284401.7033157,5,0,87,8,4
12,386,565.718500874937,0,0,2284403.36220333,2284404.4092729,5,0,70,8,16
12,387,596.901878714561,1,0,2284406.12697987,2284407.17410448,5,1,67,8,16
12,388,406.236104201525,0,0,2284408.90352966,2284409.95061886,5,0,86,4,16
12,389,530.891467817128,0,0,2284411.49183932,2284412.53892852,5,0,74,4,8
12,390,413.908376358449,0,0,2284414.19780537,2284415.24488956,5,0,75,8,4
12,391,741.816197987646,0,0,2284416.7861285,2284417.83320884,5,0,91,4,8
12,392,480.161697138101,1,0,2284419.66855065,2284420.71563792,5,1,64,0,16
12,393,545.424899086356,0,0,2284422.32745021,2284423.37454403,5,0,88,4,4
12,394,467.329023871571,1,0,2284425.08047196,2284426.12756116,5,1,66,0,0
12,395,474.535492714494,0,0,2284427.59819441,2284428.64528207,5,0,97,0,16
12,396,594.139783643186,0,0,2284430.18650369,2284431.23359288,5,0,63,16,8
12,397,628.891749773175,1,0,2284433.02188783,2284434.06897125,5,1,78,4,0
12,398,467.588487546891,0,0,2284435.77494192,2284436.82199609,5,0,78,8,8
12,399,663.139416836202,1,0,2284438.45733527,2284439.50442639,5,1,91,8,4
12,400,665.766775142401,1,0,2284441.18683437,2284442.23390893,5,1,68,16,0
12,401,645.337281748652,0,0,2284462.51685909,2284463.56395136,6,0,71,16,0
12,402,524.645091500133,0,0,2284465.38754916,2284466.4346218,6,0,96,8,0
12,403,482.441436033696,0,0,2284468.02290875,2284469.06999564,6,0,79,0,0
12,404,500.743250362575,0,0,2284470.75246213,2284471.79948665,6,0,82,0,4
12,405,436.723857186735,0,0,2284473.35247883,2284474.39956341,6,0,82,4,4
12,406,609.873908106238,1,0,2284475.85843842,2284476.90551491,6,1,88,4,4
12,407,574.1799431853,1,0,2284478.58795753,2284479.63502401,6,1,69,16,0
12,408,704.912685323507,1,0,2284481.31741775,2284482.36450001,6,1,91,8,8
12,409,864.77426905185,1,0,2284484.17633764,2284485.22341182,6,1,93,16,8
12,410,498.745687771589,1,0,2284487.12938164,2284488.17644042,6,1,73,8,16
12,411,519.059692975134,0,0,2284489.75295141,2284490.80004292,6,0,89,4,8
12,412,557.790230493993,1,0,2284492.44715421,2284493.4942384,6,1,94,4,8
12,413,458.191975485533,1,0,2284495.21193844,2284496.25902687,6,1,76,16,16
12,414,553.251155186445,1,0,2284497.7296632,2284498.77674316,6,1,91,0,0
12,415,422.174258157611,1,0,2284500.52974604,2284501.57681483,6,1,84,8,8
12,416,460.69576125592,1,0,2284503.21217943,2284504.25925669,6,1,67,0,16
12,417,569.695147685707,1,0,2284505.81227736,2284506.85933614,6,1,78,8,4
12,418,542.101915925741,0,0,2284508.44761809,2284509.49471113,6,0,100,8,0
12,419,719.903835095465,0,1,2284511.14181434,2284512.18890007,6,1,61,16,16
12,420,426.09162023291,0,0,2284514.10660773,2284515.15369847,6,0,75,8,0
12,421,688.426732085645,1,0,2284516.67139397,2284517.71847354,6,1,97,4,4
12,422,414.123954251409,1,0,2284519.50676849,2284520.5538523,6,1,96,0,4
12,423,530.451072379947,0,0,2284522.0833149,2284523.13040294,6,0,96,8,4
12,424,434.631209820509,0,0,2284524.75400428,2284525.80106691,6,0,75,8,4
12,425,427.737328689545,0,0,2284527.30699955,2284528.3540795,6,0,77,0,0
12,426,612.736477982253,1,0,2284529.90707438,2284530.95417551,6,1,78,16,4
12,427,604.470596183091,0,0,2284532.6012664,2284533.64836098,6,0,68,16,8
12,428,700.390548910946,1,0,2284535.35428931,2284536.40139813,6,1,95,16,4
12,429,466.057112906128,1,0,2284538.15438216,2284539.20147289,6,1,66,8,8
12,430,518.814087845385,0,0,2284540.69561533,2284541.74271184,6,0,63,8,16
12,431,515.125776641071,0,0,2284543.46041111,2284544.50751185,6,0,93,4,8
12,432,451.32003724575,1,0,2284546.07224843,2284547.11933608,6,1,94,16,4
12,433,408.787625376135,0,0,2284548.66055424,2284549.70768578,6,0,95,16,16
12,434,398.348254151642,0,0,2284551.1429954,2284552.19007959,6,0,85,0,16
12,435,654.585969168693,1,0,2284553.75483811,2284554.80191922,6,1,70,8,4
12,436,407.35095134005,0,0,2284556.49608506,2284557.5431731,6,0,87,0,0
12,437,559.767774771899,1,0,2284559.11972066,2284560.16677559,6,1,92,0,16
12,438,486.968962009996,1,0,2284561.89624582,2284562.94335657,6,1,85,16,0
12,439,405.592064373195,0,0,2284564.57867959,2284565.6257684,6,0,88,4,16
12,440,520.683843176812,0,0,2284567.08463994,2284568.13171065,6,0,92,0,8
12,441,384.692148771137,1,0,2284569.69648996,2284570.74357068,6,1,93,4,8
12,442,521.180442534387,0,0,2284572.16713284,2284573.21422049,6,0,63,0,8
12,443,918.855124618858,0,0,2284574.90842367,2284575.95556445,6,0,100,4,0
12,444,470.737083349377,1,0,2284577.90852877,2284578.9555606,6,1,94,0,0
12,445,733.442527242005,0,0,2284580.60267074,2284581.64982268,6,0,61,16,16
12,446,454.973701387644,0,0,2284583.57923162,2284584.6263493,6,0,94,0,16
12,447,471.181712578982,1,0,2284586.20283181,2284587.24992754,6,1,95,4,16
12,448,463.681903667748,1,0,2284588.93233552,2284589.97941432,6,1,96,0,16
12,449,363.675975240767,0,0,2284591.62652638,2284592.67361673,6,0,94,16,8
12,450,541.3947426714,1,0,2284594.13247826,2284595.17956707,6,1,98,0,8
12,451,547.935999464244,1,0,2284596.90907156,2284597.95611725,6,1,72,8,16
12,452,438.540873117745,1,0,2284599.54439766,2284600.59149417,6,1,85,4,16
12,453,541.638808324933,0,0,2284602.10919044,2284603.15627078,6,0,66,16,0
12,454,620.346771087497,0,0,2284604.85044162,2284605.89753467,6,0,63,4,16
12,455,523.548722732812,1,0,2284607.60346337,2284608.65054795,6,1,89,0,4
12,456,419.295519590378,0,0,2284610.20353744,2284611.25062817,6,0,73,0,8
12,457,442.912490107119,1,0,2284612.74478986,2284613.79187982,6,1,97,4,0
12,458,398.360187653452,0,0,2284615.26251654,2284616.30959919,6,0,62,16,8
12,459,560.108464676887,1,0,2284617.75670055,2284618.8037882,6,1,78,16,4
12,460,678.262223023921,0,0,2284620.56854895,2284621.61563545,6,0,81,4,8
12,461,397.540220990777,0,0,2284623.43921824,2284624.48630859,6,0,75,4,0
12,462,582.159798592329,1,0,2284625.96871048,2284627.01579544,6,1,78,16,4
12,463,530.975004658103,0,0,2284628.61583563,2284629.66292483,6,0,84,8,16
12,464,492.523563560098,1,0,2284631.29827787,2284632.34535898,6,1,71,0,8
12,465,459.054673090577,1,0,2284633.88658253,2284634.93366903,6,1,83,8,4
12,466,417.641727253795,0,0,2284636.47500652,2284637.52198292,6,0,61,4,0
12,467,593.505368102342,0,0,2284639.1220335,2284640.16911615,6,0,77,8,8
12,468,608.95962594077,1,0,2284641.85152875,2284642.89861371,6,1,62,8,0
12,469,432.018479332328,1,0,2284644.6516089,2284645.69874929,6,1,75,4,0
12,470,509.243573062122,0,0,2284647.27521409,2284648.32230559,6,0,78,4,4
12,471,730.25197070092,1,0,2284650.02823931,2284651.07532196,6,1,90,8,8
12,472,458.9599724859,0,0,2284652.92243471,2284653.96953122,6,0,62,4,4
12,473,397.237641736865,0,0,2284655.5342855,2284656.58136238,6,0,75,8,0
12,474,548.392948228866,1,0,2284658.05198716,2284659.09908829,6,1,68,16,8
12,475,466.188384220004,0,0,2284660.79325413,2284661.84033909,6,0,93,4,16
12,476,471.639816649258,0,0,2284663.4756752,2284664.52277825,6,0,92,8,16
12,477,449.257031548768,0,0,2284666.00517591,2284667.05226433,6,0,68,0,4
12,478,439.298861194402,1,0,2284668.51112895,2284669.55821429,6,1,64,16,0
12,479,497.983850073069,0,0,2284671.15827026,2284672.20534637,6,0,70,0,4
12,480,516.435028519481,1,0,2284673.82892654,2284674.87602189,6,1,88,16,16
12,481,423.799178097397,1,0,2284687.98232732,2284689.02937841,7,1,65,16,0
12,482,441.21442688629,1,0,2284690.55883331,2284691.60591904,7,1,61,0,4
12,483,547.552193049341,1,0,2284693.22949844,2284694.27658917,7,1,89,0,16
12,484,482.45452484116,1,1,2284696.02958936,2284697.07666432,7,0,88,4,4
12,485,395.993832498789,1,0,2284698.75907614,2284699.80616226,7,1,85,4,0
12,486,436.833956278861,1,0,2284701.35920141,2284702.40624171,7,1,74,0,16
12,487,435.145902447402,1,1,2284704.02981919,2284705.07690184,7,0,65,0,0
12,488,669.299176894128,1,0,2284706.59459464,2284707.64168307,7,1,78,4,0
12,489,539.041091222316,0,0,2284709.44173588,2284710.48882431,7,0,90,4,16
12,490,519.806517288089,0,0,2284712.07710664,2284713.12419237,7,0,84,4,8
12,491,620.5003708601,1,0,2284714.7242622,2284715.77133638,7,1,63,16,0
12,492,510.654455516487,1,0,2284717.53609905,2284718.58317747,7,1,63,4,0
12,493,714.846987742931,1,0,2284720.25380603,2284721.30092255,7,1,68,8,0
12,494,439.840501639992,0,0,2284723.15978586,2284724.20687774,7,0,87,16,16
12,495,624.85350901261,0,0,2284725.66572811,2284726.71283771,7,0,100,0,8
12,496,505.947537254542,1,0,2284728.41876334,2284729.46585215,7,1,89,4,16
12,497,534.528579097241,1,0,2284731.10121905,2284732.14829362,7,1,98,0,4
12,498,364.170650020242,0,0,2284733.79538566,2284734.84248101,7,0,76,0,0
12,499,604.246164206415,0,0,2284736.24251859,2284737.28960701,7,0,97,8,0
12,500,615.943972487003,1,0,2284738.99554457,2284740.04263454,7,1,70,16,0
12,501,555.715290363878,1,0,2284741.78386994,2284742.83094489,7,1,96,16,4
12,502,421.787756960839,0,1,2284744.59575761,2284745.64280138,7,1,83,8,16
12,503,502.360856160522,1,0,2284747.17224627,2284748.21933624,7,1,86,4,4
12,504,549.71259413287,0,0,2284749.9017523,2284750.94883341,7,0,75,8,4
12,505,437.3016837053,1,0,2284752.58417567,2284753.63126756,7,1,76,0,0
12,506,491.363291628659,0,0,2284755.13718133,2284756.1842944,7,0,79,4,4
12,507,473.710136953741,0,0,2284757.80785993,2284758.85494412,7,0,73,0,4
12,508,460.520988795906,1,0,2284760.45501896,2284761.50208429,7,1,83,4,4
12,509,518.158114049584,1,0,2284763.14918827,2284764.19627823,7,1,65,8,8
12,510,614.667057525367,0,0,2284765.83162627,2284766.87870853,7,0,90,8,8
12,511,505.531394388527,1,0,2284768.63170873,2284769.67879176,7,1,95,16,8
12,512,411.401895340532,0,0,2284771.22001877,2284772.26710219,7,0,86,4,8
12,513,582.705673296005,0,0,2284773.7966056,2284774.84365053,7,0,100,8,16
12,514,657.759202178568,1,0,2284776.54958193,2284777.59667266,7,1,77,8,4
12,515,558.457752689719,1,0,2284779.44378772,2284780.49087384,7,1,77,0,4
12,516,621.294159907848,0,0,2284782.14974607,2284783.19683719,7,0,62,16,16
12,517,558.470455929637,1,0,2284784.85571212,2284785.90280016,7,1,92,4,0
12,518,477.638663258404,0,0,2284787.52638379,2284788.57346298,7,0,92,8,4
12,519,633.737253490835,1,0,2284790.17351472,2284791.22059929,7,1,76,16,4
12,520,611.772535834461,0,0,2284792.93830627,2284793.98538314,7,0,69,8,16
12,521,608.163141645491,0,0,2284795.71484836,2284796.76193871,7,0,100,4,16
12,522,494.425271172076,0,0,2284798.53846425,2284799.58554729,7,0,100,16,4
12,523,515.673961024731,0,0,2284801.24441991,2284802.29151295,7,0,100,16,0
12,524,532.697704620659,1,0,2284803.95038365,2284804.99746976,7,1,76,0,8
12,525,438.348777592182,1,0,2284806.64457797,2284807.69166948,7,1,95,0,0
12,526,388.557541649789,0,0,2284809.20936421,2284810.25645148,7,0,77,0,4
12,527,438.453102018684,1,0,2284811.70355823,2284812.75065551,7,1,97,16,16
12,528,450.485826935619,0,1,2284814.22127374,2284815.26836217,7,1,84,16,4
12,529,397.144481539726,0,0,2284816.90370174,2284817.95079555,7,0,96,4,8
12,530,512.56039692089,0,0,2284819.48024699,2284820.52734158,7,0,66,8,16
12,531,512.015291955322,0,0,2284822.1626823,2284823.20977265,7,0,78,16,16
12,532,642.544775269926,1,0,2284824.89220257,2284825.93927098,7,1,90,8,16
12,533,467.189283110201,1,0,2284827.62166741,2284828.66875583,7,1,99,0,8
12,534,421.653020661324,0,0,2284830.16291905,2284831.2100017,7,0,97,16,8
12,535,432.520083617419,0,1,2284832.79828827,2284833.84537169,7,1,65,16,16
12,536,810.663771349937,0,0,2284835.41012943,2284836.45721863,7,0,100,8,0
12,537,556.139517575502,1,0,2284838.30433292,2284839.35141673,7,1,92,4,8
12,538,477.599012199789,0,0,2284841.0809343,2284842.12797499,7,0,87,16,8
12,539,486.501234583557,1,0,2284843.66919738,2284844.71627888,7,1,66,4,4
12,540,447.505843825638,0,0,2284846.38692399,2284847.4340101,7,0,76,16,0
12,541,413.411006331444,0,0,2284849.08111908,2284850.12820597,7,0,75,0,8
12,542,557.755198795348,1,0,2284851.64590493,2284852.69298373,7,1,83,4,0
12,543,483.707188162953,1,0,2284854.25774995,2284855.30481797,7,1,77,0,16
12,544,540.647533722222,1,0,2284856.95193658,2284857.99902038,7,1,99,8,0
12,545,718.23618421331,0,0,2284859.58733004,2284860.63439807,7,0,80,4,16
12,546,521.263594273478,0,0,2284862.44621991,2284863.4933041,7,0,99,0,8
12,547,620.990425813943,1,0,2284865.1404127,2284866.18750766,7,1,100,8,4
12,548,672.164826188236,0,0,2284867.85813661,2284868.90522734,7,0,81,8,0
12,549,716.692105866969,1,0,2284870.63468371,2284871.68177945,7,1,69,8,4
12,550,537.736073601991,1,0,2284873.55247991,2284874.59951598,7,1,95,4,8
12,551,543.266037944704,1,0,2284876.2348517,2284877.28193859,7,1,69,8,8
12,552,511.705783661455,0,0,2284878.90556341,2284879.95260564,7,0,66,8,8
12,553,653.129276819527,0,0,2284881.63501092,2284882.68209781,7,0,81,16,8
12,554,431.783268228173,1,0,2284884.5175039,2284885.56453497,7,1,77,0,16
12,555,679.295073263347,0,0,2284887.09399603,2284888.14107752,7,0,90,4,16
12,556,485.787516925484,0,0,2284889.97645397,2284891.02352238,7,0,68,0,0
12,557,477.003092877567,1,1,2284892.60003991,2284893.64712333,7,0,74,16,4
12,558,823.873706161976,0,0,2284895.24717353,2284896.29426966,7,0,81,8,8
12,559,813.062077853829,0,0,2284898.25902879,2284899.30611799,7,0,63,16,8
12,560,546.35804425925,0,0,2284901.1297077,2284902.1767865,7,0,68,0,16
12,561,500.161959324032,0,0,2284926.57756897,2284927.62459657,8,0,85,4,4
12,562,440.037216059864,1,0,2284929.27170363,2284930.3187909,8,1,97,0,8
12,563,430.9286554344,0,0,2284931.91884033,2284932.96593029,8,0,87,0,16
12,564,367.089423816651,0,0,2284934.58958091,2284935.63659042,8,0,95,0,16
12,565,405.512762721628,0,0,2284937.15429015,2284938.20137896,8,0,76,0,16
12,566,525.778416544199,0,0,2284939.77795386,2284940.82498261,8,0,99,8,4
12,567,596.058429218829,1,0,2284942.4956154,2284943.54270614,8,1,72,4,8
12,568,747.429698705673,1,0,2284945.33099801,2284946.37808451,8,1,70,0,4
12,569,448.177985846996,0,0,2284948.166371,2284949.2134625,8,0,75,16,16
12,570,453.596311621368,1,0,2284950.75472762,2284951.80186455,8,1,78,0,8
12,571,481.707315891981,1,0,2284953.30770172,2284954.35478552,8,1,79,4,8
12,572,579.022366553545,0,0,2284956.02542678,2284957.07251367,8,0,91,0,8
12,573,466.108697466552,1,0,2284958.83727634,2284959.88435399,8,1,68,8,0
12,574,551.736333873123,0,0,2284961.42562026,2284962.47272794,8,0,63,0,4
12,575,404.643520712852,1,0,2284964.17860275,2284965.22569271,8,1,66,4,4
12,576,643.464831635356,0,0,2284966.71985131,2284967.76693935,8,0,92,8,8
12,577,482.469153124839,1,0,2284969.47288038,2284970.51996419,8,1,73,4,16
12,578,779.285603202879,0,0,2284972.12000976,2284973.16710319,8,0,99,8,0
12,579,595.284272916615,1,0,2284975.13186926,2284976.17895422,8,1,100,16,0
12,580,584.316350053996,1,0,2284977.83783107,2284978.88491988,8,1,69,0,16
12,581,709.603049792349,0,0,2284980.55555575,2284981.60264456,8,0,92,8,16
12,582,400.920948013663,0,0,2284983.33210863,2284984.37919166,8,0,65,4,0
12,583,630.215245764703,0,0,2284985.83805897,2284986.88514662,8,0,81,16,0
12,584,512.570020742714,1,0,2284988.61461454,2284989.66170373,8,1,86,4,16
12,585,468.239841517061,0,0,2284991.26175124,2284992.30884158,8,0,96,8,4
12,586,509.205077309161,0,0,2284993.96771613,2284995.01480032,8,0,74,4,0
12,587,574.738906230778,0,0,2284996.68543773,2284997.73252846,8,0,94,4,0
12,588,386.877187527716,1,0,2284999.45024391,2285000.49732078,8,1,85,16,0
12,589,557.283621747047,0,0,2285001.93265273,2285002.97973461,8,0,95,8,16
12,590,675.687604118139,1,0,2285004.70920329,2285005.75632752,8,1,72,4,8
12,591,512.380235362798,1,0,2285007.63869731,2285008.68579112,8,1,82,16,8
12,592,622.977979015559,1,0,2285010.27407538,2285011.32116342,8,1,78,8,16
12,593,633.282229304314,0,0,2285013.14474081,2285014.1918354,8,0,81,16,16
12,594,597.5959636271,1,0,2285016.02720453,2285017.07426832,8,1,93,8,16
12,595,465.13744071126,1,0,2285018.70960943,2285019.75669708,8,1,94,0,4
12,596,448.378550354391,0,0,2285021.36852208,2285022.41561628,8,0,85,16,16
12,597,501.874265260994,0,0,2285023.95682404,2285025.00398292,8,0,77,16,4
12,598,501.827685162425,1,0,2285026.60397422,2285027.65109305,8,1,91,4,8
12,599,449.462985619903,1,0,2285029.28638835,2285030.3334814,8,1,64,0,4
12,600,359.551118686795,1,0,2285031.89823067,2285032.94532372,8,1,75,8,0
12,601,457.199160940945,0,0,2285034.33359303,2285035.38068685,8,0,78,8,8
12,602,626.488823443651,1,0,2285036.85131587,2285037.89840275,8,1,98,16,4
12,603,539.967692457139,0,0,2285039.59257899,2285040.63966125,8,0,92,8,4
12,604,541.782783344388,1,0,2285042.22795821,2285043.27503778,8,1,68,4,0
12,605,533.399488776922,0,0,2285044.92214253,2285045.96923018,8,0,78,4,8
12,606,620.799485594034,1,0,2285047.69870079,2285048.74578228,8,1,64,8,4
12,607,387.067358009517,0,0,2285050.36935629,2285051.41645203,8,0,65,0,16
12,608,371.78941257298,1,0,2285052.86355185,2285053.91064374,8,1,85,0,8
12,609,624.658333603293,1,0,2285055.40480042,2285056.45188807,8,1,92,16,4
12,610,395.731289405376,0,0,2285058.21665922,2285059.26373763,8,0,87,0,0
12,611,609.139017760754,1,0,2285060.73437474,2285061.78146008,8,1,98,4,4
12,612,483.470052015036,1,0,2285063.46386498,2285064.51095263,8,1,100,8,8
12,613,442.062110640109,0,0,2285066.04040754,2285067.08756333,8,0,85,0,0
12,614,589.001324493438,0,0,2285068.69931134,2285069.74639514,8,0,71,16,8
12,615,502.56989011541,0,0,2285071.42880235,2285072.47589116,8,0,62,16,4
12,616,518.975001294166,0,0,2285074.00535261,2285075.052493,8,0,90,0,4
12,617,368.362490087748,0,0,2285076.62895972,2285077.67604276,8,0,76,0,0
12,618,490.762752015144,0,0,2285079.15844812,2285080.20552923,8,0,89,4,4
12,619,398.737834766507,0,0,2285081.85266439,2285082.89972663,8,0,96,8,8
12,620,422.768252436072,0,0,2285084.41742329,2285085.46450632,8,0,65,4,16
12,621,422.338251024485,0,0,2285086.94690475,2285087.99398856,8,0,86,0,0
12,622,499.006306286901,0,0,2285089.59403799,2285090.64112372,8,0,62,4,0
12,623,473.308237735182,0,1,2285092.15890314,2285093.20591226,8,1,70,16,8
12,624,384.669051505625,0,0,2285094.73537333,2285095.78245944,8,0,65,16,16
12,625,401.066463440657,0,0,2285097.35897505,2285098.40605539,8,0,63,0,8
12,626,505.545638035983,1,0,2285099.84139696,2285100.88848731,8,1,75,4,16
12,627,534.132454078645,1,0,2285102.52382496,2285103.57092609,8,1,62,0,0
12,628,490.679216105491,1,0,2285105.3003786,2285106.34746857,8,1,66,8,8
12,629,637.132224161178,0,0,2285107.87692809,2285108.92401767,8,0,91,16,0
12,630,489.841540809721,1,0,2285110.62994946,2285111.67708292,8,1,67,8,0
12,631,596.198169980198,1,0,2285113.24179332,2285114.28887866,8,1,93,4,16
12,632,482.304004952312,1,0,2285115.9006952,2285116.94777631,8,1,86,16,16
12,633,912.366607226431,1,0,2285118.5125406,2285119.55962402,8,1,83,4,4
12,634,404.213134199381,1,0,2285121.55969524,2285122.60676865,8,1,74,16,8
12,635,573.545527178794,1,0,2285124.07740575,2285125.12449225,8,1,78,8,16
12,636,511.650734115392,1,0,2285126.7951262,2285127.84221732,8,1,62,16,8
12,637,456.499686930329,1,0,2285129.44226636,2285130.48935748,8,1,77,16,0
12,638,533.984244335443,0,0,2285132.07763403,2285133.12472438,8,0,66,16,4
12,639,625.954882241786,1,0,2285134.81890446,2285135.86598288,8,1,61,8,0
12,640,475.176068022847,0,0,2285137.68956798,2285138.73666063,8,0,80,8,4
12,641,552.493167109787,0,0,2285163.05500718,2285164.1020933,9,0,78,0,8
12,642,440.503018908203,0,0,2285165.81979757,2285166.866891,9,0,84,0,0
12,643,425.418323837221,1,0,2285168.51399767,2285169.56108379,9,1,75,4,8
12,644,409.027071204036,0,0,2285171.05524316,2285172.10233159,9,0,95,4,16
12,645,428.598486352712,1,0,2285173.67885913,2285174.72593909,9,1,74,0,16
12,646,559.673074167222,1,0,2285176.30249974,2285177.34955198,9,1,81,4,0
12,647,449.342877604067,0,0,2285179.07901373,2285180.126101,9,0,88,0,8
12,648,476.514192298055,1,0,2285181.59672887,2285182.64381883,9,1,92,4,8
12,649,440.022203139961,1,0,2285184.22034483,2285185.26743403,9,1,83,4,16
12,650,404.137297067791,0,0,2285186.84394387,2285187.89103537,9,0,89,0,8
12,651,491.395243443549,1,0,2285189.36166747,2285190.40875589,9,1,73,8,4
12,652,400.158725678921,1,0,2285191.9970336,2285193.04412202,9,1,86,8,16
12,653,458.947268780321,1,0,2285194.49123031,2285195.53831412,9,1,94,0,8
12,654,405.669441446662,0,0,2285197.09131015,2285198.13839011,9,0,100,0,16
12,655,451.052104588598,0,0,2285199.56196612,2285200.60905147,9,0,97,16,16
12,656,964.546141214669,1,0,2285202.19737344,2285203.24442761,9,1,88,4,8
12,657,555.008886847645,1,1,2285205.2680134,2285206.31509797,9,0,71,8,0
12,658,452.618895564228,1,0,2285208.05640574,2285209.10341987,9,1,95,4,0
12,659,515.494953840971,1,0,2285210.70347007,2285211.75054579,9,1,91,16,16
12,660,501.269876491278,0,0,2285213.350606,2285214.3976898,9,0,93,16,0
12,661,495.847702026367,0,0,2285215.93891296,2285216.98600447,9,0,73,4,4
12,662,604.296208824962,1,0,2285218.56251969,2285219.60961004,9,1,92,8,0
12,663,741.850074846298,1,0,2285221.38613559,2285222.43322093,9,1,69,0,0
12,664,537.285669241101,1,0,2285224.22151627,2285225.26859854,9,1,70,8,0
12,665,490.558337885886,0,0,2285226.83343212,2285227.88043662,9,0,64,16,0
12,666,368.162310216576,1,0,2285229.52755369,2285230.5746348,9,1,96,0,4
12,667,411.669058259577,0,0,2285232.10409548,2285233.15118005,9,0,75,16,8
12,668,391.606047749519,1,0,2285234.6100489,2285235.65713463,9,1,78,8,8
12,669,405.088920611888,1,0,2285237.1396012,2285238.18662572,9,1,64,4,16
12,670,389.539192430675,1,0,2285239.66901683,2285240.71610603,9,1,76,8,4
12,671,505.903267301619,1,0,2285242.13967896,2285243.18682782,9,1,81,4,0
12,672,634.54259140417,0,0,2285244.86916689,2285245.91626494,9,0,90,0,0
12,673,493.662278167903,1,0,2285247.69278702,2285248.73987429,9,1,70,0,0
12,674,705.566734075546,0,0,2285250.38697827,2285251.43406053,9,0,98,16,16
12,675,523.982573766261,0,0,2285253.25765602,2285254.30474675,9,0,88,16,4
12,676,596.561188343912,0,0,2285255.99890567,2285257.04601103,9,0,73,8,4
12,677,401.505703572184,1,0,2285258.79898889,2285259.84608271,9,1,76,8,16
12,678,458.573856856674,1,0,2285261.31677679,2285262.36380169,9,1,74,0,4
12,679,753.156378399581,0,0,2285263.98738147,2285265.03446951,9,0,93,4,4
12,680,679.058322217315,0,0,2285266.94041123,2285267.98749388,9,0,61,16,4
12,681,537.236779462546,0,0,2285269.85814546,2285270.90522696,9,0,99,4,4
12,682,604.759316891432,0,0,2285272.63469064,2285273.68178099,9,0,83,4,4
12,683,655.05908569321,1,0,2285275.36418742,2285276.41127508,9,1,63,8,8
12,684,440.811372827739,1,0,2285278.19961161,2285279.24664306,9,1,75,8,16
12,685,685.061403084546,0,0,2285280.7290515,2285281.7761457,9,0,70,16,8
12,686,497.682041022927,1,0,2285283.61148942,2285284.65857438,9,1,97,4,16
12,687,467.369829304516,1,0,2285286.34097505,2285287.38806309,9,1,89,4,8
12,688,464.880672283471,1,0,2285288.97638352,2285290.02344462,9,1,71,0,16
12,689,628.15955420956,0,0,2285291.59995176,2285292.64704326,9,0,91,0,0
12,690,540.813066530973,0,0,2285294.2941457,2285295.34124221,9,0,93,16,8
12,691,639.014682732522,1,0,2285297.0589384,2285298.10602721,9,1,89,16,0
12,692,613.567223772407,0,0,2285299.83548974,2285300.88257239,9,0,93,0,4
12,693,456.597466953099,1,1,2285302.64733699,2285303.69441848,9,0,79,8,4
12,694,669.112856034189,1,0,2285305.27093602,2285306.31802329,9,1,81,4,8
12,695,727.647709660232,1,0,2285308.00043319,2285309.04752777,9,1,100,8,0
12,696,562.094093766063,0,0,2285310.8358081,2285311.88289652,9,0,83,0,4
12,697,399.092383682728,0,0,2285313.49470497,2285314.54180341,9,0,94,0,16
12,698,572.888399008662,0,0,2285316.14184552,2285317.18893972,9,0,69,16,0
12,699,695.362573955208,0,0,2285318.90663206,2285319.95371818,9,0,100,0,16
12,700,781.83173481375,1,0,2285321.68318917,2285322.73027259,9,1,88,8,0
12,701,632.918056566268,1,0,2285324.60092109,2285325.6480303,9,1,62,8,16
12,702,547.756222542375,1,0,2285327.44812393,2285328.49513998,9,1,79,0,8
12,703,648.132868576795,0,0,2285330.17760031,2285331.22463484,9,0,90,8,16
12,704,466.903256718069,1,0,2285333.02469766,2285334.07177839,9,1,87,16,4
12,705,474.820748902857,0,0,2285335.62477327,2285336.67190751,9,0,88,8,8
12,706,631.785885896534,1,0,2285338.17778663,2285339.22487967,9,1,63,8,4
12,707,498.128210194409,0,0,2285341.0013979,2285342.0484844,9,0,86,16,16
12,708,656.856083776802,0,0,2285343.74265486,2285344.78974521,9,0,69,16,4
12,709,503.494566306472,0,0,2285346.56626267,2285347.61335456,9,0,97,16,8
12,710,506.22316962108,1,0,2285349.16634136,2285350.21342516,9,1,89,16,16
12,711,497.343659866601,0,0,2285351.8723024,2285352.91940353,9,0,66,4,16
12,712,525.762632954866,1,0,2285354.55473578,2285355.60185385,9,1,90,16,4
12,713,442.81124509871,0,0,2285357.26070568,2285358.30778333,9,0,73,4,0
12,714,568.73813457787,0,0,2285359.86081324,2285360.9078624,9,0,75,16,8
12,715,542.220869101584,0,0,2285362.59026884,2285363.63735726,9,0,61,4,4
12,716,468.78340607509,0,0,2285365.22563535,2285366.27272339,9,0,69,4,0
12,717,558.53281961754,1,1,2285367.87276743,2285368.91986548,9,0,90,16,0
12,718,595.799735281616,1,0,2285370.5904975,2285371.63759016,9,1,98,8,8
12,719,561.812302097678,1,0,2285373.39059382,2285374.43767339,9,1,70,0,4
12,720,691.318943630904,1,0,2285376.17889609,2285377.22598759,9,1,70,8,8
