sub_id,Trial,RT,Resp,Error,Fix_onset,Disp_onset,block,tid,tloc,fish_setsize,bird_setsize
35,1,626.691999845207,1,0,2546455.19095199,2546456.23804696,1,1,94,4,4
35,2,577.445484232157,0,0,2546457.88514439,2546458.93225245,1,0,66,16,4
35,3,594.987000338733,0,0,2546460.72053124,2546461.7676647,1,0,96,16,4
35,4,493.130564223975,1,0,2546463.48531547,2546464.53239389,1,1,99,4,0
35,5,515.237332787365,0,0,2546466.14420888,2546467.19130462,1,0,86,16,4
35,6,541.042420547456,1,0,2546468.89722562,2546469.94433099,1,1,88,4,0
35,7,600.054626818746,0,0,2546471.54437426,2546472.59145652,1,0,79,16,0
35,8,634.147923905402,0,0,2546474.30916042,2546475.35625769,1,0,63,16,16
35,9,618.452680762857,0,0,2546477.13276976,2546478.1798528,1,0,87,8,0
35,10,482.6122764498,1,0,2546479.83873851,2546480.88580845,1,1,84,0,16
35,11,577.037425711751,0,0,2546482.56821912,2546483.61530986,1,0,77,0,16
35,12,656.044503673911,0,0,2546485.33300875,2546486.38009833,1,0,84,4,8
35,13,629.833666142076,0,0,2546488.07426917,2546489.12138762,1,0,81,16,0
35,14,645.107377786189,1,0,2546490.79197807,2546491.83907458,1,1,98,0,4
35,15,583.796570077538,0,1,2546493.5332435,2546494.58033847,1,1,92,16,8
35,16,710.32553864643,1,0,2546496.16861694,2546497.21570075,1,1,70,8,8
35,17,586.41584450379,0,0,2546499.02752683,2546500.07461679,1,0,89,0,16
35,18,585.948886815459,1,0,2546501.80407816,2546502.8511585,1,1,100,8,8
35,19,614.664279855788,0,0,2546504.45123719,2546505.49834832,1,0,71,8,4
35,20,544.863543473184,0,0,2546507.21599794,2546508.26308906,1,0,62,0,8
35,21,661.850484553725,0,0,2546509.95725952,2546511.00433177,1,0,93,16,0
35,22,676.36813223362,0,0,2546512.8396882,2546513.88677355,1,0,95,16,16
35,23,551.338201854378,0,0,2546515.74567612,2546516.79274452,1,0,77,4,16
35,24,631.729599554092,1,0,2546518.3810257,2546519.42810796,1,1,70,0,0
35,25,581.371316220611,1,0,2546521.21638521,2546522.26349404,1,1,97,8,4
35,26,611.016389913857,0,0,2546523.89883515,2546524.9459178,1,0,85,8,0
35,27,513.468437362462,1,0,2546526.62834926,2546527.67541959,1,1,89,0,16
35,28,602.506057824939,1,0,2546529.28721956,2546530.33430453,1,1,73,4,8
35,29,448.558244854212,0,1,2546531.9931756,2546533.0402621,1,1,69,16,8
35,30,608.159979339689,0,0,2546534.5814895,2546535.62858947,1,0,95,8,4
35,31,540.705964900553,0,0,2546537.25215655,2546538.29924382,1,0,78,8,16
35,32,454.837727826089,0,0,2546539.87576136,2546540.92285787,1,0,65,8,8
35,33,439.965531229973,1,0,2546542.58172625,2546543.62884894,1,1,76,4,16
35,34,634.760781656951,0,0,2546545.13479042,2546546.18182996,1,0,88,0,0
35,35,593.821338843554,1,0,2546547.88775635,2546548.93490945,1,1,63,8,16
35,36,688.940957188606,0,0,2546550.69959321,2546551.74670704,1,0,91,4,0
35,37,572.761279065162,0,0,2546553.49974458,2546554.54677641,1,0,77,8,16
35,38,518.871364183724,1,0,2546556.2056525,2546557.25272591,1,1,62,4,0
35,39,503.121841698885,1,0,2546558.87631108,2546559.92339489,1,1,61,16,16
35,40,377.944855485111,0,0,2546561.4763813,2546562.52347473,1,0,62,4,8
35,41,492.324841208756,1,0,2546563.99411106,2546565.04119332,1,1,91,8,16
35,42,372.759816702455,0,0,2546566.66476887,2546567.71185961,1,0,81,8,0
35,43,677.196568343788,0,0,2546569.10013431,2546570.1472262,1,0,83,8,0
35,44,415.06394604221,1,0,2546571.8531499,2546572.90024564,1,1,73,0,8
35,45,409.659094642848,1,0,2546574.47675971,2546575.52385122,1,1,74,4,8
35,46,637.095955200493,1,0,2546577.0650763,2546578.11216203,1,1,77,16,16
35,47,671.814429573715,1,0,2546579.90044505,2546580.9476047,1,1,90,16,4
35,48,606.22516553849,1,0,2546582.82993522,2546583.87703096,1,1,91,16,0
35,49,502.366547938436,0,0,2546585.59476295,2546586.64181981,1,0,96,0,8
35,50,486.85493087396,1,0,2546588.31246377,2546589.35954141,1,1,64,8,4
35,51,669.256748631597,0,0,2546591.04196017,2546592.08903627,1,0,77,8,8
35,52,608.478342182934,0,0,2546593.86556105,2546594.91264293,1,0,81,16,0
35,53,443.092184141278,0,0,2546596.68916,2546597.7362592,1,0,62,4,4
35,54,693.921967409551,0,0,2546599.19512497,2546600.24227807,1,0,96,8,8
35,55,521.303932182491,0,0,2546602.12462245,2546603.17171087,1,0,72,4,4
35,56,571.608706377447,1,0,2546604.88940899,2546605.93649819,1,1,72,4,16
35,57,667.634523008019,0,0,2546607.68948529,2546608.73657911,1,0,86,16,8
35,58,662.549573928118,1,0,2546610.48956583,2546611.53665348,1,1,90,0,8
35,59,683.052209671587,1,0,2546613.23082471,2546614.27791429,1,1,99,0,0
35,60,737.904142122716,0,0,2546616.01914584,2546617.06624889,1,0,68,16,8
35,61,564.418020192534,1,0,2546619.00745073,2546620.05454647,1,1,89,16,16
35,62,652.81237103045,0,0,2546621.73695598,2546622.78405403,1,0,77,4,4
35,63,489.1716260463,0,0,2546624.51350193,2546625.56058843,1,0,87,16,4
35,64,464.868270792067,0,0,2546627.14886537,2546628.19600999,1,0,100,0,4
35,65,735.890411306173,1,0,2546629.74900834,2546630.79610331,1,1,69,4,16
35,66,565.128273330629,0,0,2546632.57258882,2546633.61966839,1,0,85,8,0
35,67,497.422109358013,0,0,2546635.23146567,2546636.27855024,1,0,65,0,16
35,68,557.79900169,0,0,2546637.80804249,2546638.85509511,1,0,80,4,8
35,69,499.545554164797,1,0,2546640.608093,2546641.65517295,1,1,81,0,4
35,70,769.975239876658,1,0,2546643.23169049,2546644.27884435,1,1,99,4,4
35,71,725.889510475099,1,0,2546646.0905996,2546647.13769072,1,1,69,16,8
35,72,548.720852006227,1,0,2546648.92602455,2546649.97308834,1,1,81,0,4
35,73,577.686084900051,1,0,2546651.58487869,2546652.6319675,1,1,69,8,4
35,74,547.242217231542,1,0,2546654.31436509,2546655.36145967,1,1,97,4,0
35,75,501.575453206897,1,0,2546656.9968516,2546658.04388459,1,1,62,0,0
35,76,523.81695760414,1,0,2546659.70282111,2546660.74984717,1,1,88,0,4
35,77,476.636527106166,1,0,2546662.45577973,2546663.50286777,1,1,82,0,8
35,78,522.172404453158,0,0,2546665.18527613,2546666.23235454,1,0,83,0,0
35,79,647.143051028252,1,0,2546667.78533711,2546668.832434,1,1,80,4,16
35,80,720.812260638922,1,0,2546670.52660677,2546671.57368903,1,1,99,8,16
35,81,585.72522457689,1,0,2546685.55056019,2546686.59765747,2,1,90,8,8
35,82,840.242548845708,0,0,2546688.291821,2546689.33891251,2,0,88,8,4
35,83,681.530458852649,1,0,2546691.35073196,2546692.39782,2,1,91,16,16
35,84,523.733036126941,1,0,2546694.28021867,2546695.32735059,2,1,76,4,16
35,85,535.826969891787,1,0,2546696.97442724,2546698.02151104,2,1,92,16,8
35,86,615.639000665396,1,0,2546699.57450477,2546700.62158973,2,1,70,8,16
35,87,597.262119874358,0,0,2546702.40987621,2546703.45696194,2,0,93,8,4
35,88,460.109767969698,1,0,2546705.05700136,2546706.10410134,2,1,73,0,8
35,89,762.035420164466,0,0,2546707.66885485,2546708.71594712,2,0,70,4,8
35,90,544.819657690823,1,0,2546710.56305911,2546711.61018295,2,1,99,0,16
35,91,488.765877205879,1,0,2546713.21019119,2546714.25728654,2,1,93,16,4
35,92,635.762834921479,0,0,2546715.77497511,2546716.82212436,2,0,69,16,16
35,93,621.534678153694,0,0,2546718.51622283,2546719.56331395,2,0,97,0,4
35,94,439.542843960226,0,0,2546721.3163384,2546722.3633968,2,0,78,0,8
35,95,669.35298871249,1,0,2546723.91638667,2546724.96347433,2,1,62,8,16
35,96,680.991128552705,0,0,2546726.79887387,2546727.84591918,2,0,99,16,4
35,97,540.949645452201,1,0,2546729.59889782,2546730.64599163,2,1,84,4,8
35,98,457.296473439783,1,0,2546732.3754888,2546733.42256337,2,1,92,0,0
35,99,515.878292731941,1,0,2546734.90495718,2546735.95209296,2,1,95,4,16
35,100,423.398736398667,0,0,2546737.5403083,2546738.58739249,2,0,85,0,8
35,101,568.218355067074,1,0,2546740.03448653,2546741.08158728,2,1,99,0,4
35,102,474.62703101337,1,0,2546742.76398833,2546743.81108022,2,1,61,0,0
35,103,464.253873098642,0,0,2546745.35230492,2546746.39938641,2,0,72,8,8
35,104,570.044994819909,0,0,2546747.99944431,2546749.0465285,2,0,94,0,0
35,105,449.528731405735,0,0,2546750.7289257,2546751.77601451,2,0,91,4,4
35,106,511.861225124449,0,0,2546753.38783296,2546754.43490984,2,0,91,16,8
35,107,467.034830711782,1,0,2546756.10554956,2546757.15264414,2,1,74,16,0
35,108,549.923855345696,0,0,2546758.81151291,2546759.85860249,2,0,92,16,0
35,109,450.031875167042,0,0,2546761.57630369,2546762.62338942,2,0,84,0,16
35,110,375.939978752285,0,0,2546764.27049763,2546765.31764726,2,0,95,0,16
35,111,781.891321763396,0,0,2546766.72938803,2546767.77648223,2,0,70,8,0
35,112,447.501141577959,0,0,2546769.75300462,2546770.80009381,2,0,95,0,0
35,113,406.24179597944,0,0,2546772.353081,2546773.4001752,2,0,86,16,16
35,114,742.659565061331,1,0,2546774.92963279,2546775.97671198,2,1,100,16,0
35,115,582.60819548741,0,0,2546777.77677288,2546778.82385938,2,0,99,8,8
35,116,360.654719173908,0,0,2546780.54161871,2546781.588644,2,0,84,4,16
35,117,437.399766407907,0,0,2546782.97690985,2546784.02401329,2,0,62,4,16
35,118,531.903062481433,1,0,2546785.50645329,2546786.55350053,2,1,66,8,16
35,119,629.542635753751,1,0,2546788.15354033,2546789.20062953,2,1,94,16,0
35,120,446.265801787376,1,0,2546790.98892217,2546792.03600251,2,1,64,4,0
35,121,552.111203316599,1,0,2546793.68311111,2546794.73019915,2,1,90,4,8
35,122,519.034202676266,1,1,2546796.38906984,2546797.43616635,2,0,71,4,4
35,123,644.1565239802,1,0,2546799.00091409,2546800.04800367,2,1,88,4,0
35,124,842.759808991104,0,0,2546801.73040125,2546802.77749237,2,0,79,16,16
35,125,477.89842961356,0,0,2546804.6952905,2546805.74229231,2,0,94,0,4
35,126,669.842274393886,1,0,2546807.40122421,2546808.44824489,2,1,81,4,8
35,127,496.795392595232,1,0,2546810.26005441,2546811.30721213,2,1,84,0,8
35,128,399.759438354522,0,0,2546812.81308009,2546813.86017044,2,0,94,8,0
35,129,690.110468771309,0,0,2546815.37786594,2546816.42494397,2,0,69,4,0
35,130,620.603072457016,1,0,2546818.30735918,2546819.35444568,2,1,94,8,16
35,131,523.909348063171,0,0,2546821.02510696,2546822.07217806,2,0,96,8,16
35,132,453.623561188579,0,0,2546823.73109033,2546824.778188,2,0,95,0,16
35,133,528.614340815693,0,0,2546826.27229116,2546827.3193792,2,0,73,4,4
35,134,610.327309463173,0,0,2546829.06065349,2546830.10770111,2,0,89,8,8
35,135,518.96144496277,1,0,2546831.84893112,2546832.896013,2,1,66,0,16
35,136,691.808916628361,0,0,2546834.4490125,2546835.49609053,2,0,95,8,0
35,137,568.139052949846,0,0,2546837.37849496,2546838.42558916,2,0,80,16,8
35,138,653.837907128036,1,0,2546840.06092373,2546841.10801408,2,1,78,8,0
35,139,540.808749385178,1,0,2546842.82580228,2546843.87287145,2,1,82,8,8
35,140,487.388872075826,1,0,2546845.44932278,2546846.49640697,2,1,72,4,16
35,141,507.356797344983,1,0,2546848.1552842,2546849.20236762,2,1,89,0,8
35,142,357.559247873724,1,1,2546850.76712075,2546851.81420879,2,0,69,4,0
35,143,702.635173685849,1,0,2546853.27307417,2546854.32016645,2,1,79,8,0
35,144,510.662071872503,1,0,2546856.03786534,2546857.08493798,2,1,86,4,4
35,145,704.654294066131,0,0,2546858.7908867,2546859.8379682,2,0,88,4,4
35,146,768.474661745131,1,0,2546861.6850848,2546862.7321713,2,1,95,4,0
35,147,497.671179007739,0,0,2546864.64992131,2546865.69699049,2,0,69,0,4
35,148,616.232611238956,1,0,2546867.28524664,2546868.33233276,2,1,61,16,4
35,149,665.740515571088,0,0,2546870.12065966,2546871.16775271,2,0,81,16,8
35,150,519.152770284563,1,0,2546872.99128968,2546874.03837888,2,1,65,8,4
35,151,639.456151053309,0,0,2546875.70901244,2546876.75612319,2,0,92,16,16
35,152,481.991333886981,1,0,2546878.59146345,2546879.63854225,2,1,87,16,4
35,153,483.648591209203,1,0,2546881.33271733,2546882.37980576,2,1,85,16,4
35,154,537.814908195287,1,0,2546883.89750126,2546884.94459931,2,1,83,16,0
35,155,679.648769553751,1,0,2546886.6034469,2546887.65055688,2,1,80,0,0
35,156,516.439950559288,0,0,2546889.34471387,2546890.39179575,2,0,94,4,8
35,157,488.009813707322,0,0,2546891.93302237,2546892.98012119,2,0,74,8,4
35,158,754.964841995388,1,0,2546894.47427325,2546895.52136322,2,1,77,0,4
35,159,512.331262230873,0,0,2546897.40381693,2546898.45085646,2,0,63,8,4
35,160,658.427027054131,1,0,2546900.00384249,2546901.05093053,2,1,98,16,8
35,161,438.199330121279,0,0,2546919.0867523,2546920.13384034,3,0,75,0,0
35,162,591.436120681465,0,0,2546921.71035633,2546922.75744861,3,0,95,16,0
35,163,478.293398860842,0,0,2546924.40455567,2546925.45164178,3,0,79,0,16
35,164,486.781018320471,0,0,2546926.99286225,2546928.04002189,3,0,99,4,8
35,165,578.393642790616,0,0,2546929.67529101,2546930.72238406,3,0,65,4,0
35,166,739.986395929009,1,0,2546932.34602351,2546933.39305342,3,1,78,8,4
35,167,651.701373979449,0,0,2546935.19310084,2546936.24019042,3,0,63,16,8
35,168,510.492303874344,1,0,2546937.99318138,2546939.04027519,3,1,75,4,4
35,169,445.981316268444,1,0,2546940.56973048,2546941.61681005,3,1,75,4,8
35,170,440.139918588102,0,0,2546943.07568352,2546944.12277464,3,0,64,8,8
35,171,490.333823021501,1,0,2546945.65222954,2546946.69931181,3,1,83,8,8
35,172,461.463675834239,0,0,2546948.31112911,2546949.35821561,3,0,86,4,0
35,173,527.641930151731,1,0,2546950.92297143,2546951.970056,3,1,78,16,16
35,174,529.780002776533,1,0,2546953.62893401,2546954.67601512,3,1,79,0,0
35,175,567.657852079719,1,0,2546956.33489044,2546957.38197732,3,1,70,16,4
35,176,431.3058340922,0,0,2546959.07615201,2546960.12323389,3,0,75,16,8
35,177,394.838867243379,0,0,2546961.6997599,2546962.74684178,3,0,75,8,16
35,178,439.502422697842,0,0,2546964.2880584,2546965.33515259,3,0,96,8,4
35,179,571.757301222533,1,0,2546966.81755372,2546967.86465408,3,1,76,16,16
35,180,600.499256514013,1,0,2546969.45292717,2546970.50000789,3,1,93,16,4
35,181,651.269062422216,0,0,2546972.25300616,2546973.30008997,3,0,89,4,8
35,182,611.969167832285,0,0,2546975.13543562,2546976.18258179,3,0,93,8,16
35,183,463.74764945358,1,0,2546977.92374789,2546978.97083863,3,1,68,16,8
35,184,486.056522000581,1,0,2546980.55912866,2546981.60621246,3,1,65,4,4
35,185,593.647336121649,0,0,2546983.28861274,2546984.3357027,3,0,92,0,4
35,186,511.933212634176,1,0,2546986.10046653,2546987.14754957,3,1,84,0,16
35,187,540.864184033126,0,0,2546988.80644991,2546989.85356335,3,0,84,16,4
35,188,450.31944103539,1,1,2546991.48885288,2546992.53593784,3,0,90,8,8
35,189,453.007238451391,1,0,2546994.12422401,2546995.1713186,3,1,66,16,8
35,190,704.670077655464,1,0,2546996.66547374,2546997.71256216,3,1,77,16,0
35,191,680.515317246318,0,0,2546999.60673562,2547000.65382636,3,0,68,4,4
35,192,547.216424718499,1,0,2547002.35976161,2547003.40684195,3,1,63,0,4
35,193,703.357360325754,0,0,2547005.06571803,2547006.11280492,3,0,68,4,0
35,194,543.358345981687,1,0,2547007.87756143,2547008.92464832,3,1,73,0,16
35,195,604.154075495899,1,0,2547010.57176307,2547011.61884688,3,1,94,4,0
35,196,552.402618806809,0,0,2547013.28949199,2547014.3365758,3,0,92,4,16
35,197,596.727408934385,1,0,2547015.9601806,2547017.00724978,3,1,77,4,8
35,198,550.733813084662,1,0,2547018.66615666,2547019.71320736,3,1,74,8,0
35,199,510.610486846417,1,0,2547021.41914184,2547022.46624027,3,1,86,4,16
35,200,428.516407031566,1,0,2547024.11333,2547025.16041458,3,1,97,4,16
35,201,663.214401341975,0,0,2547026.65457203,2547027.7016874,3,0,82,0,8
35,202,591.137005481869,1,0,2547029.39584207,2547030.4429278,3,1,70,8,16
35,203,611.062200274318,0,0,2547032.1017881,2547033.1489081,3,0,82,0,8
35,204,484.771137591451,1,0,2547034.89011078,2547035.93720074,3,1,87,0,16
35,205,602.554562967271,1,0,2547037.58431049,2547038.63138775,3,1,63,16,16
35,206,613.206048030406,0,0,2547040.37262508,2547041.41971504,3,0,69,16,0
35,207,737.976899836212,1,0,2547043.07858381,2547044.12567262,3,1,91,16,16
35,208,548.233491368592,1,0,2547045.98454901,2547047.03164167,3,1,83,16,4
35,209,592.768855392933,0,0,2547048.72580982,2547049.77296446,3,0,89,8,0
35,210,658.958273008466,0,0,2547051.53765823,2547052.58480363,3,0,79,16,8
35,211,590.136877261102,1,0,2547054.40832636,2547055.4554117,3,1,78,0,4
35,212,630.928110796958,0,0,2547057.24370319,2547058.29078122,3,0,100,8,16
35,213,449.559913016856,1,0,2547060.03202009,2547061.07910967,3,1,76,16,16
35,214,596.04641282931,1,0,2547062.66738122,2547063.71449428,3,1,79,8,4
35,215,599.949532188475,0,0,2547065.42041837,2547066.46749986,3,0,63,8,0
35,216,529.479348566383,1,0,2547068.09108465,2547069.13817615,3,1,94,8,4
35,217,609.74409384653,0,0,2547070.82057335,2547071.86766216,3,0,61,16,4
35,218,462.192022241652,1,0,2547073.58535489,2547074.63243947,3,1,73,4,4
35,219,615.066179074347,0,0,2547076.13836864,2547077.1854663,3,0,78,8,4
35,220,485.994543414563,1,0,2547078.95022166,2547079.99730354,3,1,99,0,4
35,221,573.78874020651,0,0,2547081.49147716,2547082.53856789,3,0,80,0,0
35,222,676.278821658343,0,0,2547084.26802156,2547085.31510806,3,0,81,4,8
35,223,556.878944858909,0,0,2547087.10340109,2547088.15048875,3,0,98,8,8
35,224,713.310910854489,1,0,2547089.77406006,2547090.82114733,3,1,91,4,16
35,225,460.158273112029,0,0,2547092.57414367,2547093.62123595,3,0,82,0,4
35,226,668.018714059144,1,0,2547095.17421735,2547096.22130655,3,1,68,16,0
35,227,372.363691683859,1,0,2547098.0566599,2547099.10374756,3,1,76,0,16
35,228,535.382339730859,0,0,2547100.56261486,2547101.60969713,3,0,91,4,4
35,229,393.828344997019,1,0,2547103.33916966,2547104.38629966,3,1,85,8,0
35,230,533.97107264027,0,0,2547105.90393742,2547106.95102969,3,0,66,16,0
35,231,555.642835330218,0,0,2547108.68049722,2547109.72758526,3,0,98,4,0
35,232,408.472259994596,0,0,2547111.32763123,2547112.37471888,3,0,67,0,8
35,233,611.624628305435,0,0,2547113.93946778,2547114.98655774,3,0,100,8,16
35,234,524.699288420379,1,0,2547116.75131888,2547117.7984073,3,1,97,8,8
35,235,452.3666636087,1,0,2547119.44552283,2547120.49259431,3,1,77,0,0
35,236,408.57042465359,1,0,2547122.05735283,2547123.10444511,3,1,67,8,0
35,237,440.62034972012,1,0,2547124.57511762,2547125.62221452,3,1,69,4,16
35,238,361.371516250074,0,0,2547127.15161129,2547128.19870357,3,0,65,0,8
35,239,441.960784140974,0,0,2547129.59873844,2547130.64584535,3,0,95,0,0
35,240,365.389738697559,0,0,2547132.22235172,2547133.2694386,3,0,85,0,8
35,241,449.801283422858,1,0,2547155.88191727,2547156.9289568,4,1,98,4,4
35,242,426.784467883408,0,0,2547158.44664691,2547159.4937619,4,0,71,8,8
35,243,480.54773081094,0,0,2547161.08201766,2547162.12909955,4,0,79,4,16
35,244,364.698349032551,0,0,2547163.69385691,2547164.74094649,4,0,99,0,0
35,245,687.403038144112,1,0,2547166.18805131,2547167.23513781,4,1,98,16,8
35,246,479.433653410524,1,0,2547169.04695888,2547170.09404346,4,1,69,0,0
35,247,467.471376527101,1,0,2547171.75291338,2547172.80000296,4,1,89,16,8
35,248,452.10989471525,1,0,2547174.43534407,2547175.48242672,4,1,100,8,16
35,249,396.349454298615,1,0,2547177.04718563,2547178.09427097,4,1,99,8,4
35,250,551.343206316233,0,0,2547179.50608142,2547180.55316985,4,0,61,0,4
35,251,424.899314064533,0,0,2547182.20027613,2547183.24737033,4,0,76,8,8
35,252,457.604057621211,0,1,2547184.68270112,2547185.72978916,4,1,71,16,16
35,253,666.60513728857,0,0,2547187.38865755,2547188.43574867,4,0,70,16,4
35,254,753.683691844344,1,0,2547190.24756474,2547191.29465817,4,1,65,0,8
35,255,537.68363641575,0,0,2547193.15353494,2547194.20062683,4,0,73,4,8
35,256,499.863531906158,1,0,2547195.8712627,2547196.91840002,4,1,82,0,16
35,257,431.483685970306,0,0,2547198.44779602,2547199.49490138,4,0,63,0,4
35,258,603.210536297411,0,0,2547200.98906422,2547202.03614803,4,0,98,8,0
35,259,639.995480887592,1,0,2547203.7891386,2547204.83629747,4,1,65,8,8
35,260,492.267481982708,0,0,2547206.56569417,2547207.61278297,4,0,98,0,8
35,261,438.972717151046,1,0,2547209.15400344,2547210.20108917,4,1,76,0,16
35,262,514.341528527439,0,1,2547211.67172358,2547212.71881701,4,1,90,4,16
35,263,459.551575127989,1,0,2547214.34238486,2547215.38947982,4,1,74,4,0
35,264,385.634835809469,0,0,2547217.00130713,2547218.04839941,4,0,64,0,16
35,265,631.556751672179,0,0,2547219.54253876,2547220.58963065,4,0,67,16,16
35,266,518.00866657868,0,0,2547222.37796603,2547223.42500479,4,0,78,16,4
35,267,642.832643352449,1,0,2547225.02510696,2547226.07214265,4,1,90,0,0
35,268,417.668592184782,1,0,2547227.71924701,2547228.76633274,4,1,65,0,4
35,269,439.39347891137,0,0,2547230.31932223,2547231.3664095,4,0,84,4,0
35,270,471.283645369112,0,0,2547232.91939861,2547233.96648203,4,0,78,8,8
35,271,527.265053242445,0,0,2547235.61359409,2547236.66068059,4,0,91,0,4
35,272,489.880339242518,1,0,2547238.24897485,2547239.29605596,4,1,66,4,4
35,273,394.950890913606,1,0,2547240.96675419,2547242.01377871,4,1,65,4,16
35,274,566.28854572773,1,0,2547243.43735126,2547244.48443776,4,1,82,0,8
35,275,511.932827997953,1,0,2547246.11977849,2547247.16690194,4,1,72,0,16
35,276,494.101436343044,0,0,2547248.83750394,2547249.88460275,4,0,94,0,8
35,277,522.363345138729,0,0,2547251.55522708,2547252.60231666,4,0,87,8,16
35,278,568.915519397706,0,0,2547254.17884074,2547255.22592993,4,0,99,4,8
35,279,530.862127896398,1,0,2547256.83774146,2547257.88485914,4,1,64,0,8
35,280,670.801982283592,0,0,2547259.43783439,2547260.48490587,4,0,89,16,16
35,281,393.785999156535,0,0,2547262.24972475,2547263.29675505,4,0,76,8,0
35,282,534.406849183142,1,0,2547264.77915001,2547265.82623074,4,1,84,8,0
35,283,444.768304005265,0,0,2547267.46157416,2547268.50867606,4,0,76,8,0
35,284,529.382723383605,1,0,2547270.08518782,2547271.1322697,4,1,99,16,4
35,285,433.967069722712,1,1,2547272.82644131,2547273.87352935,4,0,89,4,16
35,286,560.616530943662,0,0,2547275.50887085,2547276.55596004,4,0,69,16,16
35,287,672.556248959154,1,0,2547278.2736647,2547279.32074889,4,1,98,16,8
35,288,480.607784818858,0,0,2547281.12080248,2547282.16788629,4,0,89,4,4
35,289,555.602799635381,1,0,2547283.67387512,2547284.72092929,4,1,90,0,0
35,290,580.407373607159,1,0,2547286.42683567,2547287.47392024,4,1,82,16,8
35,291,641.752827912569,1,0,2547289.23868253,2547290.28576826,4,1,90,16,0
35,292,537.787575740367,0,0,2547292.10935413,2547293.15644756,4,0,88,8,0
35,293,517.45509263128,1,0,2547294.8976691,2547295.94475829,4,1,74,16,0
35,294,516.530031803995,1,0,2547297.65069509,2547298.69778082,4,1,78,4,8
35,295,452.945644967258,0,0,2547300.38018841,2547301.42727491,4,0,97,0,0
35,296,555.017273873091,0,0,2547302.94496001,2547303.99205152,4,0,69,8,4
35,297,421.665256842971,0,0,2547305.67444564,2547306.72154022,4,0,65,4,0
35,298,537.866493221372,1,0,2547308.1451197,2547309.19226779,4,1,65,16,16
35,299,414.832969661802,0,0,2547310.85107188,2547311.89816339,4,0,64,4,8
35,300,485.851722769439,1,0,2547313.35703608,2547314.40412528,4,1,95,8,4
35,301,553.188709076494,1,0,2547316.02770198,2547317.07478617,4,1,69,4,0
35,302,709.784283768386,1,0,2547318.75718876,2547319.80430105,4,1,99,8,16
35,303,550.7318880409,0,0,2547321.61609248,2547322.66318784,4,0,81,16,4
35,304,467.72968582809,1,0,2547324.2161754,2547325.2632619,4,1,73,4,4
35,305,373.749935999513,1,0,2547326.81624293,2547327.86333251,4,1,66,0,16
35,306,566.466782707721,1,0,2547329.41632585,2547330.46340888,4,1,81,8,4
35,307,486.498842015862,1,0,2547332.21640638,2547333.26348595,4,1,78,16,8
35,308,656.308586709201,0,0,2547334.92236165,2547335.96947587,4,0,73,16,4
35,309,545.746258925647,0,0,2547337.74600218,2547338.79307867,4,0,78,4,4
35,310,415.38461856544,1,0,2547340.52252734,2547341.56960344,4,1,65,8,8
35,311,695.052982307971,0,0,2547343.12260217,2547344.16968983,4,0,82,16,0
35,312,477.241300977767,0,0,2547345.93445096,2547346.98153554,4,0,89,4,8
35,313,510.140449739993,0,0,2547348.64061026,2547349.68749235,4,0,74,4,0
35,314,543.137378524989,0,0,2547351.24052765,2547352.28760953,4,0,69,16,0
35,315,529.575588647276,0,0,2547353.96997016,2547355.01706012,4,0,98,8,16
35,316,775.559483561665,1,0,2547356.61715844,2547357.66420375,4,1,92,8,16
35,317,600.981227122247,1,0,2547359.59366851,2547360.64077464,4,1,79,16,0
35,318,559.947083704174,1,0,2547362.25256692,2547363.29972656,4,1,81,8,4
35,319,437.904835212976,0,0,2547364.95853027,2547366.00562024,4,0,82,0,4
35,320,527.125697117299,0,0,2547367.46448947,2547368.51157212,4,0,88,4,16
35,321,831.812673714012,1,0,2547392.75942923,2547393.80645375,5,1,90,16,16
35,322,440.967969596386,0,0,2547395.72413178,2547396.77121712,5,0,68,4,16
35,323,394.990156870335,0,0,2547398.37126771,2547399.41839116,5,0,67,4,0
35,324,486.660525668412,0,0,2547400.86550176,2547401.91254322,5,0,93,0,8
35,325,450.643193442374,1,0,2547403.5125915,2547404.55968223,5,1,73,4,4
35,326,479.146857745945,0,0,2547406.14796725,2547407.19505144,5,0,73,16,4
35,327,433.12746938318,1,1,2547408.85392599,2547409.90101364,5,0,99,16,16
35,328,531.908837147057,1,0,2547411.44227337,2547412.48933138,5,1,89,16,16
35,329,459.331762045622,0,0,2547414.21878467,2547415.2658704,5,0,79,0,8
35,330,737.275885883719,1,0,2547416.83062353,2547417.87770541,5,1,70,16,4
35,331,584.580735303462,1,0,2547419.64246731,2547420.68956421,5,1,81,16,8
35,332,499.774605967104,0,0,2547422.31316131,2547423.36026129,5,0,75,4,0
35,333,465.260930825025,0,0,2547425.01913776,2547426.06624427,5,0,98,4,0
35,334,458.187273237854,0,0,2547427.5957088,2547428.6427391,5,0,63,8,4
35,335,546.330629382283,1,0,2547430.14866057,2547431.19575092,5,1,83,4,8
35,336,412.881602998823,1,0,2547432.88991406,2547433.93705907,5,1,67,0,16
35,337,632.924132980406,0,0,2547435.50175831,2547436.54884635,5,0,99,4,4
35,338,633.398405276239,1,0,2547438.26654447,2547439.3136302,5,1,97,0,4
35,339,586.511315312237,1,0,2547441.03133563,2547442.07841789,5,1,89,0,0
35,340,629.831742029637,1,0,2547443.7019996,2547444.7490861,5,1,100,0,16
35,341,561.831852886826,0,0,2547446.51390845,2547447.56093027,5,0,99,16,0
35,342,411.952692084014,0,0,2547449.17274103,2547450.21983176,5,0,68,8,0
35,343,555.503479205072,0,0,2547451.80811833,2547452.85520598,5,0,83,8,8
35,344,639.5831881091,0,0,2547454.46702059,2547455.51410208,5,0,91,4,4
35,345,556.89819296822,0,0,2547457.29062878,2547458.33771605,5,0,82,0,8
35,346,363.093061838299,0,0,2547460.05541686,2547461.10249682,5,0,66,0,0
35,347,533.739711157978,1,0,2547462.64377464,2547463.69085652,5,1,89,4,16
35,348,441.257845144719,0,0,2547465.31439203,2547466.36147353,5,0,67,0,0
35,349,530.777436681092,0,0,2547467.84387427,2547468.89096231,5,0,83,0,4
35,350,447.879943531007,1,0,2547470.46747561,2547471.51457135,5,1,66,8,0
35,351,397.002732846886,0,1,2547473.17344166,2547474.22052585,5,1,72,4,0
35,352,464.401697739959,0,0,2547475.64414805,2547476.69122916,5,0,81,0,4
35,353,459.903044160455,1,0,2547478.18535158,2547479.23244616,5,1,96,16,0
35,354,410.415927879512,0,0,2547480.76189568,2547481.80898564,5,0,63,4,4
35,355,444.638572167605,1,0,2547483.27964199,2547484.32672734,5,1,77,0,4
35,356,602.98302443698,0,0,2547485.90322139,2547486.9503102,5,0,61,16,16
35,357,452.816682867706,1,0,2547488.75041191,2547489.7975011,5,1,94,0,8
35,358,525.157392024994,1,0,2547491.36220919,2547492.409293,5,1,77,4,8
35,359,442.457383498549,1,1,2547494.13881249,2547495.1858451,5,0,90,8,4
35,360,458.930633030832,1,0,2547496.71530693,2547497.76241884,5,1,86,16,0
35,361,579.180888365954,1,0,2547499.38597129,2547500.4330524,5,1,89,16,0
35,362,548.562248237431,0,0,2547502.05662987,2547503.10372561,5,0,75,8,8
35,363,498.945784755051,0,0,2547504.82147224,2547505.86850754,5,0,97,8,16
35,364,413.477137219161,0,0,2547507.42154053,2547508.46861894,5,0,67,0,16
35,365,529.818499460816,0,0,2547509.98628981,2547511.03337746,5,0,71,8,4
35,366,740.586165338755,1,0,2547512.77459593,2547513.82167935,5,1,69,16,0
35,367,511.565574910492,0,0,2547515.73938547,2547516.78647621,5,0,79,8,4
35,368,408.718634862453,0,0,2547518.50422206,2547519.55132242,5,0,89,0,4
35,369,511.740347370505,0,1,2547521.15130602,2547522.19838905,5,1,92,4,16
35,370,541.171767748892,0,0,2547523.78671989,2547524.83378675,5,0,78,16,16
35,371,431.445574853569,1,0,2547526.45734305,2547527.50443379,5,1,80,16,8
35,372,403.960132505745,1,0,2547529.13976566,2547530.18685793,5,1,76,0,16
35,373,391.133618541062,1,0,2547531.6927948,2547532.73987129,5,1,68,8,4
35,374,627.534679602832,1,0,2547534.16345577,2547535.21053303,5,1,90,0,8
35,375,537.492311093956,1,0,2547536.92827927,2547537.97533767,5,1,73,8,8
35,376,524.437514599413,1,0,2547539.68125175,2547540.7283421,5,1,83,8,0
35,377,496.358077041805,0,0,2547542.43426426,2547543.48135538,5,0,80,0,16
35,378,491.019824054092,1,0,2547545.06964771,2547546.11673075,5,1,68,4,8
35,379,508.005456067622,0,0,2547547.62265838,2547548.66974911,5,0,96,16,4
35,380,562.034341972321,1,0,2547550.2815641,2547551.3286533,5,1,94,16,8
35,381,600.675568450242,1,0,2547553.05811274,2547554.10520386,5,1,61,8,16
35,382,486.635888461024,0,0,2547555.76407533,2547556.81116837,5,0,76,16,4
35,383,393.260912504047,1,0,2547558.41121357,2547559.4583043,5,1,66,4,0
35,384,514.988648239523,1,0,2547560.9524656,2547561.99954594,5,1,83,16,8
35,385,640.429331921041,0,0,2547563.62313265,2547564.67021954,5,0,83,8,16
35,386,789.424237795174,0,0,2547566.38791496,2547567.43509385,5,0,90,4,8
35,387,746.755164582282,1,0,2547569.30564919,2547570.35274146,5,1,100,8,16
35,388,554.596511181444,0,0,2547572.24690953,2547573.29399796,5,0,93,4,8
35,389,508.643721695989,1,0,2547575.01170378,2547576.05878142,5,1,73,8,0
35,390,507.97966402024,0,0,2547577.62353955,2547578.67063298,5,0,95,16,4
35,391,645.902322139591,1,0,2547580.32949867,2547581.37658556,5,1,90,8,8
35,392,525.013801641762,1,0,2547583.04722836,2547584.0942983,5,1,70,0,0
35,393,582.625903654844,0,0,2547585.68260065,2547586.72968445,5,0,97,8,8
35,394,545.790529344231,0,0,2547588.44736871,2547589.49451989,5,0,67,4,16
35,395,500.55068731308,1,0,2547591.18863799,2547592.23571987,5,1,64,8,0
35,396,468.485364224762,0,0,2547593.78870898,2547594.83580279,5,0,84,4,4
35,397,600.433043204248,1,0,2547596.482906,2547597.52999366,5,1,75,16,8
35,398,462.006471119821,0,0,2547599.16540521,2547600.21243474,5,0,62,4,16
35,399,443.921389989555,0,1,2547601.73012177,2547602.77720789,5,1,61,0,0
35,400,572.307410184294,1,0,2547604.35372735,2547605.40081115,5,1,97,8,16
35,401,617.881398648024,1,0,2547640.15476605,2547641.20185563,6,1,91,16,16
35,402,469.436602666974,0,0,2547642.83719597,2547643.88428709,6,0,82,4,8
35,403,456.276326905936,0,0,2547645.42550409,2547646.47259328,6,0,76,8,4
35,404,462.971567641944,1,0,2547648.11971728,2547649.16683265,6,1,86,16,0
35,405,625.10442128405,1,0,2547650.83743156,2547651.88452037,6,1,70,8,4
35,406,442.27035716176,0,0,2547653.59043869,2547654.6373388,6,0,86,16,16
35,407,443.838238716125,1,0,2547656.11994017,2547657.16702243,6,1,69,16,0
35,408,407.332005444914,0,0,2547658.75530284,2547659.80239627,6,0,98,4,4
35,409,426.615470089018,1,0,2547661.36714978,2547662.41423743,6,1,86,16,8
35,410,475.726479198784,0,0,2547664.03782145,2547665.08489871,6,0,95,0,16
35,411,460.639859549701,0,0,2547666.63789706,2547667.68497701,6,0,73,0,0
35,412,560.268525965512,0,0,2547669.22620287,2547670.27328898,6,0,90,8,0
35,413,417.809103149921,0,0,2547671.84982307,2547672.89689071,6,0,67,16,16
35,414,395.178018137813,0,0,2547674.48517458,2547675.53226723,6,0,86,8,8
35,415,481.367697473615,1,0,2547677.04995966,2547678.09703961,6,1,98,16,8
35,416,442.090130411088,0,0,2547679.6853254,2547680.73241575,6,0,78,0,16
35,417,483.857240062207,1,0,2547682.3207181,2547683.36778997,6,1,98,0,16
35,418,388.345730490983,1,0,2547684.95607076,2547686.00315687,6,1,78,0,4
35,419,447.73596804589,1,1,2547687.59143535,2547688.63853994,6,0,70,4,8
35,420,580.540185328573,1,0,2547690.13268199,2547691.17977427,6,1,99,16,16
35,421,414.096539374441,0,0,2547692.76806275,2547693.8151481,6,0,76,0,8
35,422,546.034209430218,1,0,2547695.3093094,2547696.35640205,6,1,94,0,4
35,423,398.529488127679,1,0,2547698.05057136,2547699.09765786,6,1,65,0,4
35,424,542.599972803146,1,0,2547700.60357894,2547701.65066121,6,1,72,4,8
35,425,464.76433146745,1,0,2547703.27424869,2547704.32137908,6,1,66,16,0
35,426,582.986227236688,0,0,2547705.82726243,2547706.87435317,6,0,89,16,16
35,427,408.333674073219,0,1,2547708.66264081,2547709.70972654,6,1,95,8,4
35,428,706.955205649138,0,0,2547711.23918144,2547712.28630413,6,0,82,4,0
35,429,546.901141759008,1,0,2547714.14515126,2547715.19227087,6,1,95,4,4
35,430,500.469075515866,1,0,2547716.78052817,2547717.82761044,6,1,82,0,0
35,431,567.476535215974,0,0,2547719.38059762,2547720.4276899,6,0,80,16,0
35,432,554.964534007013,1,0,2547722.15719592,2547723.20424239,6,1,81,16,4
35,433,614.392882678658,1,0,2547724.88664305,2547725.93372762,6,1,69,8,8
35,434,488.618052564561,1,0,2547727.65142574,2547728.69851455,6,1,67,8,8
35,435,523.61677819863,0,0,2547730.26326614,2547731.31035841,6,0,75,0,8
35,436,519.684017170221,0,0,2547733.02809541,2547734.0751465,6,0,100,16,8
35,437,410.897128749639,0,0,2547735.79283961,2547736.83992919,6,0,73,0,8
35,438,641.297418624163,1,0,2547738.35761853,2547739.40471196,6,1,61,4,4
35,439,419.010180979967,0,0,2547741.14599933,2547742.19303271,6,0,76,16,4
35,440,433.502806350589,0,0,2547743.64013638,2547744.68721094,6,0,87,8,4
35,441,454.577493946999,1,0,2547746.28726422,2547747.33434341,6,1,65,8,16
35,442,429.610851220787,1,0,2547748.99322911,2547750.04031022,6,1,88,0,8
35,443,393.958846572787,1,0,2547751.61683777,2547752.66391695,6,1,67,8,16
35,444,620.299338363111,1,0,2547754.14631577,2547755.19339534,6,1,90,0,4
35,445,597.628217656165,0,0,2547756.92286441,2547757.96996823,6,0,61,0,4
35,446,449.539510067552,0,0,2547759.72294494,2547760.77003221,6,0,93,4,16
35,447,673.308847472072,1,0,2547762.40537602,2547763.45246714,6,1,90,8,0
35,448,477.801418863237,1,0,2547765.28782164,2547766.33490314,6,1,83,16,0
35,449,572.866758331656,1,0,2547767.85259556,2547768.89973172,6,1,63,0,0
35,450,358.759941067547,1,0,2547770.55855083,2547771.60570624,6,1,75,8,16
35,451,627.026916015893,0,0,2547772.97038938,2547774.01748242,6,0,98,4,4
35,452,471.288264729083,1,0,2547775.84111218,2547776.88815171,6,1,84,4,16
35,453,501.359105110168,1,0,2547778.44113889,2547779.48823078,6,1,73,4,16
35,454,429.183929692954,1,0,2547781.13533206,2547782.18241471,6,1,73,8,16
35,455,559.480511117727,1,0,2547783.81776391,2547784.86485233,6,1,81,16,4
35,456,517.970940563828,1,0,2547786.53555326,2547787.58257817,6,1,87,8,0
35,457,674.079539254308,0,0,2547789.25321211,2547790.30030362,6,0,70,4,16
35,458,509.300080128014,0,0,2547792.17094519,2547793.21803053,6,0,73,16,8
35,459,650.800180155784,0,0,2547794.8416157,2547795.88870451,6,0,81,8,0
35,460,464.129915926605,1,0,2547797.6652162,2547798.71231386,6,1,73,4,16
35,461,679.126762785017,0,0,2547800.324125,2547801.37121997,6,0,95,8,4
35,462,521.518355701119,1,0,2547803.14773435,2547804.19482662,6,1,80,0,16
35,463,472.207935992628,0,0,2547805.78311126,2547806.83018775,6,0,75,16,4
35,464,810.314144007862,1,0,2547808.45377677,2547809.50086096,6,1,79,8,0
35,465,528.839158359915,1,0,2547811.48915623,2547812.53630471,6,1,65,8,8
35,466,525.326004717499,0,0,2547814.26570641,2547815.31279637,6,0,70,8,8
35,467,445.025072898716,1,0,2547817.00696375,2547818.05405102,6,1,65,4,8
35,468,615.333341993392,0,0,2547819.6187976,2547820.66589296,6,0,82,4,8
35,469,900.535519700497,1,0,2547822.44242043,2547823.4895077,6,1,73,8,16
35,470,644.808647688478,0,0,2547825.56017613,2547826.6073046,6,0,99,16,8
35,471,653.852535877377,0,0,2547828.37199374,2547829.41908794,6,0,71,4,0
35,472,408.773683942854,0,0,2547831.26625036,2547832.31328874,6,0,94,0,8
35,473,432.995427865535,0,0,2547833.8309827,2547834.87807959,6,0,79,0,0
35,474,384.675898123533,0,0,2547836.47817675,2547837.52519935,6,0,85,4,0
35,475,530.573022551835,0,0,2547839.01937066,2547840.06645639,6,0,93,4,0
35,476,465.558505617082,0,0,2547841.63121067,2547842.67829679,6,0,99,0,0
35,477,625.712659209967,0,0,2547844.34900079,2547845.39602147,6,0,91,4,4
35,478,517.495128791779,0,0,2547847.04313507,2547848.09021425,6,0,61,0,16
35,479,678.744111675769,0,0,2547849.65497701,2547850.70206274,6,0,82,4,0
35,480,546.157782431692,1,0,2547852.4315191,2547853.47861215,6,1,69,16,4
35,481,441.97695190087,1,0,2547877.77343334,2547878.820521,7,1,76,16,0
35,482,578.228495083749,0,0,2547880.33820726,2547881.38530223,7,0,89,16,8
35,483,380.180709064007,0,0,2547883.04417831,2547884.09126212,7,0,64,8,4
35,484,615.345661062747,1,0,2547885.5618946,2547886.60897918,7,1,89,16,16
35,485,579.314469359815,0,0,2547888.409037,2547889.45612427,7,0,98,4,16
35,486,602.820186410099,1,0,2547891.23275105,2547892.27973092,7,1,71,16,0
35,487,414.225501008332,1,0,2547893.96213697,2547895.00923117,7,1,66,0,8
35,488,397.157872095704,1,0,2547896.57397929,2547897.62106502,7,1,80,0,8
35,489,531.777180265635,1,0,2547899.20934466,2547900.25644733,7,1,62,4,0
35,490,411.470335908234,0,0,2547901.93884683,2547902.98592563,7,0,61,0,4
35,491,443.882893770933,1,0,2547904.5742122,2547905.62128946,7,1,84,16,4
35,492,546.192043460906,0,0,2547907.18605683,2547908.2331414,7,0,97,8,16
35,493,482.875204645097,1,0,2547909.97435794,2547911.02147216,7,1,75,8,8
35,494,478.66681125015,1,0,2547912.57445164,2547913.62153506,7,1,81,0,0
35,495,421.218702103943,1,0,2547915.25687502,2547916.30395805,7,1,89,8,0
35,496,441.766378469765,1,0,2547917.89226848,2547918.93934574,7,1,66,8,8
35,497,425.342404283583,0,0,2547920.57467646,2547921.62176681,7,0,74,0,8
35,498,511.448931880295,0,0,2547923.18651763,2547924.23360567,7,0,89,16,0
35,499,537.190501578152,1,0,2547925.82188992,2547926.86897334,7,1,64,16,8
35,500,647.386346478015,0,0,2547928.59844241,2547929.64553045,7,0,92,4,4
35,501,413.934855721891,0,0,2547931.32792572,2547932.37501992,7,0,94,0,16
35,502,485.492939129472,0,0,2547933.96329185,2547935.01040453,7,0,91,16,4
35,503,371.502148918808,1,0,2547936.51631214,2547937.5634048,7,1,86,4,0
35,504,516.008794307709,1,0,2547938.98698312,2547940.03406346,7,1,63,16,8
35,505,640.362348873168,0,0,2547941.62240045,2547942.66945269,7,0,99,8,4
35,506,537.033052183688,0,0,2547944.35184142,2547945.39892908,7,0,89,4,4
35,507,620.707012247294,1,0,2547947.09311686,2547948.14019758,7,1,80,4,0
35,508,560.2893140167,0,0,2547949.92846559,2547950.97556018,7,0,74,4,16
35,509,510.791418608278,1,0,2547952.65796469,2547953.70505042,7,1,88,8,4
35,510,477.499994914979,0,0,2547955.29333198,2547956.34041694,7,0,87,0,0
35,511,556.833904236555,1,0,2547958.02289921,2547959.06997224,7,1,100,8,16
35,512,437.207670882344,0,0,2547960.79937509,2547961.84646429,7,0,75,8,8
35,513,546.32754996419,0,0,2547963.35239538,2547964.39947457,7,0,91,0,0
35,514,385.170572903007,0,0,2547966.01129264,2547967.05837837,7,0,65,0,0
35,515,456.166612915695,1,1,2547968.55254505,2547969.59963155,7,0,89,16,0
35,516,510.872645303607,0,0,2547971.19974181,2547972.24684332,7,0,95,0,4
35,517,636.42689306289,1,0,2547973.7879918,2547974.83507984,7,1,69,16,4
35,518,572.004060726613,1,0,2547976.6116073,2547977.6587042,7,1,93,4,16
35,519,716.888353228569,1,0,2547979.27049725,2547980.31764226,7,1,92,0,8
35,520,672.294090967625,1,0,2547982.24705736,2547983.29414463,7,1,68,16,8
35,521,647.202720399946,1,0,2547984.98830392,2547986.0353962,7,1,93,4,4
35,522,444.515384733677,0,0,2547987.85899092,2547988.90605894,7,0,77,4,0
35,523,544.010469689965,1,0,2547990.38847623,2547991.43556928,7,1,86,16,16
35,524,521.619600243866,1,0,2547993.14153686,2547994.18863029,7,1,73,0,4
35,525,669.0469449386,0,0,2547995.90627875,2547996.95336872,7,0,71,4,8
35,526,599.090684205294,1,0,2547998.65934246,2547999.70641433,7,1,90,0,8
35,527,531.705577857792,1,0,2548001.49467503,2548002.54176307,7,1,94,4,8
35,528,554.569179192185,0,0,2548004.10654699,2548005.15359846,7,0,65,8,0
35,529,466.477792244405,1,0,2548006.90660212,2548007.95368592,7,1,80,16,16
35,530,445.135556627065,0,0,2548009.58902934,2548010.63611507,7,0,87,8,16
35,531,472.94975630939,0,0,2548012.18910072,2548013.23619838,7,0,77,0,16
35,532,441.009160131216,1,0,2548014.83624088,2548015.883332,7,1,86,8,0
35,533,397.428499534726,1,0,2548017.36572735,2548018.41279845,7,1,86,8,16
35,534,475.15327250585,1,0,2548019.85990828,2548020.90700517,7,1,64,8,4
35,535,558.110435027629,1,0,2548022.51881708,2548023.56589473,7,1,63,16,0
35,536,400.608662050217,1,0,2548025.29536534,2548026.34245299,7,1,65,0,4
35,537,445.402334444225,0,0,2548027.9425005,2548028.98958931,7,0,86,0,16
35,538,549.750237725675,0,0,2548030.566108,2548031.61319912,7,0,98,8,4
35,539,452.025203034282,0,0,2548033.23678467,2548034.28386078,7,0,93,4,16
35,540,395.64921008423,0,0,2548035.87217352,2548036.91923577,7,0,72,0,0
35,541,670.49863236025,1,0,2548038.46045431,2548039.50754042,7,1,89,4,0
35,542,653.649661224335,0,0,2548041.2252447,2548042.2723158,7,0,93,16,16
35,543,532.553261611611,0,0,2548043.97825683,2548045.02534987,7,0,94,8,8
35,544,494.5780178532,0,0,2548046.57833705,2548047.62542394,7,0,61,4,16
35,545,511.296102777123,0,0,2548049.31958208,2548050.36667551,7,0,92,8,0
35,546,612.568937707692,0,0,2548051.99025683,2548053.03734872,7,0,100,4,8
35,547,436.546307988465,0,0,2548054.69622018,2548055.74330861,7,0,88,0,4
35,548,662.556888069957,0,0,2548057.26099949,2548058.30808714,7,0,71,4,8
35,549,741.826509125531,1,0,2548060.02584647,2548061.07287792,7,1,94,4,4
35,550,407.06484252587,1,0,2548062.89646148,2548063.94354759,7,1,76,4,8
35,551,557.347057387233,0,0,2548065.36712245,2548066.41420356,7,0,67,16,4
35,552,470.844019670039,1,0,2548068.14366377,2548069.19076567,7,1,64,8,0
35,553,426.114250905812,0,0,2548070.70844654,2548071.7555342,7,0,65,0,16
35,554,444.563504774123,1,0,2548073.33205943,2548074.37914208,7,1,85,0,16
35,555,450.330605264753,0,0,2548075.838009,2548076.88509743,7,0,66,4,4
35,556,436.947437003255,1,0,2548078.50868299,2548079.55576448,7,1,66,16,4
35,557,515.294692013413,1,0,2548081.08527366,2548082.13233206,7,1,68,8,8
35,558,1032.43661858141,0,0,2548083.69706363,2548084.74414667,7,0,90,8,16
35,559,412.955899722874,1,0,2548086.88538807,2548087.93248343,7,1,67,16,16
35,560,425.674625206739,0,0,2548089.42664896,2548090.47372391,7,0,96,16,8
35,561,600.898846052587,1,0,2548112.43907897,2548113.48615815,8,1,99,4,8
35,562,373.91970353201,0,0,2548115.23915526,2548116.28624869,8,0,78,8,8
35,563,386.773935053498,0,0,2548117.73340626,2548118.78043386,8,0,93,0,4
35,564,471.004163380712,1,0,2548120.35697488,2548121.40406253,8,1,67,4,16
35,565,387.981557752937,0,1,2548122.90996822,2548123.95705626,8,1,71,8,0
35,566,403.246414847672,0,0,2548125.52180438,2548126.56889281,8,0,64,8,4
35,567,497.082573827356,0,0,2548128.12188884,2548129.16896533,8,0,70,8,4
35,568,505.955539178103,1,0,2548130.72194943,2548131.76904479,8,1,73,4,0
35,569,538.533245678991,0,0,2548133.45144815,2548134.49853965,8,0,79,8,16
35,570,383.285033982247,0,0,2548136.09862988,2548137.14569637,8,0,65,0,4
35,571,718.544455710799,1,0,2548138.72221198,2548139.76927615,8,1,100,8,0
35,572,423.679372761399,0,0,2548141.58108452,2548142.6282022,8,0,65,4,8
35,573,427.345741074532,1,0,2548144.16940919,2548145.216498,8,1,88,16,4
35,574,415.000812616199,0,0,2548146.6988922,2548147.74599179,8,0,81,4,16
35,575,691.194903571159,1,0,2548149.26366188,2548150.31076724,8,1,63,8,16
35,576,387.688217684627,1,0,2548152.12257869,2548153.16966365,8,1,67,4,4
35,577,476.208450738341,1,0,2548154.73444873,2548155.78150713,8,1,78,0,4
35,578,507.745222654194,1,0,2548157.35802351,2548158.40511347,8,1,97,16,4
35,579,638.233514502645,0,0,2548160.08752107,2548161.13460102,8,0,70,0,8
35,580,584.688524715602,1,0,2548162.87583719,2548163.92296373,8,1,74,8,0
35,581,600.417259614915,0,0,2548165.71120902,2548166.75828243,8,0,84,16,8
35,582,438.770612236112,0,0,2548168.53482261,2548169.58190564,8,0,74,8,8
35,583,530.307399574667,1,0,2548171.07606193,2548172.12319347,8,1,90,8,16
35,584,590.451775118709,0,0,2548173.7820326,2548174.82911987,8,0,71,0,4
35,585,385.424262378365,1,0,2548176.58210929,2548177.62920233,8,1,76,0,8
35,586,540.02419905737,1,0,2548179.07630292,2548180.12339712,8,1,88,16,8
35,587,487.43314249441,1,0,2548181.84108908,2548182.88817558,8,1,67,16,8
35,588,552.777955774218,1,0,2548184.57058086,2548185.6176766,8,1,65,16,16
35,589,537.777182180434,1,0,2548187.22948274,2548188.27659426,8,1,62,8,8
35,590,906.999014317989,1,0,2548189.84132082,2548190.88840771,8,1,94,16,16
35,591,440.425174776465,1,1,2548192.92383259,2548193.97086635,8,0,99,4,0
35,592,556.001233868301,1,0,2548195.50031163,2548196.54739967,8,1,96,8,4
35,593,418.789213523269,1,0,2548198.14744447,2548199.194556,8,1,98,16,4
35,594,507.247083354741,0,0,2548200.61809274,2548201.66520619,8,0,68,8,0
35,595,459.65127972886,1,0,2548203.25347928,2548204.30055846,8,1,67,16,0
35,596,580.51439281553,1,0,2548205.90061328,2548206.94769824,8,1,90,0,16
35,597,403.773040976375,1,0,2548208.55950784,2548209.60660127,8,1,96,0,0
35,598,522.237462922931,0,0,2548211.08899932,2548212.13608081,8,0,95,0,0
35,599,544.534016866237,0,0,2548213.80672669,2548214.85380896,8,0,82,0,0
35,600,605.318197514862,0,0,2548216.51268235,2548217.55976538,8,0,79,16,16
35,601,432.623940519989,0,0,2548219.23041126,2548220.27748698,8,0,95,0,16
35,602,419.365885201842,0,1,2548221.91284272,2548222.95993346,8,1,82,16,4
35,603,523.8516042009,0,0,2548224.39525963,2548225.44234805,8,0,71,4,0
35,604,583.926687017083,1,0,2548227.10122991,2548228.14832604,8,1,79,16,8
35,605,498.632426839322,0,0,2548229.79542154,2548230.84251074,8,0,64,4,8
35,606,486.352557316422,0,0,2548232.53667581,2548233.58375692,8,0,78,0,16
35,607,358.102427795529,0,0,2548235.18381328,2548236.23090016,8,0,65,0,16
35,608,348.061106167734,0,0,2548237.73683472,2548238.78391429,8,0,74,8,8
35,609,742.433593142778,1,0,2548240.16043421,2548241.207503,8,1,72,16,16
35,610,465.343312826008,0,0,2548243.00756698,2548244.05465772,8,0,67,0,8
35,611,579.826468136162,1,0,2548245.64294082,2548246.69002886,8,1,78,8,16
35,612,478.17521635443,0,0,2548248.46654978,2548249.51364051,8,0,76,16,0
35,613,636.157805100083,0,0,2548251.12545358,2548252.17254162,8,0,70,8,16
35,614,455.63267217949,0,0,2548253.949061,2548254.99615328,8,0,87,4,16
35,615,617.675059475005,1,0,2548256.5609118,2548257.60803833,8,1,83,4,16
35,616,478.880849666893,0,0,2548259.37274981,2548260.41988905,8,0,85,16,0
35,617,856.704634614289,1,0,2548261.96105793,2548263.00813904,8,1,100,16,0
35,618,450.092313811183,0,0,2548264.93761727,2548265.98470839,8,0,77,4,0
35,619,432.407207787037,0,0,2548267.46710143,2548268.51419255,8,0,74,0,0
35,620,568.891651928425,1,0,2548270.04364514,2548271.0907763,8,1,99,4,16
35,621,490.08051911369,0,0,2548272.76142911,2548273.80846787,8,0,96,0,16
35,622,391.293376684189,0,0,2548275.32615914,2548276.3732414,8,0,76,16,16
35,623,652.576005086303,1,0,2548277.89093498,2548278.93802302,8,1,93,8,4
35,624,581.169981509447,0,0,2548280.62043022,2548281.66751826,8,0,83,0,4
35,625,485.160717740655,1,0,2548283.32638742,2548284.37347045,8,1,86,4,4
35,626,458.95142108202,1,0,2548285.92646071,2548286.9736065,8,1,100,4,8
35,627,568.32036934793,0,0,2548288.45594911,2548289.50303368,8,0,94,8,8
35,628,463.392715435475,0,0,2548291.25610125,2548292.30311268,8,0,67,4,4
35,629,581.09799399972,1,0,2548293.85610679,2548294.90319406,8,1,61,8,0
35,630,450.327140279114,1,0,2548296.66794442,2548297.71503861,8,1,84,4,4
35,631,401.325459592044,1,0,2548299.22096355,2548300.26805659,8,1,84,0,8
35,632,565.182937774807,0,0,2548301.71515179,2548302.76223983,8,0,81,0,0
35,633,410.701183602214,1,0,2548304.40946084,2548305.4564638,8,1,76,16,0
35,634,412.366524804384,0,0,2548306.93883952,2548307.98593025,8,0,65,4,8
35,635,395.418618805707,1,0,2548309.59773716,2548310.64482174,8,1,87,4,0
35,636,392.036351840943,1,0,2548312.23310522,2548313.28020288,8,1,85,16,8
35,637,668.691241182387,0,0,2548314.86848444,2548315.91556093,8,0,72,8,4
35,638,420.836050994694,1,0,2548317.78621482,2548318.83330401,8,1,96,0,8
35,639,718.002815265208,0,0,2548320.39804983,2548321.44513479,8,0,70,4,4
35,640,684.011532459408,0,0,2548323.35106958,2548324.39823307,8,0,94,16,4
35,641,505.985951051116,0,0,2548345.35172093,2548346.39880396,9,0,61,8,0
35,642,514.209872111678,0,1,2548348.05772124,2548349.10478156,9,1,72,0,8
35,643,537.573537789285,1,0,2548350.72834672,2548351.77543437,9,1,72,16,0
35,644,414.136960171163,1,0,2548353.37548341,2548354.42256876,9,1,65,4,4
35,645,386.930229142308,1,0,2548355.8579392,2548356.90499953,9,1,96,0,0
35,646,507.766395341605,1,0,2548358.36390648,2548359.41095372,9,1,68,8,8
35,647,639.00767127052,1,0,2548360.92864421,2548361.97572609,9,1,69,16,8
35,648,540.686717256904,0,0,2548363.82285733,2548364.86997539,9,0,96,8,4
35,649,561.960429884493,1,0,2548366.54057392,2548367.58765426,9,1,97,0,0
35,650,398.10295170173,0,0,2548369.35241386,2548370.39949805,9,0,76,8,16
35,651,609.085040632635,0,0,2548371.90542414,2548372.95251641,9,0,62,16,16
35,652,726.051579229534,0,0,2548374.56433025,2548375.61141636,9,0,100,8,0
35,653,494.491016492248,0,0,2548377.48206255,2548378.52915252,9,0,70,4,8
35,654,588.35258288309,0,0,2548380.12920733,2548381.17628883,9,0,100,16,16
35,655,361.593253910542,0,0,2548382.95280513,2548383.99989856,9,0,88,0,4
35,656,426.944226492196,0,0,2548385.37641156,2548386.42349613,9,0,87,16,16
35,657,500.000192783773,0,1,2548387.97648293,2548389.02361986,9,1,90,4,0
35,658,526.57674299553,0,0,2548390.67067956,2548391.71778377,9,0,73,4,8
35,659,393.51883623749,0,0,2548393.41193344,2548394.45902225,9,0,65,4,16
35,660,552.506173029542,1,0,2548396.02377461,2548397.07085803,9,1,98,4,16
35,661,480.460344348103,1,0,2548398.68267148,2548399.72976222,9,1,64,8,8
35,662,511.598681565374,0,0,2548401.29452343,2548402.34160954,9,0,70,0,8
35,663,567.704432178289,1,0,2548404.0475498,2548405.09463053,9,1,98,0,16
35,664,576.882285997272,0,0,2548406.76526293,2548407.81241603,9,0,81,16,16
35,665,386.562976520509,1,0,2548409.49475279,2548410.54184083,9,1,77,8,4
35,666,481.922426261008,0,0,2548412.11838185,2548413.16549529,9,0,88,4,0
35,667,832.73696526885,1,0,2548414.76553125,2548415.81260466,9,1,100,4,8
35,668,532.480504363775,1,0,2548417.76558245,2548418.81266702,9,1,90,16,8
35,669,387.205091770738,1,0,2548420.5539032,2548421.600987,9,1,76,8,16
35,670,446.584934834391,1,0,2548423.08339852,2548424.13047039,9,1,92,0,8
35,671,679.318473208696,0,0,2548425.67169855,2548426.71880854,9,0,80,4,0
35,672,478.581734932959,1,0,2548428.49530752,2548429.54238863,9,1,64,0,0
35,673,441.101936157793,1,0,2548431.07188357,2548432.11893658,9,1,69,16,0
35,674,585.401087533683,1,0,2548433.68369817,2548434.73078005,9,1,99,16,4
35,675,588.575860485435,0,0,2548436.50730136,2548437.55438709,9,0,94,0,16
35,676,503.803222440183,1,0,2548439.22509495,2548440.27211601,9,1,86,16,4
35,677,565.168694127351,1,0,2548441.83687183,2548442.88396025,9,1,97,8,0
35,678,505.28378225863,0,0,2548444.66048002,2548445.70757114,9,0,96,16,16
35,679,567.083874717355,0,0,2548447.29584847,2548448.34293997,9,0,81,4,16
35,680,671.344391535968,1,0,2548449.96651552,2548451.01360317,9,1,61,16,0
35,681,436.718000564724,0,0,2548452.79013218,2548453.83721791,9,0,75,4,4
35,682,599.595752544701,1,0,2548455.4019822,2548456.44907217,9,1,91,0,0
35,683,742.413189727813,0,0,2548458.08440019,2548459.13148245,9,0,92,16,4
35,684,703.537522349507,1,0,2548460.90802378,2548461.95510258,9,1,92,16,4
35,685,583.665683399886,1,0,2548463.75515809,2548464.80223651,9,1,68,16,8
35,686,660.470014438033,0,0,2548466.41405304,2548467.46114108,9,0,91,8,8
35,687,397.137469146401,1,0,2548469.20237032,2548470.24945336,9,1,95,4,8
35,688,449.457513634115,1,0,2548471.66126727,2548472.70833875,9,1,94,8,4
35,689,504.049982409924,1,0,2548474.20251237,2548475.24960002,9,1,88,16,4
35,690,494.532207492739,0,0,2548476.82612026,2548477.87320483,9,0,70,0,4
35,691,385.60480857268,0,0,2548479.4850179,2548480.53210979,9,0,75,0,8
35,692,439.794608391821,1,0,2548481.95569119,2548483.00280656,9,1,80,16,0
35,693,414.4052779302,0,0,2548484.49692435,2548485.54401855,9,0,95,0,16
35,694,492.031116038561,0,0,2548487.13230665,2548488.17938777,9,0,63,8,0
35,695,474.75214349106,0,0,2548489.81474543,2548490.86182076,9,0,61,4,0
35,696,702.41420622915,1,0,2548492.40284535,2548493.4501489,9,1,80,0,4
35,697,495.360643137246,0,0,2548495.20312908,2548496.25020903,9,0,75,0,8
35,698,444.840676616877,0,0,2548497.94437526,2548498.9914606,9,0,85,8,8
35,699,629.352465737611,0,0,2548500.56798853,2548501.61507195,9,0,91,8,4
35,700,692.071460187435,1,0,2548503.36807715,2548504.41517674,9,1,65,8,8
35,701,475.567106157541,0,0,2548506.19168226,2548507.23876337,9,0,66,8,16
35,702,498.353329952806,1,0,2548508.73292852,2548509.78001887,9,1,84,0,16
35,703,539.45946181193,0,0,2548511.39183232,2548512.43891497,9,0,96,4,4
35,704,397.650622297078,1,0,2548514.06249283,2548515.10957817,9,1,65,8,16
35,705,357.415272854269,1,0,2548516.65084637,2548517.69789399,9,1,77,0,4
35,706,386.474820319563,1,0,2548519.10970021,2548520.15679248,9,1,64,16,8
35,707,422.682323958725,0,0,2548521.72153637,2548522.76862595,9,0,94,4,0
35,708,465.528093744069,0,0,2548524.38050638,2548525.42753168,9,0,94,8,4
35,709,414.742504246533,0,1,2548526.93345238,2548527.98054426,9,1,81,16,0
35,710,445.793069899082,1,0,2548529.5453509,2548530.59238351,9,1,73,0,4
35,711,458.554910961539,0,0,2548532.0983019,2548533.14539841,9,0,67,4,16
35,712,420.628171879798,0,0,2548534.75727538,2548535.8042999,9,0,94,4,4
35,713,649.320005439222,1,0,2548537.29846196,2548538.34555154,9,1,69,0,0
35,714,419.17032469064,1,0,2548540.14560629,2548541.19269048,9,1,87,8,16
35,715,440.980672836304,0,0,2548542.62803051,2548543.6751274,9,0,69,4,4
35,716,674.273559823632,0,0,2548545.29869448,2548546.34578137,9,0,99,4,16
35,717,524.355133064091,0,0,2548548.16936569,2548549.2164545,9,0,71,16,8
35,718,415.45583633706,1,0,2548550.82826603,2548551.87535946,9,1,66,4,8
35,719,639.744101557881,0,0,2548553.39310808,2548554.4401403,9,0,92,8,0
35,720,558.49231639877,0,0,2548556.1931686,2548557.24021044,9,0,61,0,16
