sub_id,Trial,RT,Resp,Error,Fix_onset,Disp_onset,block,tid,tloc,fish_setsize,bird_setsize
32,1,808.375846012495,0,0,616811.555615383,616812.602661643,1,0,68,16,16
32,2,619.039767654613,1,0,616814.579074609,616815.626148587,1,1,75,16,4
32,3,628.630722058006,1,0,616817.367281747,616818.414269878,1,1,83,8,8
32,4,620.136910583824,0,0,616820.190697549,616821.237735725,1,0,79,8,4
32,5,460.216197534464,1,0,616822.978870425,616824.025896667,1,1,73,8,0
32,6,712.253418751061,0,0,616825.684684821,616826.731714143,1,0,90,16,0
32,7,624.179401202127,1,0,616828.484614065,616829.531641462,1,1,91,16,8
32,8,638.94925522618,1,0,616831.261017099,616832.308066439,1,1,67,16,8
32,9,665.282226167619,1,0,616834.084501425,616835.131503799,1,1,76,4,16
32,10,547.32665407937,0,0,616836.931457681,616837.978493162,1,0,84,8,8
32,11,455.065015004948,0,0,616839.707850706,616840.754889267,1,0,66,0,8
32,12,537.1286139125,0,0,616842.307786186,616843.354823592,1,0,70,16,8
32,13,486.75281368196,0,0,616845.095976385,616846.142985304,1,0,77,16,0
32,14,670.725980191492,1,0,616847.742973524,616848.789984368,1,1,94,0,4
32,15,694.253344787285,0,0,616850.507640593,616851.554617175,1,0,89,8,16
32,16,451.549923047423,1,0,616853.42516624,616854.472187092,1,1,67,4,4
32,17,586.098916362971,0,0,616856.001563191,616857.048584814,1,0,83,0,16
32,18,663.434791611508,0,0,616858.707380282,616859.754403829,1,0,99,0,16
32,19,560.637500369921,1,0,616861.519075518,616862.566107534,1,1,70,0,0
32,20,641.785273561254,0,0,616864.177874065,616865.224860656,1,0,100,4,0
32,21,440.22856245283,1,0,616867.036586689,616868.083611392,1,1,67,0,4
32,22,665.860439883545,0,0,616869.718871796,616870.765950008,1,0,81,4,0
32,23,585.854850243777,1,0,616872.624673026,616873.671707352,1,1,87,16,8
32,24,547.562250983901,0,0,616875.306961212,616876.353987069,1,0,98,0,8
32,25,579.834037576802,1,0,616878.059898475,616879.106867743,1,1,78,0,8
32,26,476.83541115839,0,0,616880.765649737,616881.812682524,1,0,96,4,0
32,27,594.984619528987,1,0,616883.365570589,616884.412618389,1,1,86,4,16
32,28,667.459958815016,0,0,616886.083156751,616887.130194157,1,0,71,4,4
32,29,597.738640848547,1,0,616888.800747148,616889.847769155,1,1,90,0,16
32,30,614.934913115576,1,0,616891.459492186,616892.506524972,1,1,85,8,16
32,31,641.683643567376,0,0,616894.294713632,616895.341752192,1,0,78,16,0
32,32,502.381133846939,1,0,616897.07112013,616898.118147912,1,1,70,0,0
32,33,465.063259587623,1,0,616899.753452972,616900.800436483,1,1,73,4,8
32,34,744.125614291988,1,0,616902.400397371,616903.447428233,1,1,79,8,8
32,35,553.830209537409,1,0,616905.235617662,616906.282648524,1,1,73,4,8
32,36,503.557194257155,1,0,616907.964957113,616909.011990669,1,1,96,4,0
32,37,547.28738788981,1,0,616910.706064865,616911.753107661,1,1,68,4,4
32,38,614.767069462687,0,0,616913.32953387,616914.376567426,1,0,96,0,4
32,39,773.893220233731,0,0,616916.03534711,616917.082383746,1,0,71,16,0
32,40,611.864837701432,0,0,616918.976526389,616920.023483338,1,0,71,16,16
32,41,414.024938945659,0,0,616921.835195127,616922.882238693,1,0,62,16,16
32,42,707.486813771538,0,0,616924.50572425,616925.552750107,1,0,89,8,0
32,43,477.917540585622,0,0,616927.317421411,616928.364488459,1,0,96,8,8
32,44,526.548306108452,1,0,616929.893824522,616930.940854999,1,1,77,0,0
32,45,474.010941688903,0,1,616932.623171287,616933.670198299,1,1,100,8,16
32,46,670.093871885911,0,0,616935.270152258,616936.317193513,1,0,99,8,16
32,47,512.885989039205,1,0,616938.01126694,616939.058287792,1,1,66,4,4
32,48,591.319392086007,1,0,616940.622970337,616941.669998889,1,1,95,0,4
32,49,513.61934246961,1,0,616943.340593455,616944.387573117,1,1,95,16,16
32,50,677.723827422597,0,0,616945.987542859,616947.034574876,1,0,67,4,16
32,51,669.614208629355,0,0,616948.775698797,616949.822729273,1,0,80,16,4
32,52,744.659557240084,1,0,616951.634453382,616952.681485783,1,1,71,8,0
32,53,486.305487225764,0,0,616954.504968569,616955.55200405,1,0,66,4,4
32,54,838.129593175836,0,0,616957.104903279,616958.151939531,1,0,72,0,16
32,55,527.174254995771,0,0,616960.104828212,616961.151859458,1,0,72,0,4
32,56,525.713322567753,0,0,616962.775355025,616963.822398976,1,0,81,16,8
32,57,684.867190546356,0,0,616965.528265341,616966.575263096,1,0,68,4,8
32,58,565.584652824327,0,0,616968.41050687,616969.457531957,1,0,82,8,4
32,59,650.82573168911,0,0,616971.069270386,616972.116300478,1,0,71,4,8
32,60,435.276405652985,0,0,616973.939781339,616974.986802961,1,0,72,16,4
32,61,509.169561672024,0,0,616976.480892248,616977.527923495,1,0,91,8,0
32,62,569.490866735578,0,0,616979.092587176,616980.139621887,1,0,85,4,16
32,63,562.90030956734,1,0,616981.857238077,616982.904255465,1,1,75,8,8
32,64,604.524758760817,1,0,616984.598336205,616985.645360907,1,1,98,0,16
32,65,511.581351282075,1,0,616987.292387304,616988.339418165,1,1,98,0,0
32,66,468.985641957261,1,0,616989.962909497,616991.00993189,1,1,67,8,4
32,67,628.216502373107,1,0,616992.574652546,616993.621629513,1,1,93,8,4
32,68,552.738456055522,1,0,616995.445152335,616996.492158944,1,1,64,8,16
32,69,457.161905476823,0,0,616998.256817929,616999.303844556,1,0,63,16,16
32,70,481.689017615281,0,0,617000.939104575,617001.986128507,1,0,66,4,8
32,71,629.611991345882,1,0,617003.574333412,617004.621358114,1,1,89,8,4
32,72,422.707381891087,1,0,617006.280146268,617007.327176359,1,1,65,4,16
32,73,486.896019545384,1,1,617008.891842351,617009.938870133,1,0,89,16,4
32,74,589.455403969623,1,0,617011.51530789,617012.562339522,1,1,81,4,0
32,75,491.957505815662,1,0,617014.279969955,617015.32697002,1,1,96,8,0
32,76,433.386240038089,1,0,617016.856347659,617017.903371591,1,1,95,0,8
32,77,692.42438825313,0,0,617019.409228794,617020.456254652,1,0,70,0,8
32,78,744.831250514835,1,0,617022.173862757,617023.220906707,1,1,100,16,4
32,79,540.373462368734,0,0,617025.044384489,617026.091408806,1,0,84,0,0
32,80,470.168631523848,1,0,617027.679606011,617028.726633023,1,1,74,16,0
32,81,824.16123105213,1,0,617051.608420296,617052.655448463,2,1,71,0,4
32,82,798.393385019153,0,0,617054.561281645,617055.608315971,2,0,91,4,16
32,83,557.219803798944,1,0,617057.561210812,617058.608240904,2,1,79,8,4
32,84,488.782335538417,0,0,617060.184689826,617061.231709908,2,0,66,0,0
32,85,563.598246546462,1,0,617062.761078308,617063.808104165,2,1,97,8,8
32,86,802.066311589442,1,0,617065.490423918,617066.537452085,2,1,91,4,4
32,87,386.351528810337,0,0,617068.408003074,617069.455028931,2,0,64,0,16
32,88,411.052643903531,0,0,617070.878521495,617071.925553512,2,0,65,0,8
32,89,576.109140994959,1,0,617073.490230282,617074.53725075,2,1,100,0,0
32,90,561.256904969923,1,0,617076.290154521,617077.337188078,2,1,99,0,8
32,91,634.39822930377,1,0,617078.948904564,617079.99593735,2,1,62,16,0
32,92,486.719706794247,1,0,617081.713560469,617082.760574777,2,1,83,0,8
32,93,485.651821014471,0,0,617084.254657519,617085.301688381,2,0,65,16,16
32,94,825.181766529568,0,0,617086.972235982,617088.019273773,2,0,70,8,16
32,95,507.188159856014,1,0,617089.925097331,617090.972143976,2,1,65,4,0
32,96,493.341445806436,0,0,617092.583867007,617093.630895944,2,0,68,8,8
32,97,727.385137579404,0,0,617095.183795173,617096.230829114,2,0,92,8,8
32,98,515.134169720113,1,0,617098.019019313,617099.066055564,2,1,80,8,4
32,99,924.193336861208,1,0,617100.666017607,617101.71303846,2,1,93,16,4
32,100,585.424462216906,1,0,617103.677701602,617104.724734774,2,1,63,4,0
32,101,446.110403630883,0,0,617106.359981704,617107.407038743,2,0,83,4,4
32,102,559.944952954538,0,0,617108.948154272,617109.995192833,2,0,63,8,16
32,103,589.226736221462,0,0,617111.701025322,617112.748063113,2,0,80,16,0
32,104,619.300002232194,1,0,617114.453903686,617115.500934548,2,1,76,8,16
32,105,672.185757663101,1,0,617117.289127057,617118.336157148,2,1,69,4,8
32,106,811.07635749504,1,0,617120.042003111,617121.089030123,2,1,61,4,0
32,107,719.726694747806,1,0,617123.11253208,617124.159540229,2,1,91,4,4
32,108,619.654937647283,1,0,617126.053613578,617127.10064444,2,1,83,4,8
32,109,575.380407040939,0,0,617128.794724796,617129.841752962,2,0,86,16,4
32,110,457.157670869492,1,0,617131.524069251,617132.571097033,2,1,98,4,8
32,111,677.526726620272,0,0,617134.100470822,617135.147500144,2,0,63,4,16
32,112,550.299333990552,0,0,617136.888641003,617137.935675329,2,0,62,16,8
32,113,469.810616457835,1,0,617139.500335546,617140.547364098,2,1,89,16,16
32,114,550.887941499241,0,0,617142.159094827,617143.206129539,2,0,74,0,4
32,115,472.705533960834,1,0,617144.9001995,617145.947237291,2,1,77,16,8
32,116,555.910161696374,1,0,617147.606010816,617148.653043603,2,1,85,8,0
32,117,454.086440498941,1,0,617150.311831756,617151.358864543,2,1,88,8,0
32,118,715.07942804601,0,0,617152.852945745,617153.899968908,2,0,68,0,8
32,119,422.714696149342,0,0,617155.62934878,617156.676373867,2,0,79,0,16
32,120,385.447636945173,0,0,617158.264573382,617159.311604629,2,0,86,8,0
32,121,621.001921244897,0,0,617160.793920224,617161.840942231,2,0,71,0,0
32,122,646.967638051137,0,0,617163.546788194,617164.593820211,2,0,69,8,8
32,123,528.172462712973,1,0,617166.393777942,617167.440816118,2,1,65,8,0
32,124,825.909730512649,0,0,617169.076077677,617170.123107768,2,0,97,16,0
32,125,564.718872192316,0,0,617172.017174573,617173.0642012,2,0,99,4,8
32,126,547.62192023918,0,0,617174.770049473,617175.817119601,2,0,95,8,4
32,127,490.582034923136,0,0,617177.464092487,617178.511120269,2,0,87,16,0
32,128,573.348575388081,1,0,617180.099326713,617181.14635796,2,1,72,0,16
32,129,807.444236939773,1,0,617182.899254033,617183.946281815,2,1,78,0,16
32,130,482.519766665064,0,0,617185.84034169,617186.88738949,2,0,70,4,8
32,131,487.533517414704,1,0,617188.546173024,617189.593202731,2,1,71,4,4
32,132,405.543061438948,0,0,617191.193161694,617192.240188706,2,0,86,0,4
32,133,482.014310895465,1,0,617193.76956981,617194.816606061,2,1,62,16,4
32,134,466.597719932906,0,0,617196.393031885,617197.440059282,2,0,87,16,8
32,135,418.516680714674,1,0,617198.934162427,617199.981193674,2,1,84,0,8
32,136,462.807379662991,0,0,617201.498868839,617202.545831562,2,0,95,4,4
32,137,457.91951159481,0,0,617204.145831331,617205.192822542,2,0,98,0,4
32,138,691.962048294954,0,0,617206.792807683,617207.839800818,2,0,100,4,16
32,139,713.695103069767,1,0,617209.733914973,617210.780903104,2,1,100,8,8
32,140,381.832069600932,0,0,617212.627923264,617213.674954125,2,0,75,4,16
32,141,472.145413630642,1,0,617215.145505268,617216.19253305,2,1,65,16,4
32,142,454.457929357886,1,0,617217.757205586,617218.804238757,2,1,87,16,8
32,143,430.418949574232,0,0,617220.451258994,617221.498287546,2,0,78,4,16
32,144,618.586281896569,0,0,617223.062980869,617224.109995948,2,0,81,16,0
32,145,654.821256757714,1,0,617225.921704272,617226.968800193,2,1,76,8,0
32,146,497.88361764513,0,0,617228.627522518,617229.674555304,2,0,83,8,16
32,147,536.197004839778,0,1,617231.239220141,617232.286249847,2,1,91,16,8
32,148,661.947296583094,0,0,617233.874450132,617234.921482149,2,0,98,4,0
32,149,478.924987255596,0,0,617236.768497304,617237.815520467,2,0,78,8,4
32,150,567.727353656664,1,0,617239.297846071,617240.344876548,2,1,79,0,4
32,151,596.451711375266,1,0,617242.038955363,617243.08598199,2,1,73,16,16
32,152,706.420082831755,1,0,617244.838883452,617245.885916624,2,1,89,16,16
32,153,630.725687602535,0,0,617247.79175558,617248.838776048,2,0,99,4,0
32,154,655.331717105582,0,0,617250.568156689,617251.615186781,2,0,97,8,4
32,155,468.53562083561,1,0,617253.332786032,617254.379817664,2,1,85,0,0
32,156,468.27731106896,0,0,617255.968019489,617257.015048041,2,0,83,8,16
32,157,508.553621708415,0,0,617258.520917563,617259.567926482,2,0,86,16,4
32,158,543.274924275465,1,0,617261.156134851,617262.203152239,2,1,78,0,16
32,159,664.729805197567,1,0,617263.885472762,617264.932502854,2,1,100,16,16
32,160,684.63159352541,1,0,617266.767758561,617267.814786728,2,1,62,0,0
32,161,695.02634939272,1,0,617281.473264217,617282.520296234,3,1,94,4,16
32,162,613.348867977038,1,0,617284.296751623,617285.343767471,3,1,92,0,0
32,163,441.149007761851,1,0,617287.073131174,617288.120157416,3,1,65,0,16
32,164,529.761202749796,1,0,617289.661301047,617290.708332294,3,1,89,8,8
32,165,419.02598598972,0,0,617292.27299867,617293.320027222,3,0,95,0,0
32,166,629.916496574879,1,0,617294.908227122,617295.955301485,3,1,91,4,4
32,167,523.77542166505,1,0,617297.60228438,617298.649311777,3,1,94,8,8
32,168,575.978253735229,0,0,617300.213975073,617301.26100709,3,0,62,0,4
32,169,475.974250235595,0,0,617303.049226931,617304.096239315,3,0,69,8,8
32,170,583.227866445668,1,0,617305.719772223,617306.76674842,3,1,72,16,16
32,171,437.715912587009,1,0,617308.496184111,617309.543194185,3,1,76,4,8
32,172,596.291181980632,0,0,617311.119583437,617312.166617764,3,0,72,8,0
32,173,490.85343349725,0,0,617313.79016992,617314.837155356,3,0,76,16,16
32,174,473.537052981555,0,0,617316.425331388,617317.472364945,3,0,86,8,16
32,175,419.439050718211,0,0,617319.060564075,617320.107591087,3,0,63,8,8
32,176,548.537360853516,1,0,617321.660499556,617322.707530417,3,1,69,0,16
32,177,453.554422361776,0,0,617324.354554118,617325.40158344,3,0,88,0,8
32,178,447.367690969259,1,0,617326.954478435,617328.001509682,3,1,88,0,8
32,179,428.914901218377,1,0,617329.530894635,617330.577925881,3,1,70,0,4
32,180,512.63268373441,0,0,617332.201411439,617333.248446535,3,0,86,8,8
32,181,455.818386515602,1,0,617334.96605618,617336.013145556,3,1,74,0,0
32,182,670.540813240223,1,1,617337.601278473,617338.64830433,3,0,90,16,8
32,183,684.745157486759,1,0,617340.413008741,617341.460004571,3,1,62,8,16
32,184,629.466860322282,1,0,617343.236438017,617344.283463489,3,1,95,4,0
32,185,627.391527872533,1,0,617345.989305602,617347.036339929,3,1,92,4,0
32,186,425.530311535113,0,0,617348.695127697,617349.742154324,3,0,95,4,8
32,187,611.630395636894,1,0,617351.189177718,617352.236212044,3,1,83,8,16
32,188,486.202317290008,1,0,617353.918523328,617354.965545335,3,1,72,8,0
32,189,502.748003113084,1,0,617356.494931828,617357.541968464,3,1,61,8,4
32,190,759.718902991153,0,0,617359.236033036,617360.283066208,3,0,62,4,4
32,191,515.019065933302,1,0,617362.141875842,617363.188885146,3,1,95,0,8
32,192,483.105294406414,1,0,617364.89471956,617365.941746572,3,1,76,16,0
32,193,651.960985851474,0,0,617367.588773353,617368.635831547,3,0,70,16,0
32,194,514.57481936086,0,0,617370.376941609,617371.423966312,3,0,76,4,16
32,195,567.471353686415,0,0,617373.012163902,617374.059194764,3,0,78,8,16
32,196,600.274388445541,1,0,617375.753267805,617376.800302131,3,1,90,16,16
32,197,530.940342694521,1,0,617378.529670839,617379.57670632,3,1,64,4,8
32,198,448.264653445221,0,0,617381.235488315,617382.282515712,3,0,83,0,16
32,199,419.216542388313,0,0,617383.741298938,617384.788329029,3,0,73,0,4
32,200,546.892416314222,0,0,617386.317727841,617387.364757548,3,0,99,4,0
32,201,529.39009887632,0,0,617389.047084615,617390.094090839,3,0,97,16,16
32,202,634.650764637627,0,0,617391.658761065,617392.705789232,3,0,90,0,8
32,203,604.866990353912,1,0,617394.517527969,617395.564538812,3,1,91,4,4
32,204,505.944346194156,0,0,617397.364500778,617398.41153241,3,0,83,4,0
32,205,662.041227449663,0,1,617400.01152063,617401.058536478,3,1,70,0,0
32,206,695.510247140192,0,0,617402.834947596,617403.881976148,3,0,92,8,0
32,207,559.427563450299,1,0,617405.634881075,617406.681910012,3,1,83,4,8
32,208,503.179161110893,0,0,617408.305398649,617409.35243875,3,0,97,0,4
32,209,521.697779418901,0,0,617410.940661748,617411.987666047,3,0,75,4,0
32,210,844.219314167276,1,0,617413.611149295,617414.658180157,3,1,66,8,4
32,211,775.664817309007,1,0,617416.528731531,617417.575761623,3,1,83,16,4
32,212,683.236874639988,0,0,617419.505126404,617420.55215611,3,0,98,16,0
32,213,533.197762444615,1,0,617422.387411048,617423.434433825,3,1,64,0,0
32,214,725.387952406891,0,0,617425.010877743,617426.05789744,3,0,83,16,4
32,215,655.531127587892,0,0,617427.857861716,617428.904889498,3,0,61,0,8
32,216,524.298970587552,0,0,617430.7519393,617431.798937054,3,0,71,0,16
32,217,646.992660593241,0,0,617433.434188989,617434.481222546,3,0,82,16,4
32,218,643.795932410285,1,0,617436.163549228,617437.210563536,3,1,79,4,4
32,219,505.697970278561,1,0,617438.904639272,617439.951675908,3,1,99,8,0
32,220,632.528081769124,0,0,617441.598696145,617442.645723927,3,0,90,8,0
32,221,574.792569386773,1,0,617444.35156527,617445.398593822,3,1,84,16,0
32,222,466.809064266272,0,0,617447.151496054,617448.198527685,3,0,98,4,16
32,223,557.471569278277,1,0,617449.83378116,617450.880808172,3,1,94,8,4
32,224,603.40105346404,0,0,617452.539598636,617453.586631037,3,0,96,16,8
32,225,641.43303304445,0,0,617455.386583764,617456.433610006,3,0,81,16,0
32,226,572.098987177014,1,0,617458.115928989,617459.16296678,3,1,61,16,4
32,227,837.188745033927,1,0,617460.809978547,617461.857008639,3,1,90,8,16
32,228,580.057700746693,1,0,617463.809909254,617464.856936266,3,1,92,16,4
32,229,498.690498992801,0,0,617466.633358548,617467.68038864,3,0,85,0,4
32,230,494.439358706586,1,0,617469.374474385,617470.421502167,3,1,66,8,4
32,231,581.028191139922,0,0,617471.997958788,617473.04498272,3,0,62,4,4
32,232,808.654173859395,0,0,617474.715513768,617475.76254771,3,0,100,4,16
32,233,498.72014101129,0,0,617477.680169981,617478.727188524,3,0,68,0,16
32,234,546.961324638687,0,0,617480.338906165,617481.385935487,3,0,96,4,8
32,235,520.091715967283,1,0,617482.985898684,617484.032938015,3,1,94,16,8
32,236,650.314501486719,0,0,617485.597602467,617486.644630634,3,0,70,8,4
32,237,571.638572146185,0,0,617488.503408316,617489.550444567,3,0,64,16,8
32,238,615.999334258959,1,0,617491.173936285,617492.220968301,3,1,78,16,8
32,239,555.586408241652,1,0,617493.856208687,617494.903244553,3,1,73,16,16
32,240,541.70697228983,1,0,617496.60910014,617497.656131002,3,1,67,4,16
32,241,732.548253727145,1,0,617506.93828037,617507.985273121,4,1,81,8,8
32,242,473.865040927194,1,0,617509.902879224,617510.94996475,4,1,73,16,8
32,243,735.711105167866,0,0,617512.443988208,617513.491028694,4,0,61,0,0
32,244,570.050217094831,1,0,617515.349802142,617516.396832619,4,1,90,16,4
32,245,524.950327002443,1,0,617518.102675502,617519.149710983,4,1,62,8,4
32,246,540.737636853009,1,0,617520.737912808,617521.784941745,4,1,71,16,0
32,247,511.517832521349,0,0,617523.361372958,617524.408386112,4,0,84,0,0
32,248,426.637078518979,1,0,617526.079004931,617527.125978818,4,1,62,4,4
32,249,450.140575529076,1,0,617528.690683306,617529.737701079,4,1,63,0,4
32,250,571.65089098271,1,0,617531.219991266,617532.267030212,4,1,98,0,16
32,251,507.231275667436,1,0,617533.890522314,617534.937550866,4,1,86,8,4
32,252,486.926431651227,1,0,617536.478693343,617537.525792342,4,1,67,4,16
32,253,486.672356491908,0,0,617539.113924489,617540.160946112,4,0,63,4,8
32,254,466.338640195318,1,0,617541.737381945,617542.784408957,4,1,78,8,16
32,255,581.652215099894,0,0,617544.302024838,617545.349055315,4,0,64,16,0
32,256,740.525060566142,0,0,617547.101955237,617548.148988409,4,0,92,4,0
32,257,486.748194089159,1,0,617549.960743314,617551.007740684,4,1,94,0,16
32,258,454.547625500709,1,0,617552.548887779,617553.595904397,4,1,73,16,16
32,259,681.205812725239,1,0,617555.172349469,617556.219378406,4,1,90,8,16
32,260,454.521448118612,1,0,617557.984034696,617559.031076722,4,1,65,16,8
32,261,585.449099773541,0,0,617560.67818473,617561.725120506,4,0,91,4,8
32,262,454.955685767345,1,0,617563.360374751,617564.407407537,4,1,96,0,0
32,263,727.479838184081,0,0,617565.972132043,617567.019093996,4,0,97,0,16
32,264,867.664296878502,0,0,617568.783772999,617569.830798086,4,0,91,16,4
32,265,596.294261747971,1,0,617571.866045632,617572.913074954,4,1,68,8,0
32,266,397.242116276175,0,0,617574.560130992,617575.607125668,4,0,93,8,8
32,267,661.733257584274,1,0,617577.030692914,617578.07768759,4,1,99,16,4
32,268,482.356927474029,0,0,617579.807021651,617580.854060212,4,0,73,0,4
32,269,389.433923061006,1,0,617582.536371495,617583.583406207,4,1,86,4,0
32,270,455.675565521233,0,0,617585.171609572,617586.218641973,4,0,68,0,8
32,271,418.091297149658,0,0,617587.842119832,617588.889156468,4,0,94,16,8
32,272,422.957992414013,0,0,617590.38323921,617591.430266607,4,0,76,4,8
32,273,525.63633013051,1,0,617593.053751395,617594.100785721,4,1,84,16,0
32,274,633.749952539802,0,0,617595.818451956,617596.865453945,4,0,99,16,0
32,275,419.052933342755,0,1,617598.630129483,617599.677133398,4,1,95,4,16
32,276,681.938396301121,0,0,617601.265322134,617602.31235492,4,0,100,8,0
32,277,806.633121101186,0,0,617604.04175943,617605.088746021,4,0,88,4,16
32,278,533.597353496589,0,0,617606.994591906,617608.041620843,4,0,79,8,0
32,279,502.278348896652,0,0,617609.770989551,617610.818024647,4,0,76,8,16
32,280,539.914202177897,1,0,617612.394452396,617613.441482103,4,1,98,4,4
32,281,714.357623364776,1,0,617615.123819179,617616.170840032,4,1,81,4,16
32,282,647.664035088383,1,0,617618.041379087,617619.088403789,4,1,98,16,0
32,283,493.520838324912,0,0,617620.876602073,617621.923631779,4,0,67,0,16
32,284,490.110456012189,1,0,617623.547122727,617624.594155898,4,1,68,8,8
32,285,478.300963179208,0,0,617626.111754071,617627.158791477,4,0,86,8,4
32,286,461.767981061712,0,0,617628.782285119,617629.82937257,4,0,75,8,16
32,287,681.331310537644,0,0,617631.311625417,617632.358659743,4,0,90,0,8
32,288,645.149075426161,1,0,617634.099797138,617635.146827614,4,1,71,4,16
32,289,451.198837137781,1,0,617636.887963084,617637.934997411,4,1,64,4,0
32,290,493.465788662434,1,0,617639.54672583,617640.593750917,4,1,95,16,8
32,291,567.612249986269,0,0,617642.158421143,617643.20545162,4,0,72,16,4
32,292,463.40561134275,0,0,617644.899529281,617645.946565147,4,0,87,16,8
32,293,484.389914083295,0,0,617647.59357653,617648.640611241,4,0,86,0,0
32,294,408.245112863369,0,0,617650.181752177,617651.228791123,4,0,65,4,4
32,295,652.161936275661,1,0,617652.722864626,617653.769898952,4,1,91,16,16
32,296,432.835358777083,1,0,617655.511040197,617656.558085302,4,1,85,8,4
32,297,465.517900302075,0,0,617658.040381264,617659.087412126,4,0,87,0,0
32,298,445.033278781921,0,0,617660.710901533,617661.757935475,4,0,96,0,8
32,299,855.569931794889,0,0,617663.334370153,617664.381399089,4,0,91,0,4
32,300,572.449302999303,0,0,617666.322531018,617667.369570734,4,0,89,4,8
32,301,436.637247912586,1,0,617669.028339254,617670.07537897,4,1,92,0,8
32,302,616.678407997824,0,0,617671.640051505,617672.687130102,4,0,90,8,16
32,303,656.756462994963,1,0,617674.392917936,617675.439985754,4,1,80,0,4
32,304,430.041686282493,1,0,617677.251716406,617678.298708387,4,1,85,4,0
32,305,531.205581733957,1,0,617679.745726391,617680.792758407,4,1,94,16,16
32,306,449.148912215605,1,0,617682.39272045,617683.439746692,4,1,82,8,4
32,307,485.821974347346,0,0,617684.922111948,617685.969094304,4,0,92,8,0
32,308,698.745086672716,0,0,617687.522001617,617688.569034789,4,0,78,16,16
32,309,512.151865637861,0,0,617690.439581928,617691.486604321,4,0,65,4,0
32,310,496.560501749627,0,0,617693.110098348,617694.157136909,4,0,93,0,16
32,311,683.626071549952,1,0,617695.710037293,617696.75706392,4,1,62,8,0
32,312,589.042339241132,0,0,617698.627610674,617699.674643846,4,0,69,8,8
32,313,626.488021109253,1,0,617701.298125169,617702.345171044,4,1,62,16,16
32,314,768.860606243834,0,0,617704.168652675,617705.215678917,4,0,81,4,4
32,315,698.12029262539,0,0,617707.015647812,617708.062672129,4,0,73,16,4
32,316,524.399060872383,1,0,617709.827338429,617710.874366981,4,1,68,0,8
32,317,443.662812467664,0,0,617712.544914197,617713.591950063,4,0,83,4,4
32,318,483.585727517493,1,0,617715.144863536,617716.191878614,4,1,66,8,8
32,319,514.179077930748,0,0,617717.721242009,617718.768295199,4,0,85,0,4
32,320,500.422445009463,1,0,617720.474133077,617721.521156625,4,1,85,4,8
32,321,423.132765339687,0,0,617730.697410524,617731.744439461,5,0,96,0,16
32,322,525.455012801103,1,0,617733.214999074,617734.262026471,5,1,67,0,8
32,323,899.370573577471,0,0,617735.909042473,617736.956069485,5,0,70,0,16
32,324,473.497786791995,1,0,617739.061907979,617740.10894115,5,1,83,0,16
32,325,498.948423773982,0,0,617741.638354591,617742.685339642,5,0,85,4,16
32,326,455.973526346497,0,0,617744.273555326,617745.320586572,5,0,86,16,0
32,327,502.900063176639,1,0,617746.920547075,617747.967568313,5,1,63,0,16
32,328,955.966212088242,0,0,617749.520525286,617750.567524581,5,0,73,16,0
32,329,699.164310703054,0,0,617752.579227439,617753.626252527,5,0,96,4,16
32,330,741.167177911848,1,0,617755.379152449,617756.426179461,5,1,62,0,4
32,331,587.999860872515,0,0,617758.261432858,617759.308474884,5,0,79,4,0
32,332,645.113658858463,0,0,617761.014304293,617762.061338235,5,0,99,16,8
32,333,1116.81699450128,0,0,617763.896588938,617764.94361672,5,0,93,16,4
32,334,610.252614947967,0,0,617767.214155621,617768.261183018,5,0,70,4,16
32,335,463.325924123637,0,0,617769.978788043,617771.02582006,5,0,75,0,16
32,336,925.945301074535,1,0,617772.696392684,617773.743407377,5,1,79,8,16
32,337,650.528540601954,0,0,617775.778636445,617776.825675776,5,0,86,8,0
32,338,622.155268676579,1,0,617778.602104987,617779.64912892,5,1,69,0,8
32,339,431.679316563532,1,0,617781.484462005,617782.531415874,5,1,65,4,8
32,340,494.099436793476,1,0,617784.143143909,617785.190178235,5,1,76,8,0
32,341,831.719968584366,1,0,617786.77837929,617787.825429785,5,1,77,4,8
32,342,612.137775984593,0,0,617789.742991233,617790.790032103,5,0,98,0,4
32,343,532.057118718512,0,0,617792.589987525,617793.637019156,5,0,83,0,4
32,344,843.108312576078,1,0,617795.342860114,617796.389904065,5,1,81,8,4
32,345,437.990390812047,1,0,617798.283966635,617799.331001346,5,1,74,8,8
32,346,925.533006200567,1,0,617800.848611838,617801.895644625,5,1,86,16,16
32,347,728.986196336336,1,0,617803.82501826,617804.872035263,5,1,98,16,8
32,348,476.749949506484,1,0,617806.707292125,617807.754320677,5,1,76,0,0
32,349,415.490105981007,1,0,617809.295506269,617810.342508259,5,1,78,4,0
32,350,683.309632586315,0,0,617811.777761425,617812.824787283,5,0,72,16,8
32,351,546.992121613584,0,0,617814.71887449,617815.765883794,5,0,84,8,0
32,352,438.760315766558,0,0,617817.342330021,617818.389355493,5,0,67,4,4
32,353,562.084189266898,0,0,617819.859904711,617820.906930569,5,0,69,16,4
32,354,425.499129574746,0,0,617822.636308901,617823.683339377,5,0,88,0,4
32,355,439.959473791532,1,0,617825.306834944,617826.353860031,5,1,76,0,0
32,356,443.727486184798,0,0,617827.848043249,617828.895054477,5,0,77,4,4
32,357,476.689125411212,1,0,617830.483171226,617831.530202472,5,1,86,8,16
32,358,543.388873222284,0,0,617833.106634071,617834.153670707,5,0,63,16,16
32,359,512.012124294415,0,0,617835.847741438,617836.894778074,5,0,69,0,4
32,360,420.953877852298,0,0,617838.541802161,617839.588825323,5,0,65,8,16
32,361,686.356225283816,1,0,617841.212325509,617842.259355986,5,1,98,8,16
32,362,721.566430176608,1,0,617844.012250134,617845.059277531,5,1,89,8,4
32,363,700.247979955748,1,0,617846.894528619,617847.941561405,5,1,71,4,4
32,364,515.481790876947,1,0,617849.800349097,617850.847379958,5,1,71,8,4
32,365,758.425044245087,0,0,617852.553210138,617853.600251008,5,0,96,4,0
32,366,1046.70994426124,0,0,617855.412040945,617856.459010983,5,0,70,8,0
32,367,678.509150748141,0,0,617858.694242668,617859.741277765,5,0,71,16,16
32,368,489.637337159365,1,0,617861.447114873,617862.49414766,5,1,83,0,8
32,369,570.810517878272,1,0,617864.058840983,617865.105854907,5,1,95,4,4
32,370,1350.72941402905,1,0,617866.846984217,617867.894007764,5,1,84,16,4
32,371,607.44777857326,1,0,617870.435113669,617871.482158389,5,1,82,16,16
32,372,472.518827300519,1,0,617873.235061391,617874.282091868,5,1,95,4,16
32,373,752.295287209563,0,0,617875.964406616,617877.011425159,5,0,79,16,16
32,374,665.623302920721,1,0,617878.834920264,617879.881952666,5,1,70,8,0
32,375,563.595166779123,1,0,617881.623084671,617882.670117842,5,1,99,16,4
32,376,396.499523660168,0,0,617884.375955721,617885.422988122,5,0,64,8,8
32,377,904.514826717786,1,0,617886.917123989,617887.964105576,5,1,91,16,8
32,378,487.778353504837,0,0,617889.928832622,617890.97579265,5,0,64,0,0
32,379,781.609792262316,1,0,617892.575795884,617893.622787865,5,1,87,8,8
32,380,679.316802066751,0,0,617895.599229318,617896.646245166,5,0,93,4,4
32,381,464.505064068362,0,0,617898.446198663,617899.493225675,5,0,73,8,8
32,382,754.293627338484,0,0,617901.152014598,617902.199034681,5,0,80,16,0
32,383,462.740396265872,0,0,617904.010760714,617905.05780274,5,0,74,4,0
32,384,1003.58183169737,1,0,617906.598940211,617907.645958754,5,1,88,16,0
32,385,623.357891337946,1,0,617909.83414187,617910.881176196,5,1,61,4,8
32,386,1732.80155903194,0,0,617912.610561842,617913.657591164,5,0,89,16,4
32,387,435.559737961739,0,0,617916.586929768,617917.633962939,5,0,68,0,8
32,388,638.468437246047,1,0,617919.233918823,617920.280955844,5,1,90,8,4
32,389,567.173392744735,1,0,617921.963263663,617923.010289135,5,1,89,8,4
32,390,426.826479961164,0,1,617924.59849558,617925.645530676,5,1,83,16,0
32,391,476.843495271169,0,0,617927.198462242,617928.245462307,5,0,84,0,0
32,392,699.794494197704,1,0,617929.845442442,617930.892457521,5,1,98,0,8
32,393,429.860753938556,0,0,617932.786552428,617933.833566351,5,0,85,4,8
32,394,609.456897480413,1,0,617935.327646014,617936.374670331,5,1,79,8,8
32,395,517.603703774512,1,0,617938.080513599,617939.127543691,5,1,64,4,8
32,396,587.809689459391,1,0,617940.727505348,617941.774545449,5,1,70,4,0
32,397,595.117046614178,0,1,617943.539206359,617944.586231446,5,1,71,16,8
32,398,901.533292722888,0,0,617946.256784052,617947.303817993,5,0,92,4,16
32,399,693.196238018572,0,0,617949.397883566,617950.444912888,5,0,78,8,16
32,400,680.624134489335,0,0,617952.162519068,617953.20954762,5,0,81,0,0
32,401,598.067398765124,1,0,617976.561919913,617977.60894577,6,1,63,8,4
32,402,604.775369283743,1,0,617979.303019196,617980.350146684,6,1,96,16,8
32,403,531.683705165051,0,0,617982.138253731,617983.185285747,6,0,88,16,8
32,404,419.28930033464,0,0,617984.914647141,617985.961691091,6,0,95,0,16
32,405,586.431139032356,0,0,617987.573409117,617988.620449603,6,0,79,16,0
32,406,641.326783341356,1,0,617990.373344905,617991.420667568,6,1,70,0,4
32,407,822.805393254384,0,0,617993.126212875,617994.173250666,6,0,79,8,0
32,408,510.54772711359,0,0,617996.173199851,617997.220226864,6,0,78,8,8
32,409,594.805611879565,1,0,617998.879043504,617999.926050113,6,1,78,8,8
32,410,442.982968874276,0,0,618001.631882987,618002.678921163,6,0,68,4,4
32,411,1052.62296728324,0,0,618004.255355071,618005.302379389,6,0,90,0,16
32,412,708.856895100325,1,0,618007.467096349,618008.514089484,6,1,91,16,0
32,413,446.062668343075,0,0,618010.325793189,618011.372820586,6,0,74,4,8
32,414,445.222295238636,1,0,618012.831603813,618013.878638909,6,1,74,16,16
32,415,455.454982002266,0,0,618015.490367714,618016.537403965,6,0,68,0,8
32,416,448.412479017861,1,0,618018.196183649,618019.243219515,6,1,74,8,8
32,417,577.721363748424,0,0,618020.807887046,618021.854904049,6,0,98,16,8
32,418,524.512624833733,1,0,618023.6313425,618024.678370667,6,1,70,16,0
32,419,483.62422385253,1,0,618026.384219324,618027.431249801,6,1,68,8,4
32,420,564.552183495834,1,0,618029.031214539,618030.078240396,6,1,88,4,0
32,421,438.148225424811,1,0,618031.807609488,618032.854648819,6,1,63,0,16
32,422,528.711025137454,1,0,618034.348728867,618035.395818243,6,1,79,4,8
32,423,740.292928181589,0,0,618036.97221096,618038.019223728,6,0,93,4,4
32,424,435.388044686988,1,0,618039.81917607,618040.866207702,6,1,67,8,16
32,425,517.535565420985,1,0,618042.324997472,618043.372027564,6,1,77,8,16
32,426,759.092569118366,0,0,618045.101399736,618046.148431753,6,0,100,0,8
32,427,611.574576003477,1,0,618047.924864044,618048.971891826,6,1,82,16,4
32,428,1767.63450074941,0,0,618050.724860656,618051.771830309,6,0,100,0,4
32,429,863.222985179164,1,0,618054.642345497,618055.689365579,6,1,78,8,0
32,430,580.348347313702,0,0,618057.606970913,618058.654183862,6,0,73,8,0
32,431,654.754273360595,1,0,618060.265782164,618061.312763366,6,1,97,8,8
32,432,475.923435180448,1,0,618063.171541818,618064.218627344,6,1,64,8,16
32,433,633.487023180351,0,0,618065.842064012,618066.889095259,6,0,77,4,0
32,434,502.500857226551,1,0,618068.594936217,618069.641969773,6,1,75,16,8
32,435,403.35147024598,0,0,618071.277230562,618072.324262579,6,0,75,0,4
32,436,444.136316305958,1,0,618073.771282892,618074.818310289,6,1,72,0,16
32,437,435.52509136498,1,0,618076.441793922,618077.488826324,6,1,64,4,0
32,438,679.979707347229,0,0,618079.006448365,618080.053530811,6,0,93,0,0
32,439,468.997575808316,1,0,618081.806379918,618082.853423869,6,1,86,4,4
32,440,1185.65944314469,0,0,618084.429841609,618085.4768717,6,0,65,4,8
32,441,563.687557820231,1,0,618087.829763307,618088.876791859,6,1,96,16,4
32,442,459.94749374222,1,0,618090.547349854,618091.594379946,6,1,87,8,16
32,443,456.093249726109,0,0,618093.253148852,618094.300183178,6,0,86,16,4
32,444,634.317002259195,1,0,618095.864849554,618096.91188542,6,1,62,16,8
32,445,520.787343150005,0,0,618098.735419791,618099.782417546,6,0,67,16,16
32,446,747.530607157387,1,0,618101.370603588,618102.417630985,6,1,83,16,4
32,447,480.08988366928,1,0,618104.241116081,618105.288152717,6,1,65,4,8
32,448,473.782274057157,1,0,618106.876396887,618107.923390408,6,1,63,8,4
32,449,431.207737652585,1,0,618109.546870961,618110.593897973,6,1,65,0,8
32,450,414.766761590727,0,0,618112.076222423,618113.123318343,6,0,74,0,0
32,451,486.722786561586,0,0,618114.664449655,618115.711420463,6,0,82,0,4
32,452,477.141841198318,1,0,618117.276093768,618118.32312617,6,1,77,8,4
32,453,479.087826330215,0,0,618119.828971439,618120.876003071,6,0,76,16,16
32,454,606.616644654423,1,0,618122.546550672,618123.593584229,6,1,89,16,16
32,455,548.77411283087,0,0,618125.240602541,618126.287634942,6,0,90,4,16
32,456,572.883925633505,1,0,618127.852304398,618128.899367981,6,1,90,16,0
32,457,917.771393433213,0,0,618130.593407916,618131.640440702,6,0,88,4,4
32,458,609.579315641895,0,0,618133.687453856,618134.734483948,6,0,92,0,4
32,459,424.324609106407,0,0,618136.428561993,618137.47558785,6,0,77,0,0
32,460,408.629305311479,0,0,618138.934366457,618139.981403093,6,0,75,4,0
32,461,480.691579869017,1,0,618141.487294943,618142.534290003,6,1,74,0,8
32,462,408.424890250899,0,0,618144.122481819,618145.16952192,6,0,85,8,8
32,463,608.847502036951,0,0,618146.593016024,618147.64005112,6,0,67,8,16
32,464,601.249883184209,1,0,618149.357649987,618150.404683543,6,1,81,4,16
32,465,711.138567538001,0,0,618152.039927009,618153.08696172,6,0,81,4,16
32,466,570.010950905271,1,0,618154.933983804,618155.981072795,6,1,69,0,0
32,467,580.493093235418,0,0,618157.710394538,618158.7574177,6,0,72,0,16
32,468,1300.93952652533,1,0,618160.486785638,618161.533916205,6,1,99,8,0
32,469,493.544320925139,0,0,618163.910277047,618164.957266333,6,0,68,8,0
32,470,532.613774412312,1,0,618166.663142323,618167.710137768,6,1,80,16,0
32,471,525.425370782614,0,0,618169.451260534,618170.498300635,6,0,63,4,4
32,472,493.671358679421,0,0,618172.098269607,618173.145295464,6,0,96,0,8
32,473,769.309087423608,1,0,618174.827665262,618175.874644539,6,1,79,4,16
32,474,1072.29493313935,0,0,618177.733417602,618178.780453468,6,0,87,16,4
32,475,712.059397716075,1,0,618180.92157608,618181.968697793,6,1,83,16,16
32,476,459.057460655458,0,0,618183.768565058,618184.815597074,6,0,96,0,0
32,477,866.973289172165,0,0,618186.356740705,618187.403767332,6,0,73,4,0
32,478,461.098146392033,0,0,618189.356662173,618190.403697269,6,0,66,8,4
32,479,396.89218532294,1,0,618191.897780011,618192.944885941,6,1,68,4,8
32,480,603.377185761929,0,0,618194.415361631,618195.462392493,6,0,88,4,16
32,481,472.361762542278,1,0,618212.850202503,618213.89723144,7,1,77,4,0
32,482,593.385870568454,1,0,618215.403075555,618216.450102567,7,1,93,8,8
32,483,713.425629423,1,0,618218.191246891,618219.238281987,7,1,100,16,0
32,484,482.13518911507,1,0,618221.085295987,618222.132426939,7,1,99,0,16
32,485,591.776727465913,1,0,618223.661708337,618224.708740354,7,1,80,4,16
32,486,463.298591785133,1,0,618226.438104827,618227.485134919,7,1,79,0,8
32,487,672.650022432208,0,0,618229.096860644,618230.143892661,7,0,98,16,16
32,488,506.843618466519,0,0,618232.002939432,618233.049702745,7,0,63,0,8
32,489,507.878782460466,0,0,618234.602613523,618235.649647079,7,0,75,8,16
32,490,367.760152439587,0,0,618237.249598728,618238.296638059,7,0,75,4,8
32,491,409.166712895967,0,0,618239.708364246,618240.755398572,7,0,63,0,0
32,492,542.751760338433,0,0,618242.190649429,618243.237686835,7,0,71,16,4
32,493,451.50488242507,1,0,618244.978824615,618246.025844697,7,1,72,0,16
32,494,694.69913141802,0,0,618247.578763175,618248.625785952,7,0,97,4,0
32,495,565.443756524473,1,0,618250.461031651,618251.508071366,7,1,91,0,16
32,496,532.078676624224,0,0,618253.096270112,618254.143295584,7,0,93,8,0
32,497,665.378466830589,1,0,618255.708000071,618256.755002446,7,1,61,16,4
32,498,549.972115899436,1,0,618258.531463994,618259.578466754,7,1,70,0,4
32,499,582.323204725981,0,0,618261.307881272,618262.354858624,7,0,82,0,0
32,500,656.635584891774,0,0,618264.060701507,618265.107730829,7,0,83,8,4
32,501,453.228359227069,0,0,618266.790036723,618267.837069894,7,0,65,0,8
32,502,414.263230632059,0,0,618269.484094366,618270.531125997,7,0,95,8,4
32,503,467.450796742924,0,0,618272.142887909,618273.189906067,7,0,64,8,16
32,504,481.249005533755,0,0,618274.836906285,618275.883941766,7,0,69,16,16
32,505,417.742906138301,0,1,618277.413349047,618278.460343338,7,1,72,8,4
32,506,553.850997472182,1,0,618279.954424155,618281.001458482,7,1,86,16,8
32,507,482.617162051611,1,0,618282.648487572,618283.69561121,7,1,74,16,8
32,508,603.78486092668,0,1,618285.295511274,618286.342501329,7,1,91,4,4
32,509,548.410708201118,1,0,618288.130699228,618289.177727395,7,1,95,16,8
32,510,489.161523524672,0,0,618290.907106112,618291.954136588,7,0,82,0,8
32,511,540.006593102589,0,0,618293.507040052,618294.554070529,7,0,72,16,4
32,512,453.991354792379,1,0,618296.306963906,618297.353989379,7,1,65,4,4
32,513,585.799030726776,0,0,618298.895201918,618299.942220461,7,0,69,8,0
32,514,458.911944762804,1,0,618301.695072648,618302.74209812,7,1,63,0,4
32,515,628.606469254009,0,0,618304.330307644,618305.377325032,7,0,87,16,4
32,516,574.08000389114,1,0,618307.200815132,618308.247844839,7,1,78,8,0
32,517,517.391204601154,1,0,618310.000747841,618311.047781012,7,1,81,0,0
32,518,1070.23692387156,0,0,618312.753621585,618313.800652832,7,0,69,4,8
32,519,529.224565019831,0,1,618315.988825939,618317.035872199,7,1,100,8,16
32,520,833.484251517802,0,0,618318.753466831,618319.800499617,7,0,92,16,0
32,521,553.229668061249,1,0,618321.635758019,618322.682783876,7,1,66,8,8
32,522,442.122192704119,0,0,618324.282753233,618325.329774856,7,0,62,8,8
32,523,495.851016021334,1,0,618326.917978606,618327.965049119,7,1,61,8,0
32,524,520.262254402041,0,0,618329.482619189,618330.529654286,7,0,74,0,4
32,525,922.76743601542,0,0,618332.212018309,618333.259000666,7,0,98,8,4
32,526,550.46525283251,1,0,618335.294239743,618336.341274454,7,1,78,0,0
32,527,598.724529612809,1,0,618338.000067612,618339.047092314,7,1,100,16,0
32,528,1142.86470832303,0,0,618340.799984152,618341.847078918,7,0,71,16,0
32,529,743.026546551846,0,0,618344.199943962,618345.246932863,7,0,93,16,4
32,530,1272.75950578041,0,0,618347.188066716,618348.235091803,7,0,99,0,8
32,531,718.308108043857,1,0,618350.611502306,618351.658542021,7,1,100,4,8
32,532,526.094050495885,0,0,618353.505557947,618354.552582264,7,0,83,4,4
32,533,594.333647983149,0,0,618356.258421297,618357.305459088,7,0,79,4,8
32,534,650.259066955186,0,0,618358.999537904,618360.046567226,7,0,91,8,8
32,535,604.818485095166,0,0,618361.728944723,618362.775943633,7,0,69,8,8
32,536,509.644220233895,1,0,618364.469994346,618365.517017124,7,1,61,8,16
32,537,487.657475285232,0,0,618367.164026581,618368.211090935,7,0,97,4,0
32,538,576.128774089739,0,0,618369.834561479,618370.88159388,7,0,80,16,16
32,539,555.532898404635,1,0,618372.658019242,618373.705048179,7,1,78,8,0
32,540,2084.70342750661,0,0,618375.363842492,618376.410866425,7,0,80,4,4
32,541,446.70979026705,1,0,618379.610850949,618380.657849089,7,1,78,8,16
32,542,600.126562872902,0,0,618382.222493522,618383.269522844,7,0,77,0,4
32,543,530.981148709543,1,0,618385.010709514,618386.057703034,7,1,88,8,4
32,544,737.422648235224,1,0,618387.681186667,618388.728212139,7,1,85,16,8
32,545,852.223068242893,1,0,618390.516406188,618391.56343782,7,1,61,16,16
32,546,496.361476136371,0,0,618393.434019991,618394.481011201,7,0,88,16,0
32,547,500.091762281954,1,0,618396.116266601,618397.163300927,7,1,90,4,4
32,548,639.473189250566,1,0,618398.833877786,618399.880873616,7,1,86,4,16
32,549,522.154344827868,1,0,618401.70437257,618402.751398042,7,1,63,0,4
32,550,523.084414075129,0,0,618404.445481478,618405.49250156,7,0,77,16,16
32,551,453.672220930457,1,0,618407.221881432,618408.268908059,7,1,68,16,8
32,552,507.412592996843,1,0,618409.810048995,618410.857079087,7,1,99,0,0
32,553,450.567883788608,1,0,618412.56292505,618413.609954372,7,1,72,4,0
32,554,513.934241840616,0,0,618415.186449489,618416.233417217,7,0,85,4,16
32,555,434.116128832102,0,0,618417.89251719,618418.939235462,7,0,84,0,16
32,556,431.705878931098,1,1,618420.574495096,618421.621525958,7,0,99,4,16
32,557,499.208273482509,1,0,618423.186187329,618424.23322897,7,1,62,4,8
32,558,626.986932358705,1,0,618425.774358357,618426.821451583,7,1,70,4,0
32,559,490.511201904155,0,0,618428.656641847,618429.703679253,7,0,75,0,16
32,560,633.83926381357,1,0,618431.221290515,618432.268316372,7,1,61,4,16
32,561,593.363542691804,1,0,618467.102759039,618468.149782586,8,1,94,8,0
32,562,452.903835917823,1,0,618469.785045685,618470.832072697,8,1,87,4,0
32,563,452.246704953723,0,0,618472.302629614,618473.349661631,8,0,67,8,0
32,564,584.65453737881,0,0,618474.914321848,618475.961361948,8,0,72,8,16
32,565,643.276618095115,1,0,618477.549544525,618478.596580391,8,1,99,8,8
32,566,484.988915733993,0,0,618480.373018457,618481.420108988,8,0,78,8,0
32,567,498.702047858387,1,0,618483.102365222,618484.149394929,8,1,81,8,8
32,568,658.882225630805,0,0,618485.761125658,618486.80815498,8,0,99,0,16
32,569,411.040710052475,0,0,618488.57281435,618489.619843287,8,0,98,4,4
32,570,436.800856958143,1,0,618491.208050116,618492.255072124,8,1,86,16,8
32,571,495.958805433474,1,0,618493.866800159,618494.913839105,8,1,95,16,16
32,572,576.817087014206,1,0,618496.549145704,618497.596143844,8,1,80,4,4
32,573,511.298018973321,1,0,618499.325480985,618500.372532635,8,1,76,16,16
32,574,456.119812093675,0,0,618501.913656632,618502.960689419,8,0,67,8,16
32,575,605.977606959641,1,0,618504.60771543,618505.654738208,8,1,82,8,4
32,576,483.332422212698,1,0,618507.419409126,618508.466437293,8,1,79,8,0
32,577,627.030048170127,1,0,618509.995823786,618511.042843869,8,1,92,8,8
32,578,525.581665453501,0,0,618512.772214887,618513.819250368,8,0,88,0,8
32,579,552.555598900653,1,0,618515.513327259,618516.560352346,8,1,78,4,8
32,580,536.629317561165,0,0,618518.266193304,618519.313228015,8,0,69,8,4
32,581,496.98742502369,1,0,618521.030885011,618522.077877761,8,1,96,4,0
32,582,631.496767397039,0,0,618523.607237307,618524.654278177,8,0,91,16,16
32,583,474.83938082587,0,0,618526.324845412,618527.37185972,8,0,96,8,16
32,584,621.217500185594,0,0,618528.889464438,618529.936487215,8,0,96,4,8
32,585,487.739857286215,0,0,618531.618810433,618532.665847069,8,0,78,16,4
32,586,411.137335584499,0,0,618534.277573949,618535.32460404,8,0,85,4,8
32,587,442.839762778021,1,0,618536.818682548,618537.865770769,8,1,68,4,16
32,588,490.578185417689,1,0,618539.348027465,618540.395061792,8,1,70,4,16
32,589,409.681407618336,0,1,618542.006789056,618543.053862649,8,1,84,16,0
32,590,690.48995198682,0,0,618544.642015199,618545.689053375,8,0,80,4,4
32,591,527.692799456418,1,0,618547.500817904,618548.547817199,8,1,85,16,4
32,592,553.149210987613,0,0,618550.218347477,618551.265384883,8,0,96,8,4
32,593,552.966738701798,0,0,618553.006511499,618554.053538896,8,0,83,16,0
32,594,544.123381609097,0,0,618555.665274245,618556.712303951,8,0,82,0,16
32,595,593.666892964393,0,0,618558.429903202,618559.476937529,8,0,89,0,8
32,596,589.602074585855,0,0,618561.276905269,618562.32393844,8,0,93,16,8
32,597,564.393963897601,1,0,618564.018011097,618565.065041573,8,1,88,16,0
32,598,483.571099000983,1,0,618566.665007851,618567.712037942,8,1,73,0,16
32,599,864.066052949056,0,0,618569.300241692,618570.347277558,8,0,82,0,0
32,600,440.06379856728,1,0,618572.394273389,618573.4413081,8,1,65,0,0
32,601,507.625477272086,0,0,618574.923677975,618575.970656867,8,0,90,0,8
32,602,417.095014476217,1,0,618577.641201003,618578.688234175,8,1,66,4,8
32,603,443.212406360544,1,0,618580.194114476,618581.241124165,8,1,84,0,16
32,604,563.854246633127,1,0,618582.87637071,618583.923404266,8,1,82,16,4
32,605,445.82861114759,0,0,618585.570481863,618586.617488857,8,0,64,0,4
32,606,595.492769964039,1,0,618588.25270576,618589.299743551,8,1,75,8,4
32,607,489.926829002798,1,0,618591.017343957,618592.064380593,8,1,96,0,4
32,608,521.979186800309,1,0,618593.723157198,618594.770191909,8,1,71,16,8
32,609,712.563698412851,0,0,618596.33486021,618597.381894921,8,0,68,8,16
32,610,480.84287007805,0,0,618599.158323748,618600.205409659,8,0,80,0,4
32,611,470.655609038658,1,1,618601.734725319,618602.781753101,8,0,91,8,4
32,612,479.742647497915,0,0,618604.34649416,618605.393459578,8,0,87,16,0
32,613,521.568431984633,0,0,618606.934604749,618607.981630221,8,0,73,0,8
32,614,700.193315395154,0,0,618609.663959598,618610.71098892,8,0,70,4,0
32,615,527.240083669312,1,0,618612.616814017,618613.663844879,8,1,98,0,8
32,616,531.08624345623,1,0,618615.204979656,618616.252002818,8,1,83,4,8
32,617,661.062652943656,1,0,618617.85197564,618618.899001497,8,1,100,0,0
32,618,493.676363141276,0,0,618620.722497757,618621.769530543,8,0,76,16,0
32,619,668.061655014753,1,0,618623.393013021,618624.440051582,8,1,98,16,16
32,620,579.953760956414,1,0,618626.134128858,618627.181163569,8,1,82,16,16
32,621,553.480278584175,0,0,618628.910528043,618629.957556595,8,0,94,4,0
32,622,520.084401709028,0,0,618631.581097972,618632.628083408,8,0,99,16,4
32,623,1184.32631832547,1,1,618634.25157474,618635.298603677,8,0,90,8,0
32,624,657.309654168785,1,0,618637.545607899,618638.592640686,8,1,63,4,4
32,625,490.5951237306,1,0,618640.357345096,618641.40435671,8,1,73,0,4
32,626,557.262534741312,1,0,618643.039597866,618644.086620643,8,1,61,8,8
32,627,541.944494121708,0,0,618645.816044785,618646.863026372,8,0,74,0,0
32,628,588.470285059884,1,0,618648.533571664,618649.58059983,8,1,99,16,8
32,629,500.795858562924,1,0,618651.357071773,618652.404072608,8,1,83,8,16
32,630,631.681934348308,1,0,618654.098149113,618655.145173816,8,1,89,4,16
32,631,497.06634238828,0,0,618656.956895999,618658.003927631,8,0,74,0,16
32,632,443.247053073719,0,0,618659.521540432,618660.568570909,8,0,63,4,16
32,633,666.111050406471,1,0,618662.1567685,618663.203842862,8,1,71,4,16
32,634,600.987723795697,0,0,618665.050817211,618666.097844223,8,0,82,8,8
32,635,685.200953041203,0,0,618667.850745685,618668.897776932,8,0,90,4,0
32,636,485.320368316025,0,0,618670.662442461,618671.709465623,8,0,96,0,4
32,637,684.956501820125,1,0,618673.391783066,618674.438822782,8,1,72,0,0
32,638,524.05605930835,1,0,618676.191716545,618677.238747407,8,1,65,16,8
32,639,465.72962962091,0,0,618678.779926454,618679.82691959,8,0,75,16,4
32,640,448.98915279191,0,0,618681.485901379,618682.53273745,8,0,66,4,4
32,641,461.315265391022,0,0,618693.344232121,618694.391266447,9,0,76,4,4
32,642,566.185194184072,1,0,618695.920646396,618696.967673793,9,1,89,0,0
32,643,496.932760463096,0,0,618698.708806953,618699.755868226,9,0,66,16,4
32,644,450.024316785857,0,0,618701.308798252,618702.355776759,9,0,95,4,16
32,645,499.026571167633,0,0,618703.967508259,618705.014532191,9,0,68,16,8
32,646,661.142725148238,1,0,618706.720377769,618707.767409015,9,1,98,4,16
32,647,534.875428769737,1,0,618709.543836687,618710.590863699,9,1,79,16,0
32,648,664.30480661802,0,0,618712.226122948,618713.27314919,9,0,81,16,4
32,649,504.402956692502,0,0,618715.026052962,618716.073086518,9,0,64,8,0
32,650,477.281967527233,0,0,618717.720099441,618718.767134152,9,0,77,0,4
32,651,530.266658402979,1,0,618720.261228058,618721.308249681,9,1,69,4,8
32,652,641.622819472104,0,0,618723.025859711,618724.072887493,9,0,66,4,0
32,653,497.453999589197,1,0,618725.908135116,618726.955166363,9,1,99,8,0
32,654,532.593371346593,0,1,618728.613957596,618729.660987303,9,1,73,8,8
32,655,635.25207596831,0,0,618731.355060344,618732.402091206,9,0,84,16,0
32,656,482.032789033838,1,0,618734.131478777,618735.178563918,9,1,86,16,16
32,657,801.457301015034,0,0,618736.743163696,618737.790197252,9,0,75,0,16
32,658,506.698102806695,0,0,618739.660732458,618740.707781028,9,0,63,16,8
32,659,643.496816628613,1,0,618742.354785866,618743.401823657,9,1,81,8,4
32,660,787.269510212354,0,0,618745.131185435,618746.178218992,9,0,81,0,4
32,661,703.623330686241,0,0,618748.060530583,618749.107619574,9,0,98,4,8
32,662,609.428795287386,1,0,618750.883996046,618751.931024983,9,1,71,16,4
32,663,624.994751764461,0,0,618753.719215567,618754.766252973,9,0,74,0,16
32,664,577.386446413584,0,0,618756.436799805,618757.483826047,9,0,96,0,16
32,665,440.84681221284,1,0,618759.107315839,618760.154355555,9,1,96,0,0
32,666,462.553689489141,1,0,618761.636667301,618762.683719335,9,1,76,4,4
32,667,488.500158186071,0,0,618764.283661745,618765.330690682,9,0,77,4,16
32,668,476.445444161072,1,0,618766.918933313,618767.965919904,9,1,83,0,0
32,669,636.020075995475,0,0,618769.554120959,618770.601151436,9,0,64,0,4
32,670,746.357241645455,1,0,618772.318794957,618773.365788092,9,1,91,8,16
32,671,615.641319192946,0,0,618775.130470175,618776.177482559,9,0,76,4,0
32,672,721.271164016798,1,0,618777.906854731,618778.953879048,9,1,65,4,8
32,673,563.299900735728,1,0,618780.847962022,618781.894992113,9,1,71,16,16
32,674,763.769092853181,0,0,618783.589067464,618784.647870863,9,0,81,8,16
32,675,611.576885799877,0,0,618786.506657784,618787.553675942,9,0,69,0,16
32,676,600.03109218087,1,0,618789.188936346,618790.235964128,9,1,79,0,4
32,677,1467.09470637143,1,0,618792.035965745,618793.082959265,9,1,97,16,4
32,678,565.402950509451,1,0,618795.647599849,618796.694630711,9,1,95,8,0
32,679,733.65386587102,1,0,618798.306355666,618799.353385373,9,1,83,0,0
32,680,1117.76400206145,0,0,618801.200399758,618802.24742985,9,0,75,8,8
32,681,523.499403614551,1,0,618804.541493036,618805.588520818,9,1,63,8,8
32,682,476.619062246755,1,0,618807.14143429,618808.188458993,9,1,84,8,4
32,683,537.178658996709,0,0,618809.764888666,618810.811926072,9,0,66,16,4
32,684,1233.72546897735,0,0,618812.400121738,618813.447220738,9,0,81,8,16
32,685,727.89636766538,1,0,618815.694166061,618816.741188838,9,1,70,4,0
32,686,1045.77718011569,1,0,618818.647074375,618819.69406905,9,1,86,8,0
32,687,2073.26118892524,0,0,618821.764602254,618822.811628496,9,0,74,0,4
32,688,560.15090784058,1,0,618826.046845939,618827.093889889,9,1,77,16,8
32,689,466.78558154963,1,0,618828.729132585,618829.776160752,9,1,78,0,8
32,690,583.208233350888,1,0,618831.258519848,618832.305529921,9,1,63,16,0
32,691,595.929317292757,0,0,618834.046644218,618835.093796343,9,0,82,4,4
32,692,752.023118780926,0,0,618836.787792007,618837.834782832,9,0,80,16,16
32,693,577.311378670856,1,0,618839.799451749,618840.846477606,9,1,93,8,16
32,694,469.388697645627,0,0,618842.599379068,618843.646415705,9,0,71,8,4
32,695,591.882207081653,0,0,618845.164021962,618846.211055903,9,0,91,4,4
32,696,486.306257196702,1,0,618847.846308608,618848.893343319,9,1,62,16,16
32,697,517.889345879667,0,0,618850.51689817,618851.563883606,9,0,95,8,16
32,698,1244.97484148014,0,0,618853.163869902,618854.21088113,9,0,61,16,0
32,699,649.176167557016,0,0,618856.622558042,618857.669597758,9,0,89,16,0
32,700,445.352797512896,1,0,618859.387199319,618860.434228256,9,1,85,16,8
32,701,467.43501315359,0,0,618861.928301374,618862.975343399,9,0,78,0,8
32,702,431.256627780385,0,0,618864.622364791,618865.669400272,9,0,84,4,8
32,703,606.385282240808,1,0,618867.269373864,618868.316386247,9,1,80,16,8
32,704,688.34840587806,1,0,618870.022238754,618871.069270386,9,1,74,8,0
32,705,1246.66020704899,1,0,618872.786977041,618873.833912432,9,1,68,0,8
32,706,985.897812061012,1,0,618876.139719668,618877.186777092,9,1,89,4,16
32,707,2343.66843290627,0,0,618879.186721272,618880.233756754,9,0,68,8,8
32,708,567.703101085499,1,0,618883.680719708,618884.727756344,9,1,99,4,16
32,709,630.945116165094,0,0,618886.327718002,618887.374748863,9,0,92,0,8
32,710,651.960985851474,1,0,618889.139431716,618890.186446024,9,1,99,4,8
32,711,952.874193782918,1,0,618891.880516371,618892.927614601,9,1,71,8,8
32,712,517.153297667392,1,0,618895.033386112,618896.080413509,9,1,92,16,16
32,713,561.249975697137,1,0,618897.692137694,618898.73917279,9,1,68,8,4
32,714,618.613999220543,1,0,618900.362714937,618901.409694599,9,1,100,8,4
32,715,463.74322345946,1,0,618903.162597986,618904.209682357,9,1,65,0,0
32,716,503.089464851655,1,1,618905.821353418,618906.868388514,9,0,81,4,0
32,717,1019.39531904645,0,0,618908.538933805,618909.585961202,9,0,63,4,4
32,718,444.559774943627,0,0,618911.797671683,618912.844703699,9,0,71,4,0
32,719,565.909946104512,0,0,618914.303499629,618915.350533186,9,0,72,0,8
32,720,532.618778874166,0,0,618917.091662496,618918.138696823,9,0,67,0,16
