sub_id,Trial,RT,Resp,Error,Fix_onset,Disp_onset,block,tid,tloc,fish_setsize,bird_setsize
13,1,717.483437620103,0,0,1069417.1281497,1069418.17520828,1,0,96,4,4
13,2,638.320145895705,0,0,1069419.928134,1069420.97518642,1,0,80,4,4
13,3,681.365876458585,0,0,1069422.77516994,1069423.82221658,1,0,99,16,8
13,4,442.765769315884,1,0,1069425.69279414,1069426.73983578,1,1,76,0,4
13,5,664.282782934606,1,0,1069428.22217216,1069429.26921842,1,1,87,4,0
13,6,734.469135524705,0,0,1069431.08097486,1069432.12800919,1,0,96,8,4
13,7,577.866413630545,1,0,1069433.99858135,1069435.04569421,1,1,73,4,8
13,8,620.64421037212,0,0,1069436.78680119,1069437.83384476,1,0,62,4,4
13,9,653.811034513637,1,0,1069439.49266641,1069440.53969303,1,1,61,8,0
13,10,562.508337199688,0,0,1069442.22204089,1069443.269096,1,0,83,0,16
13,11,683.55130800046,1,0,1069445.03377962,1069446.08084167,1,1,96,16,8
13,12,489.985647378489,1,0,1069447.90434447,1069448.95139458,1,1,80,0,16
13,13,615.19468203187,0,0,1069450.55138049,1069451.5984152,1,0,70,8,0
13,14,649.578757351264,1,0,1069453.23370563,1069454.28075459,1,1,100,8,8
13,15,485.798025969416,0,0,1069455.98666792,1069457.03369262,1,0,90,8,16
13,16,495.350868906826,0,0,1069458.66894687,1069459.71600198,1,0,69,4,4
13,17,533.837874187157,1,0,1069461.23363095,1069462.28067529,1,1,89,4,8
13,18,416.878584772348,0,0,1069463.84537361,1069464.89242757,1,0,66,4,8
13,19,512.090575881302,1,0,1069466.45711166,1069467.50416023,1,1,80,4,8
13,20,588.49484170787,0,0,1069469.17473285,1069470.22178797,1,0,63,16,8
13,21,652.320075081661,0,0,1069471.96294846,1069473.00998971,1,0,94,0,0
13,22,621.593912597746,1,0,1069474.83357067,1069475.88057997,1,1,80,8,4
13,23,534.27711641416,0,0,1069477.70408778,1069478.75113327,1,0,86,0,16
13,24,755.610888125375,1,0,1069480.46874368,1069481.51579649,1,1,70,8,4
13,25,486.859367461875,1,0,1069483.38641677,1069484.43342492,1,1,97,0,16
13,26,508.428043220192,1,0,1069486.00987346,1069487.05692357,1,1,64,16,4
13,27,610.70986953564,1,0,1069488.57458872,1069489.6215988,1,1,80,0,0
13,28,515.026299515739,0,0,1069491.35099907,1069492.39805072,1,0,67,0,0
13,29,577.190804528072,0,0,1069493.95097613,1069494.99802393,1,0,85,0,4
13,30,571.189624955878,1,0,1069496.75095388,1069497.79800322,1,1,91,0,16
13,31,556.044817669317,0,0,1069499.39798143,1069500.44503077,1,0,68,0,4
13,32,426.570399198681,1,0,1069502.02148854,1069503.06854327,1,1,68,8,8
13,33,581.205578055233,0,0,1069504.64499566,1069505.69204423,1,0,70,0,8
13,34,718.933976255357,1,0,1069507.38614499,1069508.43325169,1,1,73,16,16
13,35,677.612107479945,1,0,1069510.22141571,1069511.26845812,1,1,97,8,16
13,36,468.554788269103,1,0,1069513.11550715,1069514.16255187,1,1,77,16,0
13,37,715.754186268896,1,0,1069515.6331342,1069516.6802074,1,1,81,16,0
13,38,616.941641550511,0,0,1069518.52721986,1069519.57427382,1,0,91,8,0
13,39,441.141997696832,1,0,1069521.35071728,1069522.39777855,1,1,86,16,4
13,40,550.995650235564,0,0,1069523.98599039,1069525.03304627,1,0,72,8,16
13,41,521.728880703449,0,0,1069526.66832823,1069527.71537642,1,0,93,0,0
13,42,649.430932011455,0,0,1069529.36241629,1069530.40946139,1,0,90,4,16
13,43,679.430285235867,0,0,1069532.20949188,1069533.25650542,1,0,98,16,16
13,44,490.740173729137,0,0,1069535.0682507,1069536.11529119,1,0,69,4,16
13,45,521.800098707899,0,0,1069537.77411245,1069538.82120413,1,0,87,8,8
13,46,646.909428061917,1,0,1069540.52707127,1069541.57407403,1,1,89,8,16
13,47,556.767777074128,1,0,1069543.32699551,1069544.37404408,1,1,93,4,0
13,48,693.773215869442,0,0,1069546.06814522,1069547.11519687,1,0,64,16,16
13,49,679.794074734673,1,0,1069548.91518116,1069549.96223127,1,1,91,8,8
13,50,549.652901245281,0,0,1069551.82106401,1069552.86808139,1,0,85,16,4
13,51,520.871569169685,1,0,1069554.47983484,1069555.52688341,1,1,61,0,8
13,52,428.088306216523,0,0,1069557.23275516,1069558.27979411,1,0,87,4,8
13,53,539.206560235471,0,0,1069559.79743655,1069560.84448435,1,0,62,16,8
13,54,517.497373279184,1,0,1069562.39740937,1069563.44445525,1,1,80,0,8
13,55,501.040228875354,0,0,1069565.12679656,1069566.17390172,1,0,86,16,4
13,56,474.078614264727,1,0,1069567.87971303,1069568.92676314,1,1,88,4,0
13,57,615.420654881746,1,0,1069570.50321553,1069571.55026564,1,1,99,16,16
13,58,730.808527674526,1,0,1069573.22086675,1069574.26789415,1,1,91,4,0
13,59,575.473487144336,1,0,1069576.20905187,1069577.25609967,1,1,81,8,0
13,60,524.371647741646,0,0,1069578.89138163,1069579.9384302,1,0,84,4,16
13,61,407.988646999002,1,0,1069581.63252557,1069582.67957799,1,1,73,0,0
13,62,556.271175388247,0,0,1069584.09132497,1069585.13838277,1,0,73,4,0
13,63,695.601017680019,0,0,1069586.70307571,1069587.75012159,1,0,91,4,16
13,64,482.486963970587,0,0,1069589.50304499,1069590.55010011,1,0,94,0,8
13,65,518.703075591475,1,0,1069592.16187049,1069593.20889365,1,1,87,16,0
13,66,491.74993019551,0,0,1069594.80887956,1069595.85593429,1,0,64,16,4
13,67,566.512331366539,1,0,1069597.49121664,1069598.53825982,1,1,90,8,8
13,68,620.553744258359,1,0,1069600.25590257,1069601.30294729,1,1,90,0,4
13,69,503.520926926285,1,0,1069602.99703804,1069604.04410932,1,1,63,16,0
13,70,572.980855358765,1,0,1069605.71467694,1069606.76170819,1,1,95,16,0
13,71,519.007196184248,1,0,1069608.47934901,1069609.52638912,1,1,72,4,16
13,72,413.245694246143,1,0,1069611.13814756,1069612.18519267,1,1,83,8,4
13,73,650.567341130227,0,0,1069613.64400053,1069614.69105757,1,0,99,8,0
13,74,516.600410919636,1,0,1069616.4086907,1069617.45574889,1,1,94,4,4
13,75,636.830341303721,1,0,1069619.06748963,1069620.11453435,1,1,79,16,8
13,76,377.1177388262,0,0,1069621.83218519,1069622.8792172,1,0,86,0,4
13,77,461.02607762441,0,0,1069624.27920088,1069625.32625677,1,0,76,8,16
13,78,717.734433244914,0,0,1069626.9615368,1069628.00860462,1,0,92,8,4
13,79,473.23285182938,1,1,1069629.92621303,1069630.97325775,1,0,81,0,8
13,80,548.94457035698,0,0,1069632.46736244,1069633.51441332,1,0,67,16,16
13,81,622.683741385117,1,0,1069658.8553707,1069659.90246586,2,1,81,4,0
13,82,431.916372617707,1,0,1069661.66710251,1069662.71415763,2,1,85,16,16
13,83,501.368216937408,1,0,1069664.33766898,1069665.38471832,2,1,66,16,16
13,84,457.434763200581,1,0,1069667.07881638,1069668.12586803,2,1,74,0,8
13,85,613.805352477357,1,0,1069669.6082125,1069670.65527801,2,1,92,16,4
13,86,422.217628918588,1,0,1069672.41995085,1069673.46700404,2,1,83,4,16
13,87,477.743841707706,0,0,1069675.05525398,1069676.10226945,2,0,86,4,8
13,88,524.458264233544,1,0,1069677.69048744,1069678.73752985,2,1,72,0,4
13,89,595.544274197891,0,0,1069680.33753039,1069681.38456857,2,0,92,4,0
13,90,407.697230577469,1,0,1069683.10219515,1069684.14932841,2,1,93,0,0
13,91,613.011559937149,0,0,1069685.71395398,1069686.76100255,2,0,89,16,4
13,92,388.832145836204,1,0,1069688.50215688,1069689.54928014,2,1,84,0,16
13,93,523.190967971459,1,0,1069691.12566669,1069692.17270988,2,1,97,16,4
13,94,615.607746876776,0,0,1069693.78446447,1069694.83151497,2,0,92,8,8
13,95,572.133552981541,1,0,1069696.46680155,1069697.51384742,2,1,86,16,8
13,96,495.573762105778,0,0,1069699.18441504,1069700.23146708,2,0,94,8,8
13,97,491.380366263911,0,0,1069701.78439325,1069702.83144798,2,0,97,4,4
13,98,359.456431819126,1,0,1069704.33731635,1069705.38435722,2,1,96,0,4
13,99,566.385293845087,0,0,1069706.77259069,1069707.81963772,2,0,91,0,8
13,100,503.690695390105,1,0,1069709.44317332,1069710.49019764,2,1,78,16,16
13,101,546.965863322839,1,0,1069712.16077989,1069713.20782422,2,1,79,8,4
13,102,558.500878280029,1,0,1069714.78426968,1069715.83133365,2,1,78,8,8
13,103,548.839860595763,1,0,1069717.50189934,1069718.5489968,2,1,89,16,16
13,104,490.429124096408,1,0,1069720.1724866,1069721.21954479,2,1,73,16,4
13,105,419.757718918845,0,0,1069722.90186069,1069723.94894969,2,0,81,8,0
13,106,490.159650333226,1,0,1069725.41948466,1069726.46652669,2,1,65,16,8
13,107,503.873937530443,1,0,1069727.99593897,1069729.04298793,2,1,63,4,8
13,108,699.666220927611,0,0,1069730.64297191,1069731.6900124,2,0,89,8,0
13,109,532.236815430224,0,0,1069733.41940959,1069734.46645431,2,0,66,16,8
13,110,544.50171883218,0,0,1069736.12527519,1069737.1723226,2,0,81,0,4
13,111,490.340967662632,0,0,1069738.91348502,1069739.96052743,2,0,69,0,16
13,112,690.759730059654,1,0,1069741.59580747,1069742.64285411,2,1,93,4,4
13,113,520.259478827938,1,0,1069744.3722617,1069745.41930835,2,1,73,16,0
13,114,680.929713882506,1,0,1069747.04282047,1069748.08987404,2,1,99,8,16
13,115,430.122832534835,0,0,1069749.85456267,1069750.90161509,2,0,66,0,8
13,116,545.050675282255,1,0,1069752.36041679,1069753.40746921,2,1,97,4,16
13,117,507.861378602684,1,0,1069755.04280122,1069756.08984363,2,1,88,8,16
13,118,457.664200803265,1,0,1069757.63096455,1069758.67801658,2,1,66,4,0
13,119,458.678961731493,0,0,1069760.18388379,1069761.23092775,2,0,85,4,4
13,120,510.32436825335,1,1,1069762.77209409,1069763.81914343,2,0,100,4,4
13,121,835.720032453537,1,0,1069765.52500941,1069766.5720599,2,1,71,8,0
13,122,489.931367803365,0,0,1069768.44268096,1069769.48968333,2,0,73,4,8
13,123,552.499698475003,0,0,1069771.01908522,1069772.06613148,2,0,72,16,16
13,124,607.213255716488,0,0,1069773.7014146,1069774.74844585,2,0,85,16,0
13,125,552.181334700435,0,0,1069776.51315911,1069777.56019459,2,0,61,4,16
13,126,529.909717384726,1,0,1069779.13666507,1069780.18370556,2,1,64,16,4
13,127,550.60106376186,0,0,1069781.77192856,1069782.8189779,2,0,69,0,0
13,128,455.082257511094,0,0,1069784.45425755,1069785.50131035,2,0,62,0,16
13,129,403.901885729283,0,0,1069786.99540657,1069788.04245052,2,0,66,0,0
13,130,419.896305305883,1,0,1069789.54833351,1069790.59538054,2,1,86,4,0
13,131,596.36462922208,0,0,1069792.06596287,1069793.11300259,2,0,91,8,4
13,132,432.80833074823,1,0,1069794.73652202,1069795.78363449,2,1,85,8,4
13,133,416.561375604942,0,0,1069797.27768297,1069798.32472615,2,0,95,4,16
13,134,530.839016661048,0,0,1069799.7835448,1069800.83061916,2,0,73,8,4
13,135,423.734380863607,0,0,1069802.52469105,1069803.57174077,2,0,88,4,8
13,136,525.426829932258,1,0,1069805.01878842,1069806.06583044,2,1,67,8,8
13,137,635.049120057374,1,0,1069807.65408501,1069808.7011305,2,1,99,0,0
13,138,565.152644179761,1,0,1069810.34815535,1069811.39520161,2,1,88,8,16
13,139,517.025024397299,0,0,1069813.14811539,1069814.19516974,2,0,66,8,16
13,140,508.789907908067,0,0,1069815.78340544,1069816.83051175,2,0,62,16,0
13,141,604.813014855608,1,0,1069818.48926411,1069819.53636773,2,1,81,8,0
13,142,430.44735584408,0,0,1069821.15982403,1069822.20687529,2,0,97,0,16
13,143,639.153974596411,1,0,1069823.6421581,1069824.68920436,2,1,99,8,8
13,144,497.811164008453,0,0,1069826.52448278,1069827.5715352,2,0,65,4,4
13,145,586.522294208407,0,0,1069829.1715188,1069830.21856352,2,0,83,4,8
13,146,454.805084504187,0,0,1069831.92443874,1069832.9714877,2,0,86,4,0
13,147,739.851295482367,1,0,1069834.5244158,1069835.57146321,2,1,75,0,4
13,148,434.429407352582,0,0,1069837.51262786,1069838.55967297,2,0,63,0,8
13,149,590.783443534747,1,0,1069840.17143103,1069841.21847113,2,1,82,8,4
13,150,555.787277640775,0,0,1069842.971398,1069844.01845119,2,0,93,8,16
13,151,384.982906514779,0,0,1069845.78321373,1069846.83019994,2,0,86,0,16
13,152,514.274852583185,0,0,1069848.25370443,1069849.30075493,2,0,71,0,0
13,153,472.741639707237,1,0,1069850.86544633,1069851.91249605,2,1,69,16,0
13,154,756.108644651249,0,0,1069853.39484629,1069854.44188254,2,0,100,4,16
13,155,449.610401410609,0,1,1069856.37129121,1069857.41833747,2,1,99,0,8
13,156,602.813135134056,0,0,1069858.97126711,1069860.01830144,2,0,69,0,4
13,157,537.311390275136,1,0,1069861.65359456,1069862.70064275,2,1,86,8,0
13,158,1039.98880414292,1,0,1069864.27712054,1069865.3241541,2,1,62,16,8
13,159,582.599526969716,0,0,1069867.55945431,1069868.60648787,2,0,91,16,0
13,160,632.147658150643,0,0,1069870.28881301,1069871.3358635,2,0,67,16,8
13,161,585.919827921316,1,0,1069894.42978856,1069895.47683251,3,1,69,8,0
13,162,721.875859191641,0,0,1069897.22975861,1069898.27680795,3,0,69,8,0
13,163,448.597565293312,1,0,1069900.20620122,1069901.25325287,3,1,84,0,0
13,164,411.385940620676,1,0,1069902.80617789,1069903.85323416,3,1,76,8,4
13,165,599.405062384903,1,0,1069905.30027988,1069906.34732576,3,1,92,16,4
13,166,371.327903587371,1,0,1069908.04143653,1069909.08848163,3,1,85,16,16
13,167,393.378167413175,0,0,1069910.64140319,1069911.68845445,3,0,64,4,8
13,168,547.142176190391,0,0,1069913.24138525,1069914.28843344,3,0,93,8,8
13,169,462.135539390147,0,0,1069916.02959624,1069917.0766502,3,0,89,0,0
13,170,603.722031228244,0,0,1069918.72377553,1069919.77077521,3,0,87,16,4
13,171,554.506507702172,0,0,1069921.40602483,1069922.45306878,3,0,72,8,8
13,172,506.361179752275,0,0,1069924.14717416,1069925.19422158,3,0,82,8,4
13,173,662.722530309111,0,0,1069926.80597887,1069927.85303167,3,0,70,16,16
13,174,742.501377128065,0,0,1069929.54713089,1069930.5941733,3,0,100,16,4
13,175,492.226513801143,0,0,1069932.42946481,1069933.47650568,3,0,87,8,16
13,176,428.200450958684,0,0,1069935.17064917,1069936.2762916,3,0,96,16,8
13,177,456.217511789873,1,0,1069937.78235218,1069938.82940037,3,1,65,4,16
13,178,546.297953464091,1,0,1069940.33527028,1069941.38232231,3,1,98,0,8
13,179,459.928164724261,1,0,1069943.01763661,1069944.064659,3,1,94,0,16
13,180,633.178972639143,1,0,1069945.68816766,1069946.73521469,3,1,69,16,0
13,181,394.363286439329,1,0,1069948.48814502,1069949.53519706,3,1,86,4,8
13,182,447.715231217444,0,0,1069950.9587081,1069952.00575782,3,0,83,8,0
13,183,492.183782858774,1,0,1069953.53516664,1069954.58220328,3,1,68,4,16
13,184,583.937271498144,0,0,1069956.1704282,1069957.2175426,3,0,93,16,16
13,185,433.535139774904,0,0,1069959.00575359,1069960.05274903,3,0,67,8,8
13,186,400.617386214435,0,0,1069961.49979783,1069962.54685141,3,0,76,4,0
13,187,465.845037484542,0,0,1069963.97036361,1069965.01741911,3,0,71,0,8
13,188,833.409872837365,1,0,1069966.54681484,1069967.59386533,3,1,92,4,0
13,189,626.150713069364,0,0,1069969.58208702,1069970.62913174,3,0,69,16,4
13,190,581.009631976485,0,0,1069972.37029493,1069973.41734735,3,0,69,8,4
13,191,481.064527761191,1,0,1069975.07615783,1069976.12319986,3,1,62,8,16
13,192,440.791296772659,1,0,1069977.71142478,1069978.75848336,3,1,82,0,16
13,193,390.118690440431,1,0,1069980.37022602,1069981.41727074,3,1,79,0,4
13,194,401.816544122994,1,0,1069982.81726905,1069983.86438229,3,1,65,0,16
13,195,502.466129837558,1,0,1069985.28782404,1069986.3348934,3,1,97,0,4
13,196,539.736268576235,0,0,1069987.86434726,1069988.91135964,3,0,83,8,4
13,197,434.747001389042,0,0,1069990.5583818,1069991.60546926,3,0,82,4,4
13,198,450.488500762731,1,0,1069993.13482765,1069994.18187275,3,1,91,0,16
13,199,364.034020341933,0,0,1069995.67597551,1069996.72302639,3,0,72,0,8
13,200,412.010734435171,0,0,1069998.12301584,1069999.17006826,3,0,62,4,8
13,201,512.597186258063,0,0,1070000.64063596,1070001.68770108,3,0,71,4,16
13,202,445.280343759805,1,0,1070003.28767814,1070004.33473171,3,1,73,0,0
13,203,393.300405004993,1,0,1070005.82883794,1070006.87588612,3,1,93,0,4
13,204,353.43138454482,0,0,1070008.44057752,1070009.48762956,3,0,92,8,16
13,205,523.893909296021,1,0,1070011.01702837,1070012.0640754,3,1,64,4,16
13,206,412.449206924066,0,0,1070013.68760407,1070014.73463955,3,0,75,4,0
13,207,623.889828566462,1,0,1070016.21698325,1070017.2640376,3,1,97,8,0
13,208,569.220157340169,1,0,1070019.02872314,1070020.07577248,3,1,67,4,0
13,209,622.549774358049,0,0,1070021.79341177,1070022.84045264,3,0,83,16,8
13,210,572.602822212502,1,0,1070024.49925966,1070025.54631554,3,1,90,16,0
13,211,509.688795078546,1,0,1070027.19335926,1070028.24041476,3,1,73,16,8
13,212,620.760853867978,1,0,1070029.80511386,1070030.85215973,3,1,82,16,8
13,213,477.052064146847,1,0,1070032.52272812,1070033.56978208,3,1,61,8,0
13,214,718.902794178575,0,0,1070035.25212455,1070036.29919775,3,0,87,16,8
13,215,445.075928699225,1,0,1070038.11091301,1070039.15797082,3,1,73,0,8
13,216,405.354733811691,0,0,1070040.72266029,1070041.76970771,3,0,83,16,0
13,217,654.519750270993,0,0,1070043.19325186,1070044.24029003,3,0,89,16,16
13,218,726.828016107902,0,0,1070045.95791123,1070047.00495941,3,0,97,4,8
13,219,470.181639539078,1,0,1070048.86376943,1070049.91082146,3,1,78,4,16
13,220,434.722363948822,0,0,1070051.48727578,1070052.53432435,3,0,96,8,4
13,221,427.180949598551,1,0,1070054.01666342,1070055.06370891,3,1,75,0,4
13,222,570.186412893236,1,0,1070056.52252756,1070057.56957574,3,1,70,4,4
13,223,497.365762479603,0,0,1070059.22838892,1070060.27543133,3,0,94,4,4
13,224,540.128160500899,0,0,1070061.92248352,1070062.96953209,3,0,71,16,16
13,225,432.093070354313,0,0,1070064.71069181,1070065.75774192,3,0,64,4,8
13,226,412.308310624212,0,0,1070067.38125943,1070068.42831031,3,0,63,4,0
13,227,492.895963368937,1,0,1070069.9459489,1070070.99298785,3,1,93,8,8
13,228,428.751211380586,1,0,1070072.69886153,1070073.74595013,3,1,76,0,8
13,229,574.799802852795,1,0,1070075.19295813,1070076.2400017,3,1,78,16,0
13,230,559.334706747904,1,1,1070077.82822392,1070078.87527288,3,0,70,8,8
13,231,589.169680839404,1,0,1070080.61643953,1070081.66349002,3,1,80,16,0
13,232,435.077299131081,1,0,1070083.41641766,1070084.46346893,3,1,69,8,16
13,233,426.593882031739,1,0,1070086.08698798,1070087.13403462,3,1,64,0,16
13,234,447.60166737251,0,0,1070088.5928448,1070089.63989414,3,0,69,0,0
13,235,477.846626657993,1,0,1070091.20457514,1070092.2516418,3,1,74,16,4
13,236,362.869123928249,1,0,1070093.8516204,1070094.89867397,3,1,66,0,4
13,237,410.782704595476,0,0,1070096.29873926,1070097.34571546,3,0,85,0,0
13,238,390.39239869453,0,0,1070098.76922419,1070099.81628624,3,0,77,4,4
13,239,509.811598109081,0,0,1070101.39280253,1070102.43980144,3,0,88,4,4
13,240,607.343757990748,1,0,1070104.01624266,1070105.06328815,3,1,88,8,16
13,241,420.903366990387,1,0,1070136.05127039,1070137.09831665,4,1,85,0,4
13,242,547.008209163323,1,0,1070138.65124398,1070139.69829294,4,1,69,8,8
13,243,561.142490245402,1,0,1070141.40416238,1070142.45121442,4,1,94,16,4
13,244,522.827563341707,1,0,1070144.19243227,1070145.23942541,4,1,98,8,8
13,245,459.74376774393,0,0,1070146.79239778,1070147.83940477,4,0,63,0,8
13,246,678.064438281581,0,0,1070149.40409964,1070150.45114744,4,0,89,8,4
13,247,615.582724101841,0,0,1070152.33349714,1070153.38052954,4,0,70,4,4
13,248,468.347293557599,1,0,1070155.0628774,1070156.10991788,4,1,75,4,0
13,249,619.626369792968,1,0,1070157.67461775,1070158.7216617,4,1,62,16,8
13,250,424.748756922781,1,0,1070160.42753461,1070161.47458087,4,1,73,4,8
13,251,567.687236703932,1,0,1070162.93343493,1070163.98044115,4,1,62,4,8
13,252,611.271914793178,0,0,1070165.66278246,1070166.70983527,4,0,81,4,0
13,253,541.610265849158,0,0,1070168.47451235,1070169.52158902,4,0,74,0,8
13,254,521.396657917649,0,0,1070171.16862157,1070172.21566283,4,0,63,16,8
13,255,709.264104720205,0,0,1070173.80389006,1070174.85094133,4,0,79,16,16
13,256,431.626111036167,1,0,1070176.62740288,1070177.67444798,4,1,86,8,0
13,257,627.443032106385,0,0,1070179.16854843,1070180.21560239,4,0,90,8,4
13,258,505.001107463613,1,0,1070181.94500267,1070182.99205124,4,1,87,8,8
13,259,482.242897618562,1,0,1070184.65085402,1070185.69790798,4,1,87,4,16
13,260,484.551517525688,1,0,1070187.21554734,1070188.26258975,4,1,63,4,0
13,261,548.89991460368,0,0,1070189.94493068,1070190.99197655,4,0,75,8,0
13,262,438.922689063475,0,0,1070192.68608386,1070193.73313473,4,0,67,0,16
13,263,654.582884395495,0,0,1070195.27429723,1070196.32134695,4,0,98,16,8
13,264,754.101065220311,1,0,1070198.1448717,1070199.19190603,4,1,61,4,0
13,265,449.199261609465,0,0,1070201.00366209,1070202.05070527,4,0,94,0,0
13,266,420.524179004133,1,0,1070203.61540745,1070204.66245833,4,1,84,0,16
13,267,673.212756868452,1,0,1070206.09773459,1070207.14478701,4,1,81,8,8
13,268,433.212541276589,1,0,1070208.89770079,1070209.94478362,4,1,94,0,4
13,269,424.880414037034,0,0,1070211.42713887,1070212.47415164,4,0,87,0,0
13,270,389.911195728928,0,0,1070214.08590354,1070215.13299522,4,0,75,4,16
13,271,614.52022800222,1,0,1070216.56822683,1070217.61528695,4,1,61,8,0
13,272,619.781124638394,0,0,1070219.2858615,1070220.33291007,4,0,99,16,16
13,273,499.140824424103,1,0,1070222.03878106,1070223.08583386,4,1,61,4,16
13,274,484.086867887527,0,0,1070224.69758538,1070225.74462548,4,0,93,0,16
13,275,599.979811348021,1,0,1070227.34461755,1070228.39167728,4,1,72,16,0
13,276,587.083184625953,1,0,1070230.08576688,1070231.1328243,4,1,87,16,8
13,277,455.837554065511,0,0,1070232.88574617,1070233.93278781,4,0,62,0,16
13,278,442.398514831439,1,0,1070235.45043025,1070236.49747767,4,1,66,0,0
13,279,471.560959937051,1,0,1070238.01511511,1070239.06216483,4,1,64,8,16
13,280,519.501487957314,1,0,1070240.61509524,1070241.66214728,4,1,61,4,4
13,281,712.896225275472,0,0,1070243.22684252,1070244.2738884,4,0,70,8,16
13,282,582.239202223718,1,0,1070246.00328559,1070247.05033532,4,1,86,16,4
13,283,408.63923355937,0,0,1070248.67390865,1070249.72089408,4,0,97,16,0
13,284,533.0286831595,0,0,1070251.23853691,1070252.28557778,4,0,77,8,8
13,285,490.570020396262,1,0,1070253.90910145,1070254.95614579,4,1,100,16,8
13,286,536.890626419336,1,0,1070256.48554614,1070257.53259278,4,1,99,4,4
13,287,527.634589234367,0,0,1070259.07376644,1070260.12083927,4,0,94,8,16
13,288,592.238216660917,0,0,1070261.80315478,1070262.85019719,4,0,74,16,0
13,289,436.722628772259,0,0,1070264.56783725,1070265.61488852,4,0,86,16,16
13,290,534.760629059747,0,0,1070267.21486942,1070268.26191915,4,0,75,4,4
13,291,472.616526763886,1,0,1070269.96777627,1070271.014831,4,1,70,0,8
13,292,741.798435570672,0,0,1070272.52076828,1070273.56775333,4,0,70,4,16
13,293,445.253011537716,1,0,1070275.39126306,1070276.43832126,4,1,94,0,0
13,294,584.99476313591,1,0,1070277.93242941,1070278.97947836,4,1,71,16,0
13,295,571.930677862838,0,0,1070280.57946812,1070281.62657444,4,0,83,8,0
13,296,695.21143566817,0,0,1070283.29709047,1070284.34414251,4,0,70,4,8
13,297,534.244009526446,1,0,1070286.09706668,1070287.14411448,4,1,78,16,4
13,298,479.863829910755,1,0,1070288.76763391,1070289.81468402,4,1,64,0,4
13,299,548.359427368268,1,0,1070291.44996753,1070292.49700493,4,1,81,8,16
13,300,426.852191565558,1,0,1070294.22641021,1070295.27346148,4,1,77,0,8
13,301,406.261320458725,1,0,1070296.89697475,1070297.94401832,4,1,86,8,0
13,302,415.622837143019,1,0,1070299.55577676,1070300.60282572,4,1,95,0,0
13,303,451.540217967704,0,0,1070302.10869832,1070303.15574112,4,0,74,16,16
13,304,671.799174742773,0,0,1070304.62632537,1070305.67343784,4,0,94,16,4
13,305,458.732471335679,0,0,1070307.41456176,1070308.46158646,4,0,65,0,4
13,306,440.107988426462,0,0,1070310.08509974,1070311.13215216,4,0,86,8,16
13,307,407.434686087072,0,0,1070312.69684972,1070313.74389559,4,0,65,0,4
13,308,420.334777561948,1,0,1070315.34388112,1070316.39093354,4,1,96,0,8
13,309,420.020648278296,0,0,1070317.93211143,1070318.97915846,4,0,96,8,4
13,310,445.734214503318,1,0,1070320.5203914,1070321.5673572,4,1,77,16,4
13,311,500.521299662068,0,0,1070323.09675525,1070324.14380612,4,0,81,0,16
13,312,596.12826211378,0,0,1070325.82614821,1070326.87319986,4,0,93,16,0
13,313,733.131006127223,0,0,1070328.62611864,1070329.67316721,4,0,70,4,8
13,314,545.179637614638,1,0,1070331.59080065,1070332.63785037,4,1,91,8,4
13,315,408.345892094076,0,0,1070334.39080265,1070335.43784236,4,0,78,4,8
13,316,515.836260514334,0,0,1070336.96726543,1070338.01428667,4,0,77,4,16
13,317,472.45984734036,1,0,1070339.6495617,1070340.69660526,4,1,65,8,4
13,318,518.573343288153,0,0,1070342.24953567,1070343.29658694,4,0,63,4,0
13,319,552.498543635011,0,0,1070344.99069386,1070346.03774089,4,0,73,4,4
13,320,676.027602050453,1,0,1070347.72008682,1070348.76718004,4,1,100,16,16
13,321,460.025175241753,1,0,1070382.31979132,1070383.36683643,5,1,82,0,8
13,322,448.604879435152,1,0,1070384.9433019,1070385.99035432,5,1,65,16,8
13,323,608.162188204005,0,0,1070387.4726857,1070388.51974736,5,0,80,4,16
13,324,511.559327598661,0,0,1070390.24916149,1070391.29618196,5,0,95,16,8
13,325,438.198959687725,1,0,1070392.88440996,1070393.93145815,5,1,85,8,16
13,326,464.207022450864,1,0,1070395.5196823,1070396.56672471,5,1,66,4,16
13,327,549.221358262002,1,0,1070398.0844965,1070399.13143728,5,1,100,8,0
13,328,496.673214947805,0,0,1070400.70787696,1070401.75498597,5,0,65,16,0
13,329,407.687606522813,0,0,1070403.35491337,1070404.40197734,5,0,66,0,8
13,330,390.100982272998,1,0,1070405.82549415,1070406.87255119,5,1,95,0,8
13,331,578.234822722152,0,0,1070408.28427969,1070409.33133519,5,0,81,16,16
13,332,411.095293937251,0,0,1070411.11954926,1070412.1665959,5,0,76,0,0
13,333,491.172871552408,0,0,1070413.77834934,1070414.82540176,5,0,89,0,4
13,334,537.546602310613,0,0,1070416.44892158,1070417.49596515,5,0,92,8,0
13,335,428.89210768044,1,0,1070419.21360136,1070420.26065609,5,1,78,16,8
13,336,554.705533431843,0,0,1070421.80187132,1070422.84886445,5,0,78,0,16
13,337,494.727614801377,1,0,1070424.60184753,1070425.64884143,5,1,63,8,0
13,338,422.163349110633,0,0,1070427.16647656,1070428.21352398,5,0,64,4,0
13,339,372.3426645156,0,0,1070429.77823155,1070430.82527088,5,0,92,0,0
13,340,482.280239230022,1,0,1070432.27231852,1070433.31936517,5,1,71,0,4
13,341,436.916649807245,1,0,1070434.96641659,1070436.01346208,5,1,81,0,16
13,342,496.619705110788,1,0,1070437.58991908,1070438.6369715,5,1,87,0,16
13,343,562.52951011993,1,0,1070440.23695549,1070441.28400406,5,1,97,8,4
13,344,584.174023475498,0,0,1070442.96635076,1070444.01339471,5,0,63,8,8
13,345,504.215783905238,0,0,1070445.71926877,1070446.7663158,5,0,96,16,4
13,346,443.97840090096,1,0,1070448.46041926,1070449.50746282,5,1,97,16,4
13,347,347.013290738687,0,0,1070450.95456475,1070452.0015652,5,0,65,0,4
13,348,424.801881890744,1,0,1070453.44861823,1070454.49567489,5,1,71,4,4
13,349,473.441501613706,1,0,1070456.02506446,1070457.07211033,5,1,61,4,0
13,350,755.786815891042,1,0,1070458.69562669,1070459.7426768,5,1,87,4,4
13,351,474.097862374038,1,0,1070461.51913604,1070462.56617498,5,1,67,16,16
13,352,669.677646597847,0,0,1070464.23675646,1070465.28380773,5,0,78,4,0
13,353,574.423309648409,1,0,1070467.13084444,1070468.17790032,5,1,62,8,8
13,354,580.534973414615,1,0,1070469.93082565,1070470.97787307,5,1,92,4,0
13,355,431.828986154869,1,0,1070472.60146988,1070473.64843876,5,1,66,0,4
13,356,403.365632984787,1,0,1070475.22490039,1070476.2719555,5,1,65,8,16
13,357,509.301137877628,1,0,1070477.77782695,1070478.82486705,5,1,62,16,8
13,358,548.993075732142,1,0,1070480.35426856,1070481.40137872,5,1,98,8,8
13,359,531.215509865433,1,0,1070483.06012876,1070484.10717618,5,1,100,16,4
13,360,418.227108195424,1,0,1070485.67187605,1070486.71891692,5,1,71,0,0
13,361,540.262512397021,0,0,1070488.22479414,1070489.27186773,5,0,73,8,8
13,362,379.991868278012,0,0,1070491.00130804,1070492.04832274,5,0,74,4,16
13,363,377.368734451011,1,1,1070493.5306341,1070494.57767766,5,0,86,8,4
13,364,603.222734993324,0,0,1070496.16590181,1070497.21294923,5,0,93,16,16
13,365,526.173271937296,0,0,1070498.96588187,1070500.01292428,5,0,95,16,0
13,366,728.559192270041,0,0,1070501.63644025,1070502.68349691,5,0,70,16,16
13,367,594.990313053131,1,0,1070504.45995461,1070505.50699971,5,1,100,0,4
13,368,522.769819013774,0,0,1070507.24816675,1070508.29522456,5,0,80,16,0
13,369,601.708677597344,1,0,1070509.98936805,1070511.03636272,5,1,94,8,4
13,370,466.589170042425,0,0,1070512.78932347,1070513.83634163,5,0,80,4,8
13,371,524.953710846603,0,0,1070515.30691933,1070516.35396675,5,0,96,8,16
13,372,509.628741070628,1,0,1070517.97748195,1070519.02453745,5,1,98,16,4
13,373,551.710140425712,0,0,1070520.58923808,1070521.63627433,5,0,64,16,4
13,374,395.491611212492,0,0,1070523.22450619,1070524.27157285,5,0,87,4,8
13,375,676.891842857003,1,0,1070525.84801099,1070526.89510768,5,1,91,4,4
13,376,570.266870316118,1,0,1070528.61270809,1070529.65973895,5,1,89,4,4
13,377,693.478719564155,1,0,1070531.42443066,1070532.47147692,5,1,68,4,4
13,378,449.043736793101,0,0,1070534.35382123,1070535.40087096,5,0,63,16,0
13,379,583.806769223884,0,0,1070536.91859347,1070537.9890928,5,0,81,8,8
13,380,508.625143906102,1,0,1070539.68319587,1070540.73023943,5,1,91,0,16
13,381,525.897254003212,1,0,1070542.40081206,1070543.44785793,5,1,88,4,0
13,382,567.703790264204,1,0,1070545.13020463,1070546.17724858,5,1,90,16,8
13,383,478.25430193916,1,0,1070547.91841716,1070548.96546419,5,1,63,0,8
13,384,491.973978467286,0,0,1070550.60074962,1070551.64779241,5,0,97,4,8
13,385,429.896474815905,1,1,1070553.29484344,1070554.34194437,5,0,92,8,16
13,386,453.031947603449,0,0,1070555.89482243,1070556.94192451,5,0,73,0,16
13,387,419.309237506241,1,0,1070558.50654738,1070559.55362867,5,1,74,8,0
13,388,511.404187884182,0,0,1070561.11830698,1070562.16535093,5,0,61,4,16
13,389,488.550892332569,1,0,1070563.87121499,1070564.91827164,5,1,67,8,4
13,390,678.314663935453,1,0,1070566.50649272,1070567.55354052,5,1,87,16,16
13,391,392.720651580021,0,0,1070569.3771257,1070570.42409997,5,0,62,4,16
13,392,658.344352152199,0,0,1070571.85939279,1070572.90643982,5,0,70,0,8
13,393,654.388863127679,0,0,1070574.65936708,1070575.70641334,5,0,70,16,0
13,394,591.497933724895,0,0,1070577.47110658,1070578.51815862,5,0,94,8,16
13,395,425.338134402409,0,0,1070580.16520465,1070581.21225399,5,0,66,4,8
13,396,608.778897905722,0,0,1070582.74164548,1070583.78876335,5,0,91,8,0
13,397,498.967591207474,0,0,1070585.44750685,1070586.4945558,5,0,72,8,4
13,398,391.102654626593,0,0,1070588.09459522,1070589.14159875,5,0,93,0,0
13,399,560.923446668312,1,0,1070590.69452146,1070591.7415812,5,1,61,4,8
13,400,660.565585596487,1,0,1070593.36509832,1070594.41214651,5,1,79,0,0
13,401,593.247203156352,1,0,1070629.30597425,1070630.35301781,6,1,79,16,8
13,402,491.067006951198,0,0,1070632.03535797,1070633.08241424,6,0,63,8,8
13,403,406.975040910766,1,0,1070634.58828299,1070635.63532386,6,1,85,4,4
13,404,455.207755323499,1,0,1070637.24706807,1070638.29411664,6,1,94,16,8
13,405,435.676300898194,0,0,1070639.91764531,1070640.9646985,6,0,88,0,8
13,406,436.263753566891,1,0,1070642.55291572,1070643.59996776,6,1,96,4,16
13,407,540.95236514695,1,0,1070645.2352501,1070646.28229944,6,1,64,16,4
13,408,664.341297233477,1,0,1070647.85876184,1070648.90580964,6,1,80,4,0
13,409,538.710343884304,1,0,1070650.77638604,1070651.82343999,6,1,79,0,16
13,410,528.520772932097,1,0,1070653.4116576,1070654.45869578,6,1,67,16,0
13,411,1106.86948429793,0,0,1070656.03516048,1070657.0822156,6,0,79,16,0
13,412,626.5052636154,1,0,1070659.36454436,1070660.41159254,6,1,83,16,0
13,413,459.574384381995,0,0,1070662.15275535,1070663.19980584,6,0,73,0,4
13,414,529.288772959262,0,0,1070664.75273625,1070665.79979021,6,0,71,4,0
13,415,401.815389283001,0,0,1070667.51741872,1070668.5644619,6,0,96,4,4
13,416,457.224573474377,1,0,1070670.14092622,1070671.18797402,6,1,65,8,0
13,417,559.902141336352,0,0,1070672.68209795,1070673.7291292,6,0,83,16,16
13,418,413.193724351004,0,0,1070675.38796316,1070676.4350125,6,0,72,8,4
13,419,411.458698567003,0,0,1070677.90557173,1070678.95261722,6,0,64,8,8
13,420,369.83193969354,0,0,1070680.47025736,1070681.51729746,6,0,85,0,0
13,421,367.601082194597,0,0,1070682.90553016,1070683.95257911,6,0,94,0,0
13,422,456.148988567293,1,0,1070685.49373622,1070686.5407921,6,1,73,4,8
13,423,428.774693980813,1,0,1070688.02314157,1070689.07024673,6,1,82,0,16
13,424,463.963340967894,1,0,1070690.63492273,1070691.68191741,6,1,81,16,4
13,425,387.486317194998,1,1,1070693.30544185,1070694.35248695,6,0,82,4,16
13,426,513.222750509158,1,0,1070695.78776976,1070696.83482333,6,1,70,0,8
13,427,493.916114093736,0,0,1070698.47010414,1070699.51715618,6,0,88,0,4
13,428,529.102451168001,1,0,1070701.1406733,1070702.18771764,6,1,92,8,16
13,429,391.924164257944,0,0,1070703.87005741,1070704.91714447,6,0,77,0,8
13,430,529.894318897277,1,0,1070706.42298089,1070707.47003369,6,1,89,8,16
13,431,620.702339801937,1,0,1070709.11713477,1070710.16413291,6,1,68,16,0
13,432,590.428123250604,0,0,1070711.8464619,1070712.89351856,6,0,77,4,0
13,433,577.873342903331,0,0,1070714.51709612,1070715.5640754,6,0,79,4,0
13,434,427.795734722167,1,0,1070717.17583192,1070718.22294747,6,1,62,16,16
13,435,542.192329186946,0,0,1070719.7405187,1070720.78756804,6,0,72,16,0
13,436,588.171088369563,1,0,1070722.48166687,1070723.52870928,6,1,96,8,0
13,437,495.801659999415,1,0,1070725.26991636,1070726.31692759,6,1,94,8,8
13,438,652.503702091053,0,0,1070727.84636528,1070728.89338883,6,0,100,8,4
13,439,412.578554358333,1,0,1070730.70512564,1070731.75217652,6,1,63,16,16
13,440,457.573349587619,0,0,1070733.25810956,1070734.30511655,6,0,73,8,16
13,441,632.213486824185,0,0,1070735.893323,1070736.94037272,6,0,81,0,0
13,442,465.829638997093,0,0,1070738.76395444,1070739.81093411,6,0,67,4,4
13,443,436.342670815066,1,0,1070741.43445315,1070742.48150634,6,1,74,0,4
13,444,668.258290039375,1,0,1070744.09326094,1070745.14029989,6,1,91,8,16
13,445,434.131446527317,1,0,1070746.92852974,1070747.97557484,6,1,84,8,0
13,446,552.42001125589,0,0,1070749.54026894,1070750.58731327,6,0,62,8,8
13,447,478.882560739294,0,0,1070752.21084964,1070753.25790437,6,0,87,0,0
13,448,489.318892592564,0,0,1070754.88140071,1070755.92844582,6,0,89,0,4
13,449,435.463801724836,0,0,1070757.5990527,1070758.64609627,6,0,96,0,16
13,450,434.491001535207,0,0,1070760.15194885,1070761.19899511,6,0,77,4,8
13,451,656.847233418375,0,0,1070762.65781491,1070763.70485308,6,0,70,16,4
13,452,676.750176586211,1,0,1070765.55188749,1070766.59893991,6,1,100,8,4
13,453,627.486147684976,1,0,1070768.2930526,1070769.34009924,6,1,91,8,8
13,454,382.748969364911,0,0,1070771.10479596,1070772.15184761,6,0,64,8,4
13,455,416.339637478814,1,0,1070773.74006637,1070774.78712033,6,1,72,0,8
13,456,646.798558766022,0,0,1070776.25773807,1070777.30473929,6,0,91,16,4
13,457,504.357835277915,1,0,1070779.04591172,1070780.09295682,6,1,97,0,0
13,458,539.454861078411,1,0,1070781.74000631,1070782.7870468,6,1,79,4,4
13,459,548.06300625205,1,0,1070784.51644861,1070785.56349949,6,1,98,4,0
13,460,475.04910454154,0,0,1070787.26936548,1070788.31641713,6,0,98,8,16
13,461,427.175945136696,1,0,1070789.92817442,1070790.97521644,6,1,68,0,16
13,462,541.360810166225,1,0,1070792.43402893,1070793.48107865,6,1,69,16,8
13,463,593.838120577857,0,0,1070795.05753104,1070796.10461425,6,0,62,16,8
13,464,465.564399957657,0,0,1070797.89280599,1070798.93985841,6,0,76,8,0
13,465,439.222574932501,1,0,1070800.42222444,1070801.46925145,6,1,78,8,4
13,466,413.566367933527,1,0,1070802.93982915,1070803.98687657,6,1,86,4,16
13,467,435.898809228092,0,0,1070805.51628154,1070806.56332087,6,0,65,4,16
13,468,401.485476410016,0,0,1070808.04570653,1070809.09271776,6,0,64,0,8
13,469,686.34767527692,1,0,1070810.53976079,1070811.58681128,6,1,91,16,4
13,470,575.892326422036,0,0,1070813.30450215,1070814.35148951,6,0,99,4,16
13,471,640.160651179031,0,0,1070815.97500702,1070817.02205906,6,0,72,16,16
13,472,434.844397008419,0,0,1070818.70440653,1070819.75144778,6,0,66,16,16
13,473,552.903909003362,0,0,1070821.36320161,1070822.41025788,6,0,62,0,16
13,474,464.267461560667,0,0,1070824.12788446,1070825.17492995,6,0,82,4,4
13,475,471.783468266949,1,0,1070826.79845247,1070827.84549873,6,1,96,4,8
13,476,615.490333177149,0,0,1070829.33960226,1070830.38665198,6,0,90,4,8
13,477,451.302311383188,1,0,1070832.08076275,1070833.12780709,6,1,79,0,4
13,478,401.22023737058,1,0,1070834.72779454,1070835.77484811,6,1,66,16,8
13,479,476.903853705153,0,1,1070837.30424577,1070838.35135016,6,1,98,8,0
13,480,600.111853564158,1,0,1070839.97481108,1070841.02186504,6,1,71,4,8
13,481,560.86031277664,1,0,1070867.45693727,1070868.50399777,7,1,80,0,8
13,482,458.841415820643,0,0,1070870.24516597,1070871.29219875,7,0,74,0,4
13,483,639.765294967219,1,0,1070872.79809753,1070873.84511646,7,1,94,16,16
13,484,380.466142203659,0,0,1070875.58628465,1070876.63332552,7,0,76,16,16
13,485,649.170312331989,0,0,1070878.0686218,1070879.11566037,7,0,100,8,0
13,486,382.911423454061,0,0,1070880.80977036,1070881.85681547,7,0,86,4,0
13,487,454.850510228425,1,0,1070883.25679876,1070884.30385349,7,1,88,0,16
13,488,601.307546952739,1,0,1070885.91560501,1070886.96265358,7,1,90,8,0
13,489,470.805663615465,0,0,1070888.69206232,1070889.73910473,7,0,67,16,4
13,490,717.759070685133,0,0,1070891.24498195,1070892.29201821,7,0,82,16,8
13,491,431.680390611291,0,0,1070894.04495893,1070895.09199672,7,0,65,4,0
13,492,539.237742312253,0,0,1070896.56257674,1070897.60962685,7,0,83,0,16
13,493,586.15196030587,0,0,1070899.31549822,1070900.36254602,7,0,96,0,0
13,494,468.721091980115,0,0,1070901.98606276,1070903.03310325,7,0,96,4,0
13,495,512.366593815386,1,0,1070904.68015274,1070905.7272067,7,1,79,4,16
13,496,555.097425123677,0,0,1070907.30366178,1070908.35070496,7,0,81,8,4
13,497,510.451790876687,1,0,1070909.97422747,1070911.02127643,7,1,93,16,16
13,498,593.969392823055,0,0,1070912.70362236,1070913.75067131,7,0,91,8,8
13,499,509.321155957878,1,0,1070915.37418228,1070916.42123277,7,1,94,8,0
13,500,435.000691795722,1,0,1070917.9977506,1070919.04474181,7,1,74,8,0
13,501,515.523670939729,1,0,1070920.58590469,1070921.63295403,7,1,73,16,4
13,502,440.76396455057,1,0,1070923.18588637,1070924.23293224,7,1,92,0,0
13,503,536.6719677113,1,0,1070925.832922,1070926.87997096,7,1,77,16,8
13,504,505.964668467641,1,0,1070928.45642758,1070929.50347615,7,1,93,8,16
13,505,644.4637614768,0,0,1070931.07993277,1070932.12698712,7,0,90,4,4
13,506,686.300709843636,0,0,1070933.96225283,1070935.00932681,7,0,99,8,8
13,507,493.361383210868,1,0,1070936.71518047,1070937.76222789,7,1,73,16,16
13,508,611.468630610034,1,0,1070939.27986956,1070940.32690966,7,1,100,4,4
13,509,508.507730439305,1,0,1070942.03279066,1070943.07983538,7,1,86,16,16
13,510,489.172221627086,1,0,1070944.71511503,1070945.76216206,7,1,76,0,4
13,511,644.286294002086,1,0,1070947.40923888,1070948.45626436,7,1,81,16,0
13,512,520.121277309954,1,0,1070950.16212418,1070951.2091766,7,1,93,16,0
13,513,457.836664048955,1,0,1070952.79740614,1070953.84451784,7,1,62,0,8
13,514,505.149318138137,0,0,1070955.36208676,1070956.4091361,7,0,62,4,0
13,515,585.630721179768,0,0,1070957.93853491,1070958.98563353,7,0,61,4,16
13,516,563.480367185548,1,0,1070960.6796877,1070961.72673935,7,1,68,16,4
13,517,805.574393365532,0,0,1070963.43260764,1070964.4796616,7,0,99,8,16
13,518,601.685579866171,0,0,1070966.32669755,1070967.37374458,7,0,82,4,8
13,519,600.516449194402,0,0,1070969.12668069,1070970.17372964,7,0,93,16,0
13,520,556.818207260221,1,0,1070971.87959023,1070972.92664535,7,1,83,8,8
13,521,622.183290077373,0,0,1070974.50310158,1070975.55015708,7,0,87,4,4
13,522,581.153607927263,0,0,1070977.30308087,1070978.35012906,7,0,92,4,16
13,523,459.338787244633,1,0,1070980.06776334,1070981.11481345,7,1,83,0,0
13,524,604.313333518803,0,0,1070982.71479936,1070983.76184754,7,0,97,0,4
13,525,564.563651569188,1,0,1070985.47948221,1070986.5265381,7,1,89,0,4
13,526,619.428114034235,0,0,1070988.26769589,1070989.31473907,7,0,86,4,8
13,527,613.202501321211,0,0,1070990.96178818,1070992.00884946,7,0,73,16,8
13,528,652.994529111311,0,0,1070993.64412603,1070994.69116882,7,0,62,8,4
13,529,571.34399516508,0,0,1070996.46762575,1070997.51467432,7,0,96,4,0
13,530,536.929122637957,1,0,1070999.29113587,1071000.33818406,7,1,93,16,8
13,531,1066.29405776039,0,0,1071001.91464222,1071002.96169079,7,0,96,4,8
13,532,459.900832502171,1,0,1071005.09109052,1071006.13812677,7,1,85,0,16
13,533,827.22429628484,1,0,1071007.65576806,1071008.70281548,7,1,63,4,4
13,534,637.875514337793,1,0,1071010.64397628,1071011.69105872,7,1,68,8,16
13,535,506.460115080699,0,0,1071013.40866529,1071014.45570732,7,0,88,0,8
13,536,606.330536771566,1,0,1071016.16158138,1071017.20863072,7,1,80,8,4
13,537,551.764805102721,1,0,1071018.97332012,1071020.02036715,7,1,81,0,0
13,538,649.197259685025,0,0,1071021.64388851,1071022.69095748,7,0,89,4,16
13,539,521.77738584578,1,0,1071024.37327916,1071025.42032888,7,1,67,16,8
13,540,537.081952672452,1,0,1071027.13794854,1071028.18501097,7,1,63,8,16
13,541,623.181112809107,1,0,1071029.89088503,1071030.93792975,7,1,89,4,8
13,542,469.281982397661,1,0,1071032.59674485,1071033.64378226,7,1,61,8,8
13,543,490.446832263842,1,0,1071035.26730824,1071036.3143518,7,1,74,16,4
13,544,543.680978938937,1,0,1071037.97316421,1071039.02021701,7,1,81,4,8
13,545,443.096451926976,0,0,1071040.59666824,1071041.64370873,7,0,64,0,16
13,546,543.481953209266,1,0,1071043.20841052,1071044.25546795,7,1,61,0,8
13,547,570.940554374829,0,0,1071045.93783428,1071046.9848944,7,0,80,0,0
13,548,517.019249964505,0,0,1071048.69072381,1071049.73776776,7,0,79,4,16
13,549,685.539253987372,1,0,1071051.40841045,1071052.45539319,7,1,82,16,4
13,550,419.233015039936,0,0,1071054.34950195,1071055.3965536,7,0,74,8,8
13,551,408.684659050778,1,0,1071056.91420374,1071057.96123769,7,1,74,16,0
13,552,441.121594514698,0,0,1071059.53769123,1071060.58474326,7,0,63,4,4
13,553,623.322393978015,0,0,1071062.14943736,1071063.19648477,7,0,76,16,0
13,554,519.294377882034,1,1,1071064.99646906,1071066.04352302,7,0,81,8,16
13,555,457.159899873659,0,0,1071067.69057021,1071068.73761608,7,0,66,0,8
13,556,646.55102789402,0,0,1071070.31407732,1071071.36112551,7,0,78,8,4
13,557,697.914256947115,1,0,1071073.17293277,1071074.21991859,7,1,98,8,0
13,558,661.380165955052,1,0,1071076.1022629,1071077.14930493,7,1,99,8,4
13,559,532.457398949191,0,0,1071078.96105945,1071080.00811033,7,0,98,0,4
13,560,570.348097244278,0,0,1071081.64339075,1071082.69043701,7,0,86,0,16
13,561,621.039566816762,0,0,1071117.38426714,1071118.43132072,8,0,77,0,4
13,562,531.617025844753,0,0,1071120.06661076,1071121.11365202,8,0,74,8,4
13,563,523.054306162521,1,0,1071122.78422657,1071123.83127321,8,1,95,16,4
13,564,716.396688716486,0,0,1071125.39597346,1071126.44301703,8,0,99,4,4
13,565,535.553651629016,0,0,1071128.36064969,1071129.40769788,8,0,85,4,8
13,566,455.372519325465,1,0,1071130.9959255,1071132.04303913,8,1,95,8,16
13,567,613.100486341864,1,0,1071133.63119707,1071134.67823909,8,1,90,8,8
13,568,485.234825871885,1,0,1071136.4429385,1071137.48998784,8,1,80,4,4
13,569,409.265182446688,0,0,1071139.13703002,1071140.18407551,8,0,85,0,4
13,570,417.417917167768,1,0,1071141.70172449,1071142.7487646,8,1,85,4,16
13,571,477.234536316246,1,0,1071144.19581917,1071145.24286543,8,1,68,4,8
13,572,465.455070603639,0,0,1071146.79579546,1071147.84283787,8,0,70,0,0
13,573,617.361250566319,0,0,1071149.33694371,1071150.38399613,8,0,100,4,16
13,574,401.341115590185,1,0,1071152.14868629,1071153.1957364,8,1,95,0,16
13,575,606.05066921562,0,0,1071154.7721988,1071155.81924891,8,0,82,4,0
13,576,625.145961064845,1,0,1071157.52511027,1071158.5721623,8,1,100,16,16
13,577,553.305809851736,0,0,1071160.24273878,1071161.28978042,8,0,95,16,4
13,578,428.194940555841,0,0,1071162.93682953,1071163.98388079,8,0,70,0,4
13,579,792.474506655708,0,0,1071165.50152285,1071166.54856719,8,0,61,4,4
13,580,424.688317812979,1,0,1071168.45443232,1071169.50148358,8,1,73,0,8
13,581,626.814773306251,0,0,1071170.96034688,1071172.00734695,8,0,92,16,16
13,582,572.865366702899,0,0,1071173.81910301,1071174.86619585,8,0,90,0,8
13,583,454.425896517932,0,0,1071176.595548,1071177.64258579,8,0,64,0,8
13,584,539.070668630302,1,0,1071179.23079763,1071180.27787776,8,1,96,16,16
13,585,503.689925419167,1,0,1071181.96021677,1071183.00725032,8,1,68,4,0
13,586,461.773289833218,0,0,1071184.65429289,1071185.70134338,8,0,98,0,4
13,587,658.889844082296,1,0,1071187.21898506,1071188.26603863,8,1,92,8,8
13,588,603.88679523021,1,0,1071190.06605526,1071191.11309998,8,1,94,16,8
13,589,453.565505566075,0,0,1071192.90128825,1071193.94834144,8,0,76,8,4
13,590,496.197786414996,1,0,1071195.58362148,1071196.63067159,8,1,87,4,8
13,591,494.418104877695,0,0,1071198.28948015,1071199.33653218,8,0,87,0,4
13,592,483.304624212906,1,0,1071200.87769853,1071201.92474209,8,1,65,8,16
13,593,478.253916837275,0,0,1071203.53649476,1071204.58354333,8,0,86,8,16
13,594,589.613542659208,1,0,1071206.08942017,1071207.13646528,8,1,71,8,4
13,595,423.095343168825,1,0,1071208.92468589,1071209.97173754,8,1,64,8,4
13,596,573.82007339038,0,0,1071211.40703266,1071212.4541051,8,0,98,0,8
13,597,528.103473596275,1,0,1071214.12464731,1071215.17169165,8,1,89,16,0
13,598,472.39594347775,0,0,1071216.73637997,1071217.78343431,8,0,68,4,8
13,599,546.185159590095,1,0,1071219.37165808,1071220.41870781,8,1,73,0,16
13,600,552.255632355809,1,0,1071222.0304624,1071223.0775102,8,1,81,0,16
13,601,510.789017658681,0,0,1071224.74808321,1071225.7951364,8,0,83,0,0
13,602,553.801641566679,1,0,1071227.40694566,1071228.45399847,8,1,83,16,8
13,603,538.215667009354,0,0,1071230.1245145,1071231.17155807,8,0,82,4,8
13,604,658.107600407675,0,0,1071232.7244854,1071233.77154013,8,0,96,4,16
13,605,629.033311968669,1,0,1071235.60683664,1071236.65387405,8,1,84,8,0
13,606,611.83434468694,0,0,1071238.30091623,1071239.34795864,8,0,72,0,16
13,607,711.174673167989,1,0,1071241.0773643,1071242.12440633,8,1,70,16,0
13,608,591.575311264023,1,0,1071243.88911998,1071244.93616393,8,1,70,4,0
13,609,566.33986835368,1,0,1071246.63025776,1071247.6772994,8,1,70,8,4
13,610,459.029277553782,1,0,1071249.37140863,1071250.41847529,8,1,79,8,8
13,611,714.643569663167,0,0,1071251.93609155,1071252.98314474,8,0,81,4,0
13,612,528.458023909479,0,0,1071254.87724119,1071255.92429823,8,0,73,8,8
13,613,570.42585965246,0,0,1071257.58310794,1071258.63015305,8,0,82,0,0
13,614,512.042455608025,1,0,1071260.3595514,1071261.40662268,8,1,73,16,0
13,615,605.153706623241,0,0,1071262.97129906,1071264.0183434,8,0,96,4,0
13,616,454.815478529781,1,0,1071265.75956626,1071266.80657902,8,1,65,0,0
13,617,557.109623681754,0,0,1071268.37125272,1071269.41830244,8,0,83,8,16
13,618,457.69576751627,1,0,1071271.14776046,1071272.19474936,8,1,75,16,4
13,619,456.107027595863,1,0,1071273.71238256,1071274.7594319,8,1,64,8,8
13,620,583.713608328253,0,0,1071276.34766068,1071277.39470116,8,0,92,16,16
13,621,702.155773062259,0,0,1071279.12410914,1071280.17115694,8,0,88,8,16
13,622,449.34400729835,0,0,1071281.98290915,1071283.0299504,8,0,76,16,4
13,623,458.442209754139,1,0,1071284.58287966,1071285.62993169,8,1,77,0,0
13,624,513.833300909027,0,0,1071287.20639178,1071288.25350348,8,0,78,16,0
13,625,457.136032171547,1,0,1071289.81816947,1071290.86516569,8,1,87,8,0
13,626,618.656649254262,0,0,1071292.34760601,1071293.39457336,8,0,88,16,0
13,627,463.949097553268,1,0,1071295.20631979,1071296.25336567,8,1,73,0,16
13,628,431.606092955917,1,0,1071297.84158943,1071298.88864647,8,1,76,4,4
13,629,455.588098382577,1,0,1071300.38275347,1071301.42979819,8,1,68,4,16
13,630,430.707590654492,0,0,1071302.93566848,1071303.98271513,8,0,65,8,0
13,631,509.959808783606,1,0,1071305.55917252,1071306.60622455,8,1,62,16,8
13,632,503.238749457523,0,0,1071308.32385883,1071309.37090471,8,0,67,16,4
13,633,588.710420764983,0,0,1071311.04148003,1071312.08853014,8,0,93,4,4
13,634,638.262401567772,0,0,1071313.71205073,1071314.75909776,8,0,89,16,8
13,635,473.76409987919,1,0,1071316.59438272,1071317.64146863,8,1,69,16,8
13,636,463.936393847689,1,0,1071319.20611923,1071320.25316857,8,1,79,4,16
13,637,445.305751403794,1,0,1071321.91198444,1071322.95903224,8,1,72,0,8
13,638,411.354758543894,0,0,1071324.41784895,1071325.46488713,8,0,66,16,16
13,639,487.379451515153,0,0,1071327.017816,1071328.06486534,8,0,66,8,0
13,640,581.222131382674,1,0,1071329.57073987,1071330.61778882,8,1,61,8,0
13,641,606.23968555592,0,0,1071359.51166623,1071360.55871172,9,0,68,4,16
13,642,484.142687404528,0,0,1071362.29988337,1071363.34693002,9,0,62,8,8
13,643,466.243088711053,1,0,1071364.91162681,1071365.95866922,9,1,95,4,0
13,644,604.160503484309,0,0,1071367.45282356,1071368.49982555,9,0,71,8,0
13,645,408.767425920814,0,0,1071370.18217341,1071371.22921351,9,0,64,0,4
13,646,465.872754808515,1,0,1071372.79391299,1071373.84096041,9,1,72,4,16
13,647,357.3329790961,0,0,1071375.37036461,1071376.41741202,9,0,84,0,8
13,648,562.671176157892,0,0,1071377.93505177,1071378.98209457,9,0,94,4,16
13,649,514.448085799813,0,0,1071380.66442394,1071381.71150447,9,0,92,0,8
13,650,459.28566227667,1,0,1071383.26441524,1071384.31146189,9,1,72,4,0
13,651,366.423867177218,0,0,1071385.91145203,1071386.9584956,9,0,74,4,16
13,652,479.837267426774,0,0,1071388.44090743,1071389.48790981,9,0,94,8,4
13,653,421.533550368622,1,0,1071390.97023349,1071392.01728129,9,1,94,16,8
13,654,547.054019756615,0,0,1071393.45256641,1071394.49966348,9,0,98,8,4
13,655,447.999718599021,0,0,1071396.24077277,1071397.28786292,9,0,86,4,4
13,656,422.226483002305,0,0,1071398.9113377,1071399.95839012,9,0,74,16,0
13,657,625.668740132824,0,0,1071401.5348529,1071402.58190378,9,0,98,0,0
13,658,465.821554884315,1,0,1071404.28781365,1071405.33481217,9,1,83,0,16
13,659,745.433635776863,1,0,1071406.91127264,1071407.95831967,9,1,90,16,8
13,660,466.631515650079,1,0,1071409.77007689,1071410.81712546,9,1,66,0,0
13,661,544.499794021249,1,0,1071412.41710944,1071413.46415532,9,1,62,4,4
13,662,722.324340604246,0,0,1071415.20532582,1071416.25236553,9,0,89,4,8
13,663,495.745455380529,0,0,1071418.08771748,1071419.13473025,9,0,79,16,0
13,664,560.605467529967,0,0,1071420.66410058,1071421.71115261,9,0,61,4,4
13,665,661.04409401305,1,0,1071423.39348892,1071424.44054057,9,1,98,4,16
13,666,566.416090819985,0,0,1071426.31111119,1071427.35816014,9,0,97,8,16
13,667,525.584664428607,1,0,1071429.07580174,1071430.12285031,9,1,62,8,8
13,668,485.485821263865,1,0,1071431.66401165,1071432.71105406,9,1,63,0,16
13,669,564.932060660794,1,0,1071434.2404471,1071435.28753108,9,1,71,0,0
13,670,609.194272430614,1,0,1071437.05220431,1071438.09924865,9,1,94,8,16
13,671,549.73682295531,1,0,1071439.73457526,1071440.78158649,9,1,66,16,0
13,672,566.232078941539,1,0,1071442.40509476,1071443.45213948,9,1,86,8,4
13,673,665.683661354706,0,0,1071445.21683658,1071446.2638763,9,0,87,8,16
13,674,569.14085499011,1,0,1071447.99328504,1071449.0403363,9,1,71,16,4
13,675,486.688829027116,1,0,1071450.81678553,1071451.86384488,9,1,84,16,4
13,676,486.877460731193,0,0,1071453.53442097,1071454.58151112,9,0,94,0,0
13,677,636.619381839409,1,0,1071456.27557607,1071457.32262426,9,1,89,8,0
13,678,676.298615755513,0,0,1071459.00495826,1071460.05200875,9,0,90,4,4
13,679,517.851153854281,0,0,1071461.82847492,1071462.87552041,9,0,79,0,4
13,680,584.803821984679,0,0,1071464.52258145,1071465.56960923,9,0,88,16,16
13,681,491.335710743442,1,0,1071467.34605923,1071468.39311281,9,1,63,8,8
13,682,569.912319770083,1,0,1071469.98140433,1071471.02842403,9,1,80,0,16
13,683,508.992013288662,0,0,1071472.73425729,1071473.78130509,9,0,83,0,4
13,684,499.034959590063,1,0,1071475.44011557,1071476.48716529,9,1,68,0,4
13,685,498.091801535338,1,0,1071478.1930409,1071479.24008215,9,1,65,16,16
13,686,626.083344686776,1,0,1071480.79301179,1071481.84005921,9,1,100,16,0
13,687,466.466751880944,0,0,1071483.55769388,1071484.60474938,9,0,76,16,8
13,688,451.826630160213,0,0,1071486.16943769,1071487.21648934,9,0,85,8,16
13,689,496.732499217615,0,0,1071488.72236387,1071489.76940551,9,0,94,8,0
13,690,462.762643350288,1,0,1071491.42822408,1071492.47528112,9,1,66,16,4
13,691,534.161627525464,1,0,1071494.03996289,1071495.08700838,9,1,91,0,8
13,692,617.691163439304,0,0,1071496.66346962,1071497.71052243,9,0,81,16,4
13,693,510.051044868305,1,0,1071499.33403493,1071500.3810862,9,1,82,8,4
13,694,596.571353962645,1,0,1071502.01636161,1071503.06343559,9,1,96,16,0
13,695,653.628562344238,1,0,1071504.71046661,1071505.75751248,9,1,61,8,4
13,696,507.035249145702,1,0,1071507.58102491,1071508.62807348,9,1,99,0,16
13,697,776.937422342598,0,0,1071510.18100312,1071511.22805747,9,0,97,16,16
13,698,557.587747229263,0,0,1071513.01628655,1071514.06331972,9,0,62,16,16
13,699,652.759702177718,0,0,1071515.72214098,1071516.76925191,9,0,89,16,4
13,700,426.931879017502,1,0,1071518.62799649,1071519.67504159,9,1,65,0,0
13,701,628.217961406335,1,0,1071521.28679427,1071522.33384938,9,1,92,4,0
13,702,476.250957464799,0,0,1071524.09853454,1071525.14558157,9,0,81,4,8
13,703,544.766187900677,0,0,1071526.67498885,1071527.72207515,9,0,85,8,8
13,704,475.813255179673,1,0,1071529.4631983,1071530.51023917,9,1,67,4,4
13,705,563.332156743854,1,0,1071532.08670311,1071533.13374744,9,1,88,0,16
13,706,498.215374536812,1,0,1071534.73374529,1071535.78078654,9,1,66,0,4
13,707,563.591236481443,0,0,1071537.40430636,1071538.45135724,9,0,77,4,0
13,708,580.905692186207,0,0,1071540.12199107,1071541.16898729,9,0,83,4,8
13,709,527.076008729637,0,0,1071542.82780277,1071543.87486097,9,0,95,8,0
13,710,433.98747057654,0,0,1071545.42777406,1071546.47482494,9,0,87,0,8
13,711,482.803018065169,0,0,1071547.96895734,1071549.01598012,9,0,94,4,8
13,712,432.590826880187,0,0,1071550.71008472,1071551.7571306,9,0,74,8,16
13,713,446.161137893796,1,0,1071553.28652826,1071554.33357413,9,1,65,16,8
13,714,578.024633228779,1,0,1071555.82768536,1071556.87473547,9,1,80,8,8
13,715,477.478987537324,1,0,1071558.59237322,1071559.63941563,9,1,86,4,8
13,716,480.204521445557,0,0,1071561.1923445,1071562.23939076,9,0,93,8,0
13,717,551.556155551225,0,0,1071563.75701896,1071564.80407407,9,0,72,16,8
13,718,606.90682567656,1,0,1071566.47465478,1071567.52170335,9,1,80,4,0
13,719,551.703211152926,1,0,1071569.21582759,1071570.26294315,9,1,70,0,8
13,720,540.608593495563,0,1,1071571.85108607,1071572.89813503,9,1,81,16,16
