sub_id,Trial,RT,Resp,Error,Fix_onset,Disp_onset,block,tid,tloc,fish_setsize,bird_setsize
34,1,628.445575945079,0,0,2543623.06110343,2543624.10819955,1,0,94,0,8
34,2,568.84322501719,1,0,2543625.94354867,2543626.99067443,1,1,78,4,8
34,3,924.279605504125,1,0,2543628.56714423,2543629.61424382,1,1,72,16,4
34,4,482.60889062658,1,0,2543631.68489648,2543632.73197181,1,1,94,0,16
34,5,562.571056187153,0,0,2543634.23790483,2543635.28499557,1,0,82,8,8
34,6,579.652159009129,1,0,2543636.90858228,2543637.95568649,1,1,99,16,16
34,7,625.502549577504,0,0,2543639.6498273,2543640.69690726,1,0,84,16,0
34,8,547.101015225053,1,0,2543642.48520183,2543643.53229718,1,1,73,4,0
34,9,431.086869910359,1,0,2543645.19116403,2543646.23825553,1,1,73,4,16
34,10,826.355161145329,1,0,2543647.80300443,2543648.85009208,1,1,89,8,16
34,11,589.577607810497,1,0,2543650.76779628,2543651.81488317,1,1,72,16,16
34,12,575.181607156992,0,0,2543653.56787759,2543654.6149637,1,0,72,4,16
34,13,752.727912738919,0,0,2543656.40326366,2543657.4503748,1,0,95,16,0
34,14,680.258626583964,1,0,2543659.2739264,2543660.32101675,1,1,96,16,4
34,15,589.554895181209,0,0,2543662.09754306,2543663.14463688,1,0,98,0,0
34,16,776.920014526695,0,0,2543664.86233191,2543665.90941264,1,0,80,16,0
34,17,630.330729763955,0,0,2543667.83894515,2543668.88597275,1,0,88,0,0
34,18,518.210465088487,0,0,2543670.65072388,2543671.69781384,1,0,69,8,8
34,19,648.060876876116,1,0,2543673.28620935,2543674.33320538,1,1,61,4,0
34,20,903.802762273699,1,0,2543676.08618171,2543677.13326859,1,1,78,8,16
34,21,556.467500049621,0,0,2543679.18039013,2543680.22747509,1,0,80,0,4
34,22,598.144528921694,0,0,2543681.92164516,2543682.96874898,1,0,82,8,8
34,23,491.52612593025,1,0,2543684.59229989,2543685.63941026,1,1,71,0,0
34,24,624.526288360357,1,0,2543687.25120369,2543688.29829597,1,1,65,0,4
34,25,597.728771157563,1,0,2543689.96895224,2543691.01603797,1,1,76,8,0
34,26,571.501765865833,1,0,2543692.7101888,2543693.75729108,1,1,96,16,8
34,27,475.24227714166,0,0,2543695.39274422,2543696.43970714,1,0,88,0,8
34,28,543.497010599822,0,0,2543698.11035148,2543699.15743259,1,0,99,16,8
34,29,546.883897390217,0,0,2543700.74571608,2543701.79281027,1,0,84,0,0
34,30,664.485236164182,1,0,2543703.38107836,2543704.4281664,1,1,95,16,0
34,31,556.908280588686,1,0,2543706.14588838,2543707.19296564,1,1,97,16,16
34,32,669.94706261903,0,0,2543708.91066107,2543709.95784073,1,0,73,16,8
34,33,568.574522156268,0,0,2543711.69897873,2543712.74605831,1,0,61,8,16
34,34,973.296299576759,1,0,2543714.39317422,2543715.4402638,1,1,99,4,0
34,35,437.633131165057,1,0,2543717.56978776,2543718.61689967,1,1,86,4,16
34,36,556.859005708247,1,0,2543720.18157734,2543721.22866962,1,1,65,8,8
34,37,669.81194075197,0,0,2543722.98170792,2543724.02874014,1,0,69,4,8
34,38,647.984654642642,1,0,2543725.78173726,2543726.82882453,1,1,77,16,8
34,39,506.086119450629,1,0,2543728.54652303,2543729.59360722,1,1,85,4,16
34,40,450.941389426589,1,0,2543731.28777883,2543732.33466461,1,1,87,0,4
34,41,653.455747757107,0,0,2543733.87589183,2543734.92298056,1,0,65,8,4
34,42,462.770697195083,1,0,2543736.71146263,2543737.75857185,1,1,76,0,4
34,43,508.766987826675,1,0,2543739.31133757,2543740.35873022,1,1,88,8,16
34,44,767.101584933698,0,0,2543741.88807464,2543742.93518,1,0,80,4,0
34,45,662.358711939305,0,0,2543744.80582311,2543745.85291115,1,0,99,8,4
34,46,563.142338767648,0,0,2543747.59413346,2543748.6412215,1,0,67,16,16
34,47,405.860378406942,0,0,2543750.28832317,2543751.33543662,1,0,76,8,4
34,48,690.823880489916,0,0,2543752.79429699,2543753.8414243,1,0,81,16,4
34,49,538.914820179343,0,0,2543755.70025142,2543756.74735909,1,0,67,8,8
34,50,618.770352099091,1,0,2543758.39444767,2543759.44152416,1,1,84,8,16
34,51,696.29186578095,0,1,2543761.13569115,2543762.18279806,1,1,78,4,4
34,52,801.985592581332,0,0,2543764.01813177,2543765.06530605,1,0,88,4,8
34,53,769.434833433479,1,0,2543766.99469882,2543768.04178609,1,1,89,16,16
34,54,721.556083764881,0,0,2543769.91242303,2543770.95951531,1,0,73,0,16
34,55,595.51678551361,0,0,2543772.81839478,2543773.86548513,1,0,62,0,16
34,56,876.719988882542,1,0,2543775.6302505,2543776.67733238,1,1,78,4,4
34,57,501.371502876282,0,0,2543778.57148929,2543779.61857925,1,0,71,0,16
34,58,831.520952284336,0,0,2543781.18334008,2543782.23043389,1,0,70,16,4
34,59,511.442466173321,0,0,2543784.13637831,2543785.18345826,1,0,84,8,4
34,60,584.866070654243,0,0,2543786.74821563,2543787.79529866,1,0,87,8,0
34,61,722.754852380604,1,0,2543789.41891579,2543790.46605541,1,1,86,4,0
34,62,811.161521822214,1,0,2543792.24249395,2543793.28959893,1,1,100,4,4
34,63,1058.93509974703,1,0,2543795.27787263,2543796.32500148,1,1,67,16,8
34,64,696.901644114405,0,0,2543798.53678621,2543799.58394547,1,0,62,16,4
34,65,482.405630871654,1,0,2543801.31334486,2543802.36043406,1,1,85,4,16
34,66,503.063405863941,0,0,2543804.00756498,2543805.05462376,1,0,66,4,4
34,67,530.456458218396,0,0,2543806.63114515,2543807.6782278,1,0,85,0,4
34,68,430.734245572239,1,0,2543809.39599714,2543810.44301319,1,1,85,4,4
34,69,718.738554511219,1,0,2543811.90187202,2543812.9489847,1,1,83,16,0
34,70,674.898430239409,1,0,2543814.8078507,2543815.85493104,1,1,89,8,4
34,71,588.723379652947,0,0,2543817.65499194,2543818.70207113,1,0,84,4,8
34,72,476.140006445348,1,0,2543820.39624351,2543821.44333232,1,1,75,0,0
34,73,818.91540531069,0,0,2543823.07878083,2543824.1257734,1,0,79,8,0
34,74,744.268395472318,1,0,2543825.94937967,2543826.99644115,1,1,64,4,8
34,75,520.457867067307,0,0,2543828.77296092,2543829.82004896,1,0,64,0,16
34,76,559.721960686147,0,0,2543831.40832513,2543832.49078145,1,0,63,8,0
34,77,621.854274533689,1,0,2543834.14963675,2543835.19673326,1,1,66,8,0
34,78,473.340184893459,1,0,2543836.83202086,2543837.87911198,1,1,97,0,8
34,79,614.567348267883,0,0,2543839.54974361,2543840.59682896,1,0,97,0,8
34,80,487.738110125065,0,0,2543842.40864772,2543843.45573692,1,0,95,0,8
34,81,570.058932062238,1,0,2543868.17410487,2543869.22120061,2,1,68,0,0
34,82,442.25035328418,1,0,2543870.8447673,2543871.89184841,2,1,66,4,0
34,83,664.492935407907,0,0,2543873.45660423,2543874.50369535,2,0,85,8,16
34,84,727.199226152152,0,0,2543876.35081234,2543877.39789114,2,0,69,4,8
34,85,445.040550082922,1,0,2543879.29207461,2543880.33916535,2,1,95,0,4
34,86,425.231999251992,1,1,2543881.96274398,2543883.00983163,2,0,85,0,0
34,87,598.546813242137,1,0,2543884.48045526,2543885.52754099,2,1,77,8,4
34,88,451.681511476636,0,0,2543887.30408809,2543888.35117267,2,0,86,4,0
34,89,491.370986681432,1,0,2543889.98650531,2543891.0335972,2,1,85,0,16
34,90,447.6786875166,0,0,2543892.55127383,2543893.59837496,2,0,76,8,16
34,91,458.657774608582,1,1,2543895.16314464,2543896.21022113,2,0,100,4,4
34,92,566.205088049173,1,0,2543897.78672404,2543898.83381362,2,1,92,0,4
34,93,604.723896365613,1,0,2543900.45742651,2543901.5162447,2,1,73,16,8
34,94,509.618136566132,1,0,2543903.19868155,2543904.24575072,2,1,63,16,4
34,95,423.474651761353,1,0,2543905.77521448,2543906.82228712,2,1,81,4,16
34,96,421.942892484367,1,0,2543908.39893054,2543909.44588885,2,1,72,4,8
34,97,602.17391513288,1,0,2543910.86945446,2543911.91655328,2,1,85,16,16
34,98,600.681036710739,0,0,2543913.55190017,2543914.59898705,2,0,63,16,8
34,99,604.810127988458,1,0,2543916.30491614,2543917.35200919,2,1,71,16,16
34,100,470.916856080294,0,0,2543919.06970268,2543920.11679072,2,0,73,4,8
34,101,411.060431040823,0,0,2543921.78743237,2543922.83451425,2,0,73,4,0
34,102,534.104348160326,1,0,2543924.44633271,2543925.49342113,2,1,91,4,0
34,103,642.779597546905,1,0,2543927.1875989,2543928.23469657,2,1,79,0,16
34,104,661.999543663114,0,0,2543929.99943345,2543931.04652265,2,0,99,0,4
34,105,593.726716469973,0,0,2543932.89364156,2543933.94077194,2,0,94,4,0
34,106,784.98071199283,1,0,2543935.55254267,2543936.59962801,2,1,80,8,16
34,107,715.153797995299,0,0,2543938.47026727,2543939.51735492,2,0,71,4,4
34,108,558.164408430457,1,0,2543941.2703505,2543942.31743738,2,1,81,8,4
34,109,545.1192362234,0,0,2543944.03513704,2543945.08222277,2,0,71,16,0
34,110,714.968631975353,1,0,2543946.83521488,2543947.88230792,2,1,100,0,16
34,111,542.360606137663,1,0,2543949.64707406,2543950.69415017,2,1,83,16,4
34,112,772.483339067549,0,0,2543952.42360461,2543953.47069765,2,0,70,16,4
34,113,732.586369849741,1,0,2543955.28252527,2543956.32960253,2,1,69,16,8
34,114,832.480659708381,0,0,2543958.22387839,2543959.27088213,2,0,98,4,8
34,115,1015.80214919522,0,0,2543961.20038423,2543962.24742222,2,0,87,16,0
34,116,598.59108319506,0,0,2543964.29454645,2543965.34163102,2,0,95,4,16
34,117,609.447367489338,0,0,2543967.09462159,2543968.14171464,2,0,61,8,8
34,118,450.535867828876,1,1,2543969.80058533,2543970.84767645,2,0,86,0,8
34,119,697.955281939358,1,0,2543972.37713328,2543973.42425019,2,1,87,16,0
34,120,571.095631923527,0,0,2543975.24779602,2543976.29491101,2,0,85,8,4
34,121,700.678495690227,1,0,2543978.07142654,2543979.11850188,2,1,98,4,4
34,122,473.926865495741,0,0,2543980.84795824,2543981.89504782,2,0,66,0,0
34,123,477.202883455902,1,0,2543983.51863145,2543984.56571372,2,1,67,8,0
34,124,310.304983519018,0,0,2543986.13048417,2543987.17755989,2,0,62,16,16
34,125,401.562289334834,1,1,2543988.64823896,2543989.69528157,2,0,97,0,4
34,126,681.952454615384,0,0,2543993.76606742,2543994.81308116,2,0,81,4,4
34,127,669.457776937634,0,0,2543996.60136572,2543997.64845376,2,0,92,8,0
34,128,554.327502381057,1,0,2543999.44851582,2544000.49559616,2,1,92,16,8
34,129,621.090127155185,0,0,2544002.20152102,2544003.24861175,2,0,91,16,0
34,130,794.043847825378,1,0,2544004.89575038,2544005.94280916,2,1,85,0,8
34,131,657.428901642561,1,0,2544007.91940969,2544008.96642382,2,1,95,4,8
34,132,635.516923852265,1,0,2544010.83706924,2544011.88415304,2,1,92,16,8
34,133,577.768160495907,0,0,2544013.55484473,2544014.60193162,2,0,83,8,8
34,134,819.526723586023,1,0,2544016.24899479,2544017.29608129,2,1,90,8,8
34,135,510.269875172526,0,0,2544019.17848649,2544020.22558146,2,0,63,8,0
34,136,591.486629098654,1,0,2544021.80209014,2544022.8491701,2,1,86,4,4
34,137,671.633191406727,1,0,2544024.56690055,2544025.61396858,2,1,96,4,16
34,138,441.402283962816,1,0,2544027.35519204,2544028.40227777,2,1,86,0,8
34,139,461.735536810011,1,0,2544029.88468929,2544030.93180505,2,1,85,16,0
34,140,614.452630281448,1,0,2544032.4141619,2544033.46124879,2,1,95,0,0
34,141,500.688197091222,1,0,2544035.09664841,2544036.1436918,2,1,74,0,16
34,142,530.840264167637,0,0,2544037.70844031,2544038.75552719,2,0,68,0,4
34,143,508.283476345241,0,0,2544040.33204088,2544041.37912969,2,0,70,0,8
34,144,483.266403432935,0,0,2544043.03799846,2544044.08510228,2,0,64,8,0
34,145,922.898750286549,0,0,2544045.61454794,2544046.66163098,2,0,100,16,4
34,146,482.419489417225,0,0,2544048.60288901,2544049.64994587,2,0,87,8,0
34,147,701.583539135754,0,0,2544051.32059406,2544052.36767902,2,0,82,16,4
34,148,886.76246535033,0,0,2544054.17956169,2544055.22657582,2,0,70,8,8
34,149,698.204352054745,0,0,2544057.2619341,2544058.30902906,2,0,86,16,16
34,150,554.762892890722,0,1,2544060.09737252,2544061.14440128,2,1,67,4,16
34,151,761.794513091445,1,0,2544062.75621781,2544063.80336244,2,1,88,0,0
34,152,775.805552024394,0,0,2544065.6975001,2544066.74456735,2,0,62,8,4
34,153,778.81710184738,0,0,2544068.61520777,2544069.66230466,2,0,100,8,4
34,154,660.56402400136,1,0,2544071.50940894,2544072.55648851,2,1,89,0,8
34,155,645.118235144764,1,0,2544074.34478655,2544075.39188152,2,1,61,4,16
34,156,678.758048918098,1,0,2544077.18016338,2544078.22725912,2,1,89,8,16
34,157,647.451483644545,0,0,2544080.01553752,2544081.06262479,2,0,68,16,16
34,158,602.600066922605,0,0,2544082.87444779,2544083.9215239,2,0,98,8,8
34,159,688.122993800789,1,0,2544085.6627566,2544086.70984695,2,1,94,8,16
34,160,738.681842107326,1,0,2544088.43929754,2544089.48640984,2,1,69,0,16
34,161,755.870733875781,1,0,2544124.47565903,2544125.52273937,3,1,89,4,16
34,162,690.638714004308,1,0,2544127.45219566,2544128.49928293,3,1,100,8,4
34,163,482.742856722325,1,0,2544130.22876355,2544131.27584582,3,1,99,0,8
34,164,677.891886327416,1,0,2544132.89941751,2544133.94650748,3,1,76,4,16
34,165,871.775024104863,1,0,2544135.68785837,2544136.73461779,3,1,93,8,16
34,166,738.55519015342,0,0,2544138.73495103,2544139.78196092,3,0,97,8,16
34,167,568.112569395453,1,0,2544141.676134,2544142.72321934,3,1,96,4,8
34,168,671.152759809047,0,0,2544144.32330958,2544145.37036797,3,0,65,8,16
34,169,578.980402555317,1,0,2544147.07628937,2544148.12339127,3,1,72,8,8
34,170,528.503166045994,0,0,2544149.85285379,2544150.89994491,3,0,75,8,8
34,171,803.538524545729,1,0,2544152.48821877,2544153.55893109,3,1,92,16,16
34,172,458.439936395735,0,0,2544155.44104719,2544156.54695414,3,0,76,0,8
34,173,569.888009224087,0,0,2544158.1940665,2544159.2413972,3,0,86,16,8
34,174,512.277831789106,1,0,2544160.91198918,2544161.95907337,3,1,71,0,4
34,175,527.666260953993,0,0,2544163.54737071,2544164.59448493,3,0,62,4,16
34,176,483.257934451103,1,0,2544166.17100786,2544167.21807164,3,1,82,0,0
34,177,583.495224360377,0,0,2544168.79456724,2544169.84166529,3,0,82,16,16
34,178,608.487659599632,0,0,2544171.45353456,2544172.50060912,3,0,71,0,4
34,179,611.372557003051,0,0,2544174.24179409,2544175.28888444,3,0,88,8,8
34,180,517.21957558766,1,0,2544176.99481161,2544178.04188772,3,1,88,0,0
34,181,705.495127476752,1,0,2544179.75959623,2544180.8066885,3,1,89,8,8
34,182,720.417369157076,0,0,2544182.61849918,2544183.66559107,3,0,92,4,8
34,183,674.099251627922,0,0,2544185.45388064,2544186.50096944,3,0,97,4,0
34,184,731.00495012477,1,0,2544188.20690316,2544189.25398966,3,1,68,4,4
34,185,646.170718595386,1,0,2544191.0658858,2544192.11289453,3,1,96,4,4
34,186,598.960646428168,0,0,2544193.86589165,2544194.91296775,3,0,92,0,4
34,187,473.470301833004,1,0,2544196.68955566,2544197.73661598,3,1,93,0,8
34,188,863.647869322449,1,0,2544199.41901549,2544200.4661324,3,1,81,0,0
34,189,585.582097992301,1,0,2544202.41907862,2544203.46617051,3,1,74,8,4
34,190,654.181370977312,0,0,2544205.10151047,2544206.14859504,3,0,77,4,8
34,191,638.813729863614,0,0,2544207.87805911,2544208.92514638,3,0,61,0,4
34,192,653.731351718307,0,0,2544210.63107624,2544211.6781689,3,0,65,0,0
34,193,656.998900230974,0,0,2544213.45468867,2544214.50184523,3,0,78,16,8
34,194,536.862208507955,0,0,2544216.30184146,2544217.3489653,3,0,87,4,4
34,195,453.308356460184,0,0,2544219.03139753,2544220.07841397,3,0,79,4,16
34,196,441.584755666554,1,0,2544221.54904953,2544222.59613795,3,1,75,0,16
34,197,434.620812069625,0,1,2544224.06677275,2544225.11388889,3,1,87,16,8
34,198,1008.85360408574,1,0,2544226.6197838,2544227.66686337,3,1,91,8,0
34,199,473.108823876828,0,0,2544229.84340338,2544230.89048719,3,0,92,0,16
34,200,718.255043495446,0,0,2544232.50230141,2544233.54939253,3,0,79,4,8
34,201,684.441227465868,1,0,2544235.47885921,2544236.52594494,3,1,92,16,0
34,202,747.984038665891,0,0,2544238.36129521,2544239.40839942,3,0,69,16,0
34,203,582.948579918593,0,0,2544241.25549447,2544242.30258443,3,0,63,8,0
34,204,785.584715195,0,0,2544243.99675066,2544245.04384216,3,0,99,16,16
34,205,713.768323417753,1,0,2544246.91453955,2544247.96158101,3,1,86,4,0
34,206,543.580932542682,0,0,2544249.70280255,2544250.74988482,3,0,68,4,0
34,207,533.104604575783,1,0,2544252.44406606,2544253.49114409,3,1,75,16,16
34,208,923.063898924738,1,0,2544255.19707664,2544256.24415929,3,1,100,16,4
34,209,763.324732892215,0,0,2544258.25599261,2544259.30307795,3,0,70,16,4
34,210,714.542865287513,1,0,2544261.17372838,2544262.22080333,3,1,90,16,16
34,211,663.517829496413,0,0,2544264.12674389,2544265.17383232,3,0,92,16,8
34,212,812.766423914582,1,0,2544266.85623259,2544267.90332487,3,1,89,8,16
34,213,626.157368067652,0,0,2544269.82113339,2544270.86811826,3,0,95,4,0
34,214,795.165238901973,1,0,2544272.63287516,2544273.6799659,3,1,80,16,4
34,215,671.837990637869,0,0,2544275.66825693,2544276.71537499,3,0,89,16,0
34,216,460.100607946515,0,0,2544278.49186935,2544279.53895701,3,0,97,4,16
34,217,491.982304956764,0,0,2544281.18606445,2544282.23319868,3,0,93,0,16
34,218,534.631744492799,1,1,2544283.72737153,2544284.77440298,3,0,81,8,0
34,219,429.16014092043,0,0,2544286.40981608,2544287.4568533,3,0,63,4,8
34,220,546.950110699981,0,0,2544288.95099458,2544289.99812112,3,0,83,16,4
34,221,972.284622024745,1,0,2544291.66872003,2544292.71580615,3,1,61,0,8
34,222,490.912498440593,0,0,2544294.85707835,2544295.90418487,3,0,75,4,4
34,223,565.075997728854,0,0,2544297.42183225,2544298.46891875,3,0,67,16,8
34,224,728.453428950161,1,0,2544300.19837589,2544301.24546162,3,1,97,8,0
34,225,732.310737948865,1,0,2544303.10434609,2544304.15143683,3,1,80,0,8
34,226,472.19916107133,0,0,2544306.09265444,2544307.13977405,3,0,76,0,4
34,227,694.158412050456,1,0,2544308.79862896,2544309.84571623,3,1,68,8,4
34,228,668.187790550292,1,0,2544311.65753538,2544312.70462765,3,1,69,16,4
34,229,761.468451004475,1,0,2544314.38702639,2544315.4341152,3,1,95,8,4
34,230,584.86222056672,1,0,2544317.35186213,2544318.3989621,3,1,69,16,0
34,231,555.372671224177,1,0,2544320.18719354,2544321.23427889,3,1,83,8,4
34,232,642.29223690927,0,0,2544322.987276,2544324.03436596,3,0,87,8,0
34,233,615.664487238973,1,0,2544325.81087803,2544326.85796338,3,1,61,0,0
34,234,609.945507254452,1,0,2544328.48155201,2544329.52864467,3,1,76,4,4
34,235,563.283619470894,1,0,2544331.25809334,2544332.30519485,3,1,65,0,16
34,236,464.829853270203,0,0,2544333.94053635,2544334.98766904,3,0,75,4,0
34,237,559.396283235401,0,0,2544336.47002513,2544337.51710508,3,0,67,8,16
34,238,765.562511049211,1,0,2544339.128922,2544340.17600657,3,1,98,8,8
34,239,720.714174211025,1,0,2544342.14077803,2544343.18787916,3,1,85,16,0
34,240,534.553597681224,0,0,2544344.94085471,2544345.98794352,3,0,68,0,16
34,241,665.096554439515,1,0,2544365.25913735,2544366.30619229,4,1,97,8,16
34,242,456.143594346941,0,0,2544368.02387886,2544369.07096035,4,0,63,0,0
34,243,619.529880117625,0,0,2544370.63574197,2544371.68280345,4,0,98,0,16
34,244,602.138114161789,0,0,2544373.32991166,2544374.37700085,4,0,100,0,4
34,245,612.222551368177,0,0,2544376.03586539,2544377.08295728,4,0,92,4,8
34,246,408.957389183342,0,0,2544378.88300817,2544379.9301066,4,0,71,0,0
34,247,695.99775550887,0,0,2544381.48308377,2544382.53020685,4,0,67,8,16
34,248,998.004633933306,1,0,2544384.24787879,2544385.29496529,4,1,70,4,0
34,249,773.603960871696,0,0,2544387.33031009,2544388.37740391,4,0,100,8,8
34,250,563.578114379197,0,0,2544390.33042981,2544391.37749476,4,0,79,0,8
34,251,564.532047137618,0,0,2544393.0363643,2544394.08345619,4,0,82,4,8
34,252,571.003240998834,1,0,2544395.81297838,2544396.86005795,4,1,71,4,4
34,253,481.221876107156,0,0,2544398.43651967,2544399.48361002,4,0,91,4,16
34,254,690.912806428969,0,0,2544401.17777662,2544402.22486235,4,0,68,16,16
34,255,723.917049355805,1,0,2544404.02492326,2544405.07201515,4,1,86,0,4
34,256,446.961120236665,0,1,2544406.94265671,2544407.98974283,4,1,73,8,8
34,257,738.984806463122,1,0,2544409.48394724,2544410.53099717,4,1,98,4,0
34,258,754.028310533613,1,0,2544412.40163142,2544413.44871792,4,1,80,16,8
34,259,475.918268784881,0,0,2544415.30759701,2544416.35468351,4,0,95,8,0
34,260,632.994274608791,0,0,2544417.95473409,2544419.00184523,4,0,88,16,0
34,261,499.623009935021,0,0,2544420.79011208,2544421.83720089,4,0,80,4,0
34,262,520.468261092901,1,0,2544423.39018807,2544424.43727688,4,1,80,4,8
34,263,544.636880047619,1,0,2544426.0137948,2544427.06088823,4,1,87,4,4
34,264,954.11561941728,1,0,2544428.63739037,2544429.68449881,4,1,97,4,0
34,265,574.656520504504,0,0,2544431.67278522,2544432.71986941,4,0,64,4,16
34,266,724.375537596643,1,0,2544434.3081552,2544435.3552417,4,1,81,0,8
34,267,697.414797265083,0,0,2544437.16706432,2544438.21414158,4,0,91,16,16
34,268,601.581075694412,1,0,2544439.93184393,2544440.9789362,4,1,94,16,0
34,269,617.405280470848,1,0,2544442.62603479,2544443.67313053,4,1,98,16,0
34,270,606.272979639471,1,0,2544445.37905269,2544446.42614766,4,1,93,0,0
34,271,461.853720247746,1,0,2544448.06149185,2544449.10858644,4,1,68,4,8
34,272,524.707836098969,1,0,2544450.61452407,2544451.66166331,4,1,72,16,16
34,273,468.325299210846,1,1,2544453.29693706,2544454.34402779,4,0,93,4,16
34,274,631.502551026642,0,0,2544456.01473834,2544457.06177326,4,0,76,8,4
34,275,594.833094626665,0,0,2544458.82651823,2544459.87359895,4,0,79,0,4
34,276,833.020760212094,1,0,2544461.5560743,2544462.60312423,4,1,92,0,8
34,277,640.930629801005,1,0,2544464.5443915,2544465.59140871,4,1,62,16,4
34,278,484.676900785416,1,0,2544467.3914623,2544468.43855264,4,1,94,4,4
34,279,647.399128880352,0,0,2544470.02683574,2544471.07392147,4,0,72,8,0
34,280,475.741571746767,1,0,2544472.86221181,2544473.90931101,4,1,83,8,4
34,281,715.753181837499,1,0,2544475.55641037,2544476.6034934,4,1,85,16,8
34,282,783.987127710134,0,0,2544478.32125619,2544479.36827071,4,0,89,16,4
34,283,705.88778750971,0,0,2544481.27423283,2544482.32133665,4,0,66,0,4
34,284,531.542818062007,1,0,2544484.0743072,2544485.12139948,4,1,82,0,16
34,285,605.217416770756,1,0,2544486.69790469,2544487.74499697,4,1,83,16,16
34,286,577.475204598159,0,0,2544489.52152521,2544490.56861132,4,0,88,0,8
34,287,450.710255187005,0,0,2544492.34513879,2544493.39223183,4,0,73,8,8
34,288,583.304284140468,0,0,2544494.93348194,2544495.98053264,4,0,86,16,4
34,289,692.195881158113,1,0,2544497.72176573,2544498.76885069,4,1,85,8,16
34,290,798.243771772832,1,0,2544500.4865542,2544501.53362491,4,1,75,4,4
34,291,720.018164720386,1,0,2544503.38074729,2544504.42783764,4,1,70,8,0
34,292,1089.08678218722,0,0,2544506.23965563,2544507.28674598,4,0,77,8,4
34,293,507.400375790894,1,0,2544509.5574001,2544510.60448583,4,1,75,16,0
34,294,514.613389503211,1,0,2544512.18105072,2544513.2280891,4,1,95,16,8
34,295,563.02839005366,0,0,2544514.89873036,2544515.9458261,4,0,98,4,4
34,296,618.672572076321,0,0,2544517.53410496,2544518.581188,4,0,98,16,4
34,297,509.187749586999,1,0,2544520.21652757,2544521.26362138,4,1,76,0,0
34,298,510.700646322221,0,0,2544522.85190602,2544523.89899136,4,0,73,0,8
34,299,495.658682193607,1,0,2544525.4990381,2544526.54612845,4,1,85,16,16
34,300,475.83049768582,0,0,2544528.06382934,2544529.11090583,4,0,71,0,4
34,301,592.765469569713,1,0,2544530.62860595,2544531.67574249,4,1,83,8,4
34,302,664.295835420489,0,0,2544533.29926684,2544534.3463595,4,0,97,4,8
34,303,483.707569073886,0,0,2544536.18170438,2544537.22878934,4,0,76,8,8
34,304,779.322170652449,0,0,2544538.81707629,2544539.86416741,4,0,95,4,16
34,305,594.809611793607,0,0,2544541.69951614,2544542.74663305,4,0,98,16,8
34,306,490.807403810322,1,0,2544544.45253751,2544545.49962901,4,1,77,4,16
34,307,787.607685197145,1,0,2544547.0879098,2544548.13499052,4,1,94,0,16
34,308,623.975024558604,1,0,2544550.07623162,2544551.1233135,4,1,75,16,4
34,309,580.182250589132,0,0,2544552.84101778,2544553.88809196,4,0,67,8,0
34,310,724.714303389192,1,0,2544555.5116883,2544556.55876941,4,1,86,8,16
34,311,779.360666871071,1,0,2544558.40588794,2544559.45297752,4,1,71,4,0
34,312,446.645452175289,1,0,2544561.38244612,2544562.42954841,4,1,72,0,16
34,313,607.01017966494,0,0,2544564.00604977,2544565.05314436,4,0,77,16,0
34,314,1031.90776100382,1,0,2544566.68847623,2544567.73556812,4,1,90,8,8
34,315,898.30782962963,1,0,2544569.87680914,2544570.92389333,4,1,70,0,0
34,316,552.758016623557,0,0,2544573.00631578,2544574.05339959,4,0,70,16,8
34,317,688.420183956623,0,0,2544575.79463999,2544576.84173034,4,0,82,8,16
34,318,989.732208196074,1,0,2544578.66530851,2544579.71238616,4,1,79,8,0
34,319,762.625643517822,0,0,2544581.71244967,2544582.7595354,4,0,81,8,4
34,320,511.491356417537,0,0,2544584.57138227,2544585.61845838,4,0,75,0,16
34,321,957.143337465823,0,0,2544611.74862561,2544612.79570749,5,0,81,4,4
34,322,508.992959745228,1,0,2544614.94871061,2544615.99580173,5,1,85,16,0
34,323,683.551582507789,1,0,2544617.67821163,2544618.72529197,5,1,80,8,4
34,324,419.664693530649,1,0,2544620.54888823,2544621.59596472,5,1,65,4,16
34,325,400.976763572544,1,0,2544623.11366138,2544624.16080986,5,1,86,4,8
34,326,535.380878951401,1,0,2544625.59608791,2544626.64317787,5,1,63,16,0
34,327,608.412207569927,1,0,2544628.34914084,2544629.39619116,5,1,97,8,8
34,328,453.716415446252,0,0,2544631.16095383,2544632.20804264,5,0,74,4,8
34,329,810.900133103132,0,0,2544633.7374987,2544634.78459213,5,0,80,16,8
34,330,396.8819337897,0,0,2544636.63170142,2544637.67879485,5,0,84,8,4
34,331,727.444446645677,0,0,2544639.1729546,2544640.22003879,5,0,88,16,16
34,332,589.536416810006,0,0,2544642.12598167,2544643.17306894,5,0,89,16,0
34,333,378.325275611132,0,0,2544644.87900419,2544645.926093,5,0,85,0,16
34,334,760.047560557723,1,0,2544647.4202516,2544648.46734387,5,1,92,0,8
34,335,647.918056230992,0,0,2544650.36156122,2544651.40861423,5,0,86,4,16
34,336,739.824021235108,1,0,2544653.17336497,2544654.22045725,5,1,90,0,16
34,337,630.528214853257,1,0,2544656.05579982,2544657.10288978,5,1,64,16,0
34,338,1236.01675732061,0,0,2544658.7852993,2544659.83244739,5,0,91,0,8
34,339,506.111526861787,1,0,2544662.19715825,2544663.24424745,5,1,81,0,0
34,340,854.001132305712,1,0,2544664.85605936,2544665.90314663,5,1,88,16,8
34,341,680.350247304887,0,0,2544667.77379089,2544668.82088009,5,0,76,8,0
34,342,529.060589615256,0,0,2544670.51504285,2544671.56213897,5,0,79,0,4
34,343,591.843103058636,0,0,2544673.25634639,2544674.30339786,5,0,72,8,0
34,344,629.670521710068,1,0,2544675.96231321,2544677.00941472,5,1,78,0,0
34,345,562.530635390431,1,0,2544678.64469808,2544679.69178458,5,1,65,8,4
34,346,785.62937118113,1,0,2544681.4212498,2544682.46837057,5,1,81,16,8
34,347,428.29320859164,1,0,2544684.44485677,2544685.49194481,5,1,86,8,8
34,348,578.517294488847,1,0,2544687.06848082,2544688.11556077,5,1,79,4,8
34,349,482.599265873432,1,0,2544689.78631483,2544690.83330817,5,1,96,0,16
34,350,558.681410737336,0,0,2544692.44514626,2544693.49220003,5,0,79,0,8
34,351,540.873501915485,0,0,2544695.15106264,2544696.19821805,5,0,64,4,0
34,352,1002.12448602542,1,0,2544697.76291074,2544698.81000032,5,1,81,16,8
34,353,619.802432600409,0,0,2544700.91593965,2544701.96303039,5,0,69,16,4
34,354,550.034802407026,0,0,2544703.62190455,2544704.66902916,5,0,86,8,4
34,355,502.661507111043,1,0,2544706.36316343,2544707.4102457,5,1,70,4,4
34,356,871.779399458319,1,0,2544709.02211266,2544710.06914911,5,1,62,8,16
34,357,759.034727700055,1,0,2544712.13979291,2544713.18688904,5,1,98,16,4
34,358,468.493526801467,1,0,2544715.02227973,2544716.06934082,5,1,64,16,16
34,359,646.355884615332,1,0,2544717.66938178,2544718.71646135,5,1,100,4,0
34,360,400.090583134443,1,0,2544720.4695574,2544721.51656306,5,1,96,0,16
34,361,430.995249655098,1,1,2544723.05777236,2544724.10486155,5,0,71,0,16
34,362,470.732459798455,1,0,2544725.55195444,2544726.59904056,5,1,84,8,8
34,363,488.608121871948,1,1,2544728.19908113,2544729.24618303,5,0,87,4,16
34,364,578.805244993418,0,0,2544730.92858447,2544731.97573987,5,0,82,0,4
34,365,506.181589793414,0,0,2544733.75219959,2544734.79928724,5,0,64,4,4
34,366,664.129917044193,0,0,2544736.39933744,2544737.44642086,5,0,97,8,0
34,367,548.107303213328,0,0,2544739.15234957,2544740.19943761,5,0,86,8,0
34,368,471.858085598797,0,0,2544741.89365426,2544742.94076232,5,0,72,0,0
34,369,458.350190427154,1,0,2544744.62310447,2544745.67020213,5,1,76,4,4
34,370,617.44377668947,0,0,2544747.23495103,2544748.28203175,5,0,71,0,4
34,371,626.459562219679,1,0,2544750.04679443,2544751.09386899,5,1,69,16,16
34,372,522.305294405669,1,0,2544752.83511209,2544753.88220167,5,1,77,16,4
34,373,524.382544215769,0,0,2544755.59990018,2544756.64698668,5,0,86,4,4
34,374,498.836534563452,1,0,2544758.37649424,2544759.4235434,5,1,65,0,8
34,375,728.72829111293,0,0,2544761.12947057,2544762.17658132,5,0,88,16,4
34,376,709.629993420094,0,0,2544764.02367444,2544765.07076903,5,0,71,4,16
34,377,805.800555739552,0,0,2544766.8825874,2544767.92966852,5,0,63,16,16
34,378,441.122032236308,0,0,2544769.81212916,2544770.85919795,5,0,65,8,16
34,379,611.202404368669,1,0,2544772.42392875,2544773.47101371,5,1,97,8,0
34,380,687.855830881745,0,0,2544775.11811884,2544776.16520072,5,0,81,4,16
34,381,756.96325302124,0,0,2544777.92997379,2544778.97705336,5,0,99,8,16
34,382,679.497558623552,1,0,2544780.84769801,2544781.89478874,5,1,63,16,8
34,383,509.56501159817,0,0,2544783.70661405,2544784.75369747,5,0,74,16,0
34,384,767.248639836907,1,0,2544786.44786755,2544787.49494288,5,1,71,4,0
34,385,634.950646199286,0,0,2544789.38918179,2544790.43624172,5,0,93,8,4
34,386,663.376163691282,0,0,2544792.27156274,2544793.31865617,5,0,94,8,8
34,387,661.54798399657,0,0,2544795.13045838,2544796.17756875,5,0,70,4,8
34,388,442.275760229677,0,0,2544798.02467842,2544799.07176723,5,0,74,4,8
34,389,449.499937705696,0,0,2544800.64829323,2544801.69539898,5,0,91,0,4
34,390,542.171975132078,1,0,2544803.18952679,2544804.23662676,5,1,63,4,0
34,391,459.35647841543,1,0,2544805.84843482,2544806.89552094,5,1,61,0,4
34,392,551.983090117574,1,0,2544808.4838125,2544809.53089554,5,1,70,8,16
34,393,764.914236962795,1,0,2544811.28396118,2544812.33097569,5,1,99,16,16
34,394,516.571301035583,1,0,2544814.16632481,2544815.21341978,5,1,62,16,4
34,395,535.942536778748,1,0,2544816.84876166,2544817.89584893,5,1,97,0,8
34,396,510.658686049283,1,0,2544819.54296407,2544820.5900421,5,1,70,0,0
34,397,401.847545057535,0,0,2544822.10773721,2544823.15485759,5,0,84,0,0
34,398,451.972542330623,0,0,2544824.66085644,2544825.70787865,5,0,63,8,16
34,399,392.539574299008,0,0,2544827.24906062,2544828.29615751,5,0,83,4,0
34,400,492.316836025566,1,0,2544829.7903215,2544830.83740685,5,1,86,8,8
34,401,844.869473483413,0,0,2544854.61458451,2544855.66166716,6,0,69,16,0
34,402,488.515731412917,1,1,2544857.61465612,2544858.66177572,6,0,89,0,0
34,403,924.503267742693,1,0,2544860.35593271,2544861.40300958,6,1,83,0,8
34,404,514.504060614854,0,0,2544863.42659345,2544864.47369265,6,0,85,8,0
34,405,727.794760838151,1,0,2544865.99143743,2544867.0384735,6,1,92,0,4
34,406,565.14875497669,0,0,2544868.96793979,2544870.01502937,6,0,94,4,0
34,407,1073.19559389725,0,0,2544871.72095808,2544872.76806306,6,0,69,4,8
34,408,671.785635873675,1,0,2544875.0151695,2544876.06232799,6,1,79,8,4
34,409,640.458667650819,1,0,2544877.85054787,2544878.89764015,6,1,87,8,0
34,410,785.95273848623,0,0,2544880.67416723,2544881.72127182,6,0,96,8,4
34,411,578.378322999924,0,0,2544883.70956478,2544884.7566405,6,0,68,16,8
34,412,389.901821967214,0,0,2544886.39198507,2544887.43906926,6,0,65,0,16
34,413,541.001308709383,0,0,2544889.03918644,2544890.08620712,6,0,86,16,0
34,414,697.670795954764,0,0,2544891.83921154,2544892.88628803,6,0,71,16,16
34,415,1130.03277033567,1,0,2544894.60402696,2544895.65112963,6,1,89,16,4
34,416,849.590634461492,1,0,2544897.83937862,2544898.8864655,6,1,95,8,8
34,417,688.84094664827,1,0,2544900.91008401,2544901.95719707,6,1,68,4,0
34,418,685.863273218274,1,0,2544903.72190547,2544904.76899428,6,1,89,8,4
34,419,918.48632786423,1,0,2544906.46316474,2544907.51024469,6,1,83,8,16
34,420,459.841914009303,0,0,2544909.62800502,2544910.67510346,6,0,66,16,8
34,421,429.045422468334,0,0,2544912.29863165,2544913.34572123,6,0,65,0,8
34,422,928.886818233877,1,0,2544914.79282259,2544915.83994104,6,1,100,0,8
34,423,608.627785462886,0,0,2544917.79290805,2544918.8400292,6,0,69,4,4
34,424,611.275932285935,1,0,2544920.52240176,2544921.56948557,6,1,78,4,8
34,425,565.085621550679,0,0,2544923.27541851,2544924.32251386,6,0,78,16,0
34,426,830.620143096894,1,0,2544925.95786113,2544927.00495187,6,1,92,0,8
34,427,791.794135700911,0,0,2544928.95794582,2544930.0050277,6,0,68,8,0
34,428,410.556517075747,0,0,2544931.95802974,2544933.00511855,6,0,65,16,0
34,429,462.083541788161,1,0,2544934.48755048,2544935.53460464,6,1,74,16,4
34,430,725.846473593265,1,0,2544937.18174865,2544938.22884478,6,1,69,16,8
34,431,481.565261259675,0,0,2544940.12297705,2544941.17006316,6,0,67,4,16
34,432,569.925735704601,0,0,2544942.79367605,2544943.84074407,6,0,78,8,4
34,433,485.963054932654,1,0,2544945.51137148,2544946.55845913,6,1,64,4,4
34,434,428.742073010653,1,0,2544948.15849663,2544949.20560738,6,1,96,4,4
34,435,1478.57988905162,0,0,2544950.80570685,2544951.85273522,6,0,66,8,16
34,436,536.03492770344,1,0,2544954.37045421,2544955.41754455,6,1,85,0,0
34,437,401.023344136775,1,0,2544957.13524498,2544958.18233687,6,1,66,0,4
34,438,429.117795079947,0,0,2544959.68826065,2544960.73534407,6,0,76,0,16
34,439,385.447438806295,0,0,2544962.31185429,2544963.35898853,6,0,77,4,4
34,440,651.682589203119,1,0,2544964.87664553,2544965.92373396,6,1,92,16,4
34,441,679.696968290955,0,0,2544967.6882897,2544968.73558929,6,0,67,4,16
34,442,529.140661470592,1,0,2544970.57093494,2544971.6180226,6,1,96,4,8
34,443,454.672658350319,1,0,2544973.34748628,2544974.3945774,6,1,94,8,16
34,444,594.724921043962,0,0,2544975.91233257,2544976.95936055,6,0,80,4,8
34,445,559.902891982347,0,0,2544978.67710872,2544979.72416019,6,0,62,16,4
34,446,468.916598707438,0,1,2544981.37128919,2544982.41834373,6,1,63,4,16
34,447,869.808784220368,1,0,2544984.01840433,2544985.06547851,6,1,99,16,16
34,448,489.565519616008,0,0,2544986.97141715,2544988.01850288,6,0,76,4,8
34,449,746.591635048389,1,0,2544989.52448094,2544990.57152355,6,1,64,16,8
34,450,569.059958681464,0,0,2544992.50099485,2544993.54807712,6,0,84,4,16
34,451,657.748804427683,0,0,2544995.25401237,2544996.30114814,6,0,61,4,0
34,452,577.419770415872,1,1,2544998.1364503,2544999.18353449,6,0,98,0,4
34,453,1290.50567140803,1,0,2545000.79535487,2545001.84244483,6,1,99,8,8
34,454,685.569548048079,0,0,2545004.30134216,2545005.34842943,6,0,91,8,8
34,455,582.429267466068,0,0,2545007.19553988,2545008.24262715,6,0,71,16,8
34,456,642.213704995811,0,0,2545009.99562657,2545011.04271038,6,0,81,8,16
34,457,461.109205614775,0,0,2545012.84276743,2545013.88985393,6,0,96,16,0
34,458,451.207239646465,1,0,2545015.45460821,2545016.5017001,6,1,75,4,4
34,459,854.507741052657,1,0,2545017.97233412,2545019.01942101,6,1,74,0,16
34,460,544.266932178289,1,0,2545020.91359178,2545021.96067828,6,1,73,8,8
34,461,753.514003008604,1,0,2545023.59609137,2545024.64313745,6,1,66,16,16
34,462,515.786365605891,1,0,2545026.56084165,2545027.60791583,6,1,69,8,4
34,463,661.21075861156,0,0,2545029.29031804,2545030.33740184,6,0,89,0,16
34,464,723.486662842333,1,0,2545032.10216028,2545033.14925102,6,1,80,8,0
34,465,648.160967044532,0,0,2545034.93753442,2545035.98462477,6,0,100,8,0
34,466,440.993455704302,0,0,2545037.84354851,2545038.89059767,6,0,65,0,0
34,467,739.452918991447,1,0,2545040.46711136,2545041.51420248,6,1,61,4,0
34,468,624.669493641704,0,0,2545043.38483558,2545044.43195903,6,0,79,0,4
34,469,638.364095240831,0,0,2545046.12610601,2545047.17318443,6,0,71,16,16
34,470,444.776081945747,0,0,2545048.90265927,2545049.94974307,6,0,93,0,0
34,471,1087.00491348282,1,0,2545051.57331939,2545052.62040936,6,1,61,16,16
34,472,557.117699179798,1,0,2545054.73811926,2545055.78521038,6,1,81,0,0
34,473,461.199286393821,1,0,2545057.54995534,2545058.59707649,6,1,81,16,4
34,474,384.689065627754,1,0,2545060.17358094,2545061.22066474,6,1,92,0,16
34,475,618.247190024704,1,0,2545062.75011387,2545063.79720691,6,1,98,4,0
34,476,727.64847567305,1,0,2545065.43258498,2545066.47964453,6,1,93,8,16
34,477,532.504835631698,0,0,2545068.37384417,2545069.42090295,6,0,80,0,4
34,478,502.394728828222,1,0,2545071.0797775,2545072.12686823,6,1,77,8,8
34,479,424.907477106899,0,0,2545073.80927351,2545074.85636925,6,0,75,0,8
34,480,487.419362179935,1,0,2545076.44464812,2545077.49173269,6,1,67,4,16
34,481,627.20600143075,1,0,2545094.00985973,2545095.05695432,7,1,73,16,4
34,482,533.567712642252,1,0,2545096.89235964,2545097.93939378,7,1,78,4,0
34,483,1190.14711864293,0,0,2545099.5276815,2545100.57476916,7,0,62,4,4
34,484,455.135766416788,1,0,2545102.78660162,2545103.8336835,7,1,70,0,8
34,485,422.025274019688,1,0,2545105.37491167,2545106.42204436,7,1,67,0,8
34,486,548.074196558446,1,0,2545108.04557487,2545109.09266638,7,1,84,8,16
34,487,421.768120490015,1,1,2545110.66918045,2545111.71626733,7,0,98,0,0
34,488,497.905699070543,0,0,2545113.24576612,2545114.2928172,7,0,62,8,16
34,489,473.805987741798,1,0,2545115.84580746,2545116.89289704,7,1,84,4,0
34,490,563.742492347956,1,0,2545118.44588307,2545119.49297535,7,1,86,4,16
34,491,699.944760650396,0,0,2545121.21066499,2545122.25776266,7,0,80,8,16
34,492,552.627514582127,1,0,2545124.04604491,2545125.09313141,7,1,78,0,4
34,493,494.91532240063,0,0,2545126.76377344,2545127.8108738,7,0,68,0,16
34,494,680.25824194774,1,0,2545129.49327138,2545130.5403498,7,1,69,16,8
34,495,484.567571431398,0,0,2545132.25805407,2545133.3051475,7,0,81,0,8
34,496,725.714046973735,1,0,2545134.9287985,2545135.97587345,7,1,63,16,4
34,497,579.514728393406,0,0,2545137.82292577,2545138.87000958,7,0,73,8,8
34,498,568.927531596273,0,0,2545140.59946171,2545141.64658131,7,0,72,0,16
34,499,468.025029171258,1,0,2545143.41132474,2545144.4584097,7,1,93,0,0
34,500,723.120950162411,0,0,2545145.96440123,2545147.01142729,7,0,98,16,8
34,501,683.910751249641,1,0,2545148.76442094,2545149.81151052,7,1,96,8,4
34,502,544.66613708064,0,0,2545151.59980201,2545152.64689236,7,0,82,4,8
34,503,653.986965771765,0,0,2545154.28223309,2545155.32932151,7,0,92,4,16
34,504,444.629796780646,0,0,2545157.11761685,2545158.16469835,7,0,65,16,0
34,505,698.738292790949,0,0,2545159.72951499,2545160.77653951,7,0,70,4,16
34,506,480.811892542988,1,0,2545162.52954202,2545163.57662082,7,1,86,0,4
34,507,632.513073273003,1,0,2545165.22373596,2545166.2708213,7,1,78,4,8
34,508,728.687100578099,1,0,2545167.9885687,2545169.03561093,7,1,99,8,0
34,509,496.018235571682,1,0,2545170.81213377,2545171.85921681,7,1,75,16,16
34,510,431.387909688056,1,0,2545173.38868211,2545174.4357636,7,1,66,4,0
34,511,615.233715623617,0,0,2545175.9769883,2545177.02407673,7,0,70,4,16
34,512,704.943093471229,0,0,2545178.73006934,2545179.77712158,7,0,90,4,4
34,513,430.112149100751,1,0,2545181.63597833,2545182.68306676,7,1,66,4,16
34,514,598.733134102076,1,0,2545184.1773062,2545185.22440502,7,1,71,8,0
34,515,477.660987060517,0,0,2545187.02437623,2545188.07146658,7,0,94,8,4
34,516,692.566598765552,0,0,2545189.71856054,2545190.765679,7,0,69,16,0
34,517,541.532555129379,1,0,2545192.6245423,2545193.67162995,7,1,66,8,16
34,518,494.868357200176,0,0,2545195.30697992,2545196.35406103,7,0,76,16,4
34,519,635.880711954087,1,0,2545198.00117386,2545199.04825612,7,1,63,8,4
34,520,671.275177504867,0,0,2545200.88360332,2545201.93069983,7,0,71,4,8
34,521,795.264173764735,1,0,2545203.63662584,2545204.68371734,7,1,100,0,4
34,522,549.48700312525,1,0,2545206.64848071,2545207.69556875,7,1,91,16,8
34,523,480.821901466697,0,0,2545209.27213094,2545210.31919011,7,0,86,0,16
34,524,829.428689088672,1,0,2545211.90746012,2545212.954547,7,1,99,8,8
34,525,620.653966441751,1,0,2545214.88402562,2545215.9311075,7,1,99,16,4
34,526,660.559019539505,0,0,2545217.57822187,2545218.62530837,7,0,82,16,16
34,527,454.646865837276,1,0,2545220.34301496,2545221.39009222,7,1,75,0,8
34,528,480.337235610932,1,0,2545222.88425429,2545223.93135234,7,1,97,16,0
34,529,738.482047338039,0,0,2545225.43726918,2545226.48436146,7,0,100,8,8
34,530,496.468639932573,1,0,2545228.29618292,2545229.34326749,7,1,97,0,0
34,531,585.806529968977,0,0,2545230.96684574,2545232.01393724,7,0,94,16,4
34,532,531.161706428975,0,0,2545233.7434013,2545234.79048588,7,0,62,4,0
34,533,404.470669105649,0,0,2545236.35523824,2545237.40232628,7,0,64,0,8
34,534,464.231238700449,0,0,2545238.84943072,2545239.89652492,7,0,82,8,0
34,535,734.763709362596,1,0,2545241.43774346,2545242.4848288,7,1,99,4,4
34,536,550.883641466498,1,0,2545244.29668991,2545245.34378219,7,1,86,16,16
34,537,598.369731102139,0,0,2545247.0261509,2545248.07323432,7,0,91,8,0
34,538,442.929039243609,0,0,2545249.72033059,2545250.76745559,7,0,93,16,16
34,539,608.962316531688,1,0,2545252.22629287,2545253.27338437,7,1,78,16,8
34,540,546.231388580054,0,0,2545254.93226161,2545255.97934619,7,0,83,4,0
34,541,528.67177920416,0,0,2545257.67356592,2545258.72066782,7,0,69,0,16
34,542,477.116652298719,1,0,2545260.43830819,2545261.48538623,7,1,86,8,8
34,543,660.749959759414,0,0,2545263.03838727,2545264.08549147,7,0,97,8,8
34,544,388.542139902711,0,0,2545265.93258344,2545266.97967417,7,0,83,4,8
34,545,408.043491654098,0,0,2545268.55619556,2545269.60328745,7,0,76,0,4
34,546,390.995495952666,0,0,2545271.15626385,2545272.20340617,7,0,61,0,0
34,547,470.613121520728,1,0,2545273.69751165,2545274.74462356,7,1,75,8,4
34,548,786.284189671278,0,0,2545276.37995273,2545277.42703269,7,0,80,16,16
34,549,503.275134135038,0,1,2545279.33297941,2545280.38006861,7,1,62,16,8
34,550,581.960000097752,0,0,2545281.93305425,2545282.98014229,7,0,71,0,16
34,551,734.152391087264,0,0,2545284.63900336,2545285.68612566,7,0,100,4,8
34,552,550.183012615889,0,0,2545287.45086986,2545288.4979579,7,0,81,16,0
34,553,657.545160036534,1,0,2545290.16858645,2545291.21568181,7,1,86,8,4
34,554,508.858608081937,1,0,2545293.00396983,2545294.0510598,7,1,73,8,0
34,555,450.77646849677,0,0,2545295.65111461,2545296.69819726,7,0,67,0,0
34,556,450.112410821021,1,0,2545298.27471364,2545299.32180438,7,1,75,0,4
34,557,467.348652891815,1,0,2545300.79243532,2545301.8395249,7,1,74,16,0
34,558,644.753677304834,0,0,2545303.36898481,2545304.41609595,7,0,85,4,4
34,559,513.109347317368,0,1,2545306.08670834,2545307.13379984,7,1,92,4,4
34,560,737.310611177236,1,0,2545308.85149449,2545309.89859254,7,1,100,8,16
34,561,809.139707125723,0,0,2545328.22854258,2545329.27563871,8,0,80,16,0
34,562,427.174896933138,0,0,2545331.1345124,2545332.18159852,8,0,65,8,16
34,563,807.683784514666,0,0,2545333.66405161,2545334.71109692,8,0,75,16,4
34,564,427.181056234986,0,0,2545336.60525421,2545337.65234495,8,0,76,0,0
34,565,497.633531689644,0,0,2545339.17002274,2545340.21715313,8,0,62,4,16
34,566,895.549199078232,1,0,2545341.72305727,2545342.77014762,8,1,76,0,8
34,567,1220.40813043714,1,0,2545344.781969,2545345.82905704,8,1,91,16,0
34,568,596.234352327883,1,0,2545348.21736794,2545349.26445713,8,1,91,4,8
34,569,510.401532053947,1,0,2545350.93509531,2545351.98217873,8,1,83,8,16
34,570,518.252040725201,0,0,2545353.53516553,2545354.58225973,8,0,75,8,16
34,571,844.822123646736,0,0,2545356.17059402,2545357.21769053,8,0,99,4,4
34,572,503.059171605855,1,0,2545359.08827282,2545360.13536509,8,1,74,16,4
34,573,784.666968509555,0,0,2545361.67664869,2545362.72367591,8,0,100,16,4
34,574,645.729552954435,1,0,2545364.68849201,2545365.73553463,8,1,62,4,16
34,575,787.182303611189,0,0,2545367.51204323,2545368.55916438,8,0,90,8,0
34,576,454.280768055469,1,0,2545370.41802229,2545371.46510841,8,1,76,4,0
34,577,484.826265368611,0,0,2545373.00631809,2545374.05342461,8,0,74,0,0
34,578,528.117435518652,0,0,2545375.6652346,2545376.71232302,8,0,78,0,4
34,579,554.19546039775,0,0,2545378.28884325,2545379.33592475,8,0,91,0,8
34,580,713.32407835871,1,0,2545380.94774436,2545381.99482816,8,1,96,16,8
34,581,544.483665842563,0,0,2545383.90083725,2545384.94785638,8,0,90,0,16
34,582,683.200113475323,1,0,2545386.65378509,2545387.70087967,8,1,94,0,8
34,583,717.803484294564,1,0,2545389.58328372,2545390.63040063,8,1,79,16,4
34,584,585.919708479196,1,0,2545392.48926548,2545393.53634351,8,1,62,8,16
34,585,658.206137828529,0,0,2545395.32464116,2545396.37172612,8,0,97,0,16
34,586,793.63193968311,1,0,2545398.05417567,2545399.1012768,8,1,92,8,8
34,587,960.237654391676,0,0,2545401.07774914,2545402.12483872,8,0,65,16,0
34,588,472.041327040643,0,0,2545404.12489646,2545405.17199066,8,0,76,0,16
34,589,620.396042708308,0,0,2545406.84261575,2545407.88970841,8,0,100,8,4
34,590,519.406923558563,0,0,2545409.56034813,2545410.60744233,8,0,98,4,4
34,591,611.00876936689,0,0,2545412.18396218,2545413.23104983,8,0,81,8,8
34,592,548.605057410896,0,0,2545414.8781565,2545415.92523377,8,0,62,16,16
34,593,592.215360142291,1,0,2545417.51352264,2545418.56061568,8,1,71,0,8
34,594,659.598927013576,0,0,2545420.33713968,2545421.38421848,8,0,70,4,4
34,595,563.548856880516,1,0,2545423.24310835,2545424.29018946,8,1,82,8,4
34,596,479.918013326824,1,0,2545425.86671931,2545426.91380851,8,1,85,4,4
34,597,559.787788428366,1,0,2545428.40796288,2545429.45504938,8,1,97,16,8
34,598,472.149115987122,0,0,2545431.07865996,2545432.12571681,8,0,66,16,8
34,599,657.487800810486,1,0,2545433.76106293,2545434.8081579,8,1,80,0,16
34,600,456.500452943146,1,0,2545436.60824382,2545437.65531069,8,1,77,0,8
34,601,423.754903487861,1,0,2545439.13769641,2545440.184791,8,1,76,0,4
34,602,662.317520938814,0,0,2545441.77306447,2545442.82015059,8,0,98,0,0
34,603,532.542176544666,0,0,2545444.58491827,2545445.63200515,8,0,65,16,4
34,604,575.922272633761,0,0,2545447.34969827,2545448.39680055,8,0,92,16,8
34,605,727.355520240963,1,0,2545450.13801362,2545451.18510936,8,1,80,4,16
34,606,810.18911069259,1,0,2545452.98515217,2545454.03226446,8,1,63,4,4
34,607,659.222435206175,1,0,2545455.9381877,2545456.98528152,8,1,78,8,0
34,608,904.390212614089,0,0,2545458.65592047,2545459.70300273,8,0,86,16,16
34,609,720.993655733764,0,0,2545461.69131878,2545462.73841029,8,0,80,8,4
34,610,489.988977089524,1,0,2545464.49137968,2545465.53851045,8,1,96,16,8
34,611,419.42447796464,0,0,2545467.06792571,2545468.11501798,8,0,96,4,8
34,612,656.816043891013,1,0,2545469.59741487,2545470.64451061,8,1,89,16,16
34,613,664.129147306085,0,0,2545472.36219487,2545473.40928599,8,0,99,8,4
34,614,565.102559980005,1,0,2545475.11522201,2545476.16232083,8,1,98,4,8
34,615,560.710540041327,1,0,2545477.91531024,2545478.96240021,8,1,80,8,0
34,616,675.868531689048,1,0,2545480.62133326,2545481.66835779,8,1,64,0,0
34,617,402.494279667735,1,0,2545483.40958664,2545484.45666968,8,1,86,0,4
34,618,474.423850420862,1,0,2545485.96260578,2545487.00971614,8,1,87,4,16
34,619,474.528944585472,1,0,2545488.62150688,2545489.66859454,8,1,84,4,0
34,620,385.553302709013,1,0,2545491.17450831,2545492.22163985,8,1,97,0,4
34,621,576.216767542064,0,0,2545493.71577843,2545494.76286532,8,0,63,4,0
34,622,497.90723901242,0,0,2545496.4099639,2545497.45705271,8,0,62,4,0
34,623,694.773579481989,1,0,2545499.0453412,2545500.09242924,8,1,80,8,8
34,624,439.891312737018,1,0,2545501.82189138,2545502.86897903,8,1,87,4,0
34,625,559.23998914659,0,0,2545504.43372485,2545505.48085293,8,0,69,16,16
34,626,443.133838474751,1,0,2545507.09263981,2545508.13972169,8,1,77,16,16
34,627,559.413606766611,0,0,2545509.76336654,2545510.81039106,8,0,87,8,16
34,628,505.195704754442,0,0,2545512.55162684,2545513.59871142,8,0,61,4,8
34,629,691.946811508387,0,0,2545515.19875584,2545516.24585043,8,0,96,8,4
34,630,512.739014811814,0,1,2545518.09298589,2545519.14012013,8,1,66,16,0
34,631,685.668482910842,1,0,2545520.74015955,2545521.78720871,8,1,70,16,0
34,632,678.188691847026,1,0,2545523.57547941,2545524.62256552,8,1,70,4,8
34,633,492.895432282239,1,0,2545526.4579131,2545527.50501577,8,1,86,8,0
34,634,1151.30032319576,1,0,2545529.14034764,2545530.18743222,8,1,73,8,0
34,635,409.001274965703,1,0,2545532.38750528,2545533.43458947,8,1,84,0,4
34,636,487.750428728759,0,0,2545534.92881005,2545535.97585074,8,0,75,8,8
34,637,466.217637527734,1,1,2545537.55235634,2545538.59945131,8,0,99,4,16
34,638,585.34188196063,0,0,2545540.11713757,2545541.16422985,8,0,89,0,0
34,639,523.532934952527,0,0,2545542.88192797,2545543.92901947,8,0,69,8,8
34,640,537.511637900025,0,0,2545545.57613115,2545546.62321341,8,0,93,0,16
34,641,1135.37256373093,0,0,2545565.82378,2545566.87087458,9,0,90,8,8
34,642,532.965248916298,0,0,2545569.15329118,2545570.20044813,9,0,99,8,0
34,643,426.592450588942,0,1,2545571.83572226,2545572.88281492,9,1,85,8,16
34,644,663.112080655992,0,0,2545574.37696159,2545575.42408312,9,0,68,4,8
34,645,566.212401725352,0,0,2545577.18882462,2545578.23590612,9,0,78,16,16
34,646,694.643077906221,0,0,2545579.96537403,2545581.01248979,9,0,97,8,0
34,647,1247.94438760728,1,0,2545582.83604486,2545583.8831329,9,1,81,4,0
34,648,487.469407264143,0,0,2545586.30675125,2545587.35382697,9,0,63,0,4
34,649,444.503529928625,0,0,2545589.02446592,2545590.07155281,9,0,62,8,0
34,650,497.366753406823,1,0,2545591.62454884,2545592.67163188,9,1,66,8,16
34,651,451.167973689735,1,0,2545594.25991575,2545595.3070034,9,1,77,4,16
34,652,561.220613308251,0,0,2545596.81293411,2545597.86002215,9,0,89,4,0
34,653,675.107848830521,0,0,2545599.62478213,2545600.67185862,9,0,89,16,0
34,654,502.800477668643,1,0,2545602.36603947,2545603.41313829,9,1,76,0,8
34,655,463.448613416404,0,0,2545605.09552317,2545606.14264008,9,0,84,0,16
34,656,1062.88441456854,1,0,2545607.77795771,2545608.82508925,9,1,80,0,16
34,657,573.965130839497,0,0,2545611.0839397,2545612.13105892,9,0,69,0,4
34,658,690.74496300891,1,0,2545613.73117571,2545614.77816443,9,1,70,4,16
34,659,592.504080850631,0,0,2545616.67234252,2545617.71942902,9,0,84,16,16
34,660,719.932318199426,0,0,2545619.50772089,2545620.5548097,9,0,91,0,0
34,661,759.622563607991,0,0,2545622.43720374,2545623.48430295,9,0,61,0,8
34,662,726.152902469039,0,0,2545625.36671508,2545626.41379619,9,0,97,16,0
34,663,514.066745061427,1,0,2545628.33151117,2545629.37860036,9,1,95,4,0
34,664,547.059054486454,0,0,2545630.93158524,2545631.97867482,9,0,79,0,0
34,665,463.353143073618,0,0,2545633.64931223,2545634.69639873,9,0,94,4,8
34,666,782.048848923296,1,0,2545636.28468298,2545637.33180567,9,1,79,16,16
34,667,878.885778598487,1,0,2545639.23777664,2545640.28480463,9,1,64,4,16
34,668,747.272245585918,1,0,2545642.36720437,2545643.41430665,9,1,94,8,0
34,669,511.288482230157,0,0,2545645.2261181,2545646.27320691,9,0,96,8,0
34,670,613.957955501974,1,0,2545647.81448627,2545648.86152388,9,1,99,0,0
34,671,712.191523052752,0,0,2545650.62628348,2545651.6733669,9,0,71,4,4
34,672,1194.07911039889,1,0,2545653.53224983,2545654.57933633,9,1,82,8,8
34,673,445.717696566135,1,0,2545656.96764876,2545658.01473026,9,1,93,0,4
34,674,469.395489897579,1,0,2545659.50889887,2545660.55598268,9,1,83,0,0
34,675,601.358567830175,0,0,2545662.20309204,2545663.2501797,9,0,78,4,4
34,676,530.194684863091,0,0,2545665.05023983,2545666.09732055,9,0,65,16,0
34,677,964.069170411676,1,0,2545667.75619702,2545668.80329007,9,1,88,8,8
34,678,800.405712332577,0,0,2545670.97982469,2545672.02691196,9,0,90,0,8
34,679,635.582366958261,1,0,2545674.03877877,2545675.08583986,9,1,67,16,8
34,680,644.028026144952,1,0,2545676.81528507,2545677.8624116,9,1,63,8,4
34,681,496.64572160691,1,0,2545679.55654857,2545680.60362429,9,1,65,4,0
34,682,785.329101607203,1,0,2545682.20368334,2545683.25076676,9,1,92,8,4
34,683,675.313418265432,0,0,2545685.15670271,2545686.20380037,9,0,81,16,0
34,684,493.508675135672,0,0,2545687.92150157,2545688.96858229,9,0,92,8,4
34,685,581.820259336382,1,0,2545690.53339817,2545691.58042423,9,1,86,16,4
34,686,508.457479067147,1,0,2545693.18047674,2545694.2275617,9,1,82,16,4
34,687,1630.25027280673,1,0,2545695.8744766,2545696.92177874,9,1,100,16,8
34,688,648.295317776501,0,0,2545699.68655219,2545700.73363908,9,0,69,16,0
34,689,527.79483795166,0,0,2545702.41603358,2545703.46315588,9,0,69,8,16
34,690,498.487375210971,0,0,2545705.14553961,2545706.19261879,9,0,78,8,16
34,691,454.440142028034,0,0,2545707.89855443,2545708.94566441,9,0,83,8,8
34,692,423.238670919091,0,0,2545710.60451432,2545711.65160197,9,0,67,4,8
34,693,522.808438632637,0,0,2545713.18105996,2545714.22816724,9,0,96,16,4
34,694,462.726426310837,0,1,2545715.93413599,2545716.98117206,9,1,67,4,4
34,695,506.39601284638,1,0,2545718.56946247,2545719.61654858,9,1,84,0,4
34,696,518.580412492156,1,0,2545721.24012336,2545722.28721833,9,1,64,16,8
34,697,684.097072575241,1,0,2545723.86373125,2545724.91082583,9,1,86,8,8
34,698,468.015789985657,1,0,2545726.62852587,2545727.67561237,9,1,83,0,16
34,699,630.835028830916,0,0,2545729.15802004,2545730.20509038,9,0,81,4,4
34,700,711.810411885381,1,0,2545731.9698723,2545733.01698767,9,1,73,0,16
34,701,612.528980243951,1,0,2545734.86405885,2545735.91114381,9,1,77,4,8
34,702,655.017506331205,1,0,2545737.59355025,2545738.64063598,9,1,95,0,4
34,703,493.363544810563,0,0,2545740.35833525,2545741.40542136,9,0,67,4,16
34,704,673.199212644249,1,0,2545743.00547541,2545744.05256037,9,1,66,16,16
34,705,701.089634560049,0,0,2545745.77025888,2545746.81735038,9,0,61,8,4
34,706,718.633075244725,1,0,2545748.69982796,2545749.74684594,9,1,92,16,8
34,707,503.604276105762,0,0,2545751.59396793,2545752.64103903,9,0,91,4,4
34,708,795.363878831267,0,0,2545754.33522258,2545755.38230715,9,0,99,16,8
34,709,549.140923190862,0,0,2545757.2411847,2545758.28827697,9,0,87,8,4
34,710,668.067297898233,0,0,2545759.98244474,2545761.02953201,9,0,74,0,0
34,711,518.994630780071,1,0,2545762.73546533,2545763.78255491,9,1,67,0,8
34,712,560.039937961847,1,0,2545765.40613662,2545766.45321581,9,1,82,8,16
34,713,571.903279982507,1,0,2545768.19450433,2545769.24154425,9,1,81,16,4
34,714,683.662451803684,1,0,2545770.98277388,2545772.02985499,9,1,69,0,8
34,715,724.144176114351,0,0,2545773.86520911,2545774.91229638,9,0,62,0,16
34,716,824.575101956725,1,0,2545776.68881885,2545777.73590496,9,1,88,4,16
34,717,639.680661726743,1,0,2545779.7006768,2545780.74775483,9,1,71,4,8
34,718,697.138394694775,1,0,2545782.48898831,2545783.53608019,9,1,91,4,0
34,719,742.735865991563,0,0,2545785.37145164,2545786.41852929,9,0,98,16,16
34,720,469.68690585345,0,0,2545788.23033304,2545789.27742107,9,0,95,16,4
