sub_id,Trial,RT,Resp,Error,Fix_onset,Disp_onset,block,tid,tloc,fish_setsize,bird_setsize
2,1,799.546462250873,1,0,1206585.86628419,1206586.91333045,1,1,81,8,16
2,2,416.225499007851,1,0,1206588.84269216,1206589.88972456,1,1,84,4,8
2,3,591.810718877241,1,0,1206591.32502815,1206592.37203014,1,1,90,8,16
2,4,566.618391545489,1,0,1206594.05433681,1206595.10137152,1,1,63,16,4
2,5,441.545633599162,1,0,1206596.7601589,1206597.80719169,1,1,98,8,8
2,6,468.223915901035,1,1,1206599.38362367,1206600.43065222,1,0,94,8,4
2,7,644.679536111653,1,0,1206602.10119482,1206603.14824763,1,1,75,16,16
2,8,502.400881610811,1,0,1206604.99526163,1206606.04228479,1,1,63,0,16
2,9,696.526662679389,1,0,1206607.7010791,1206608.74810804,1,1,81,16,8
2,10,578.024443937466,1,0,1206610.46571576,1206611.51274893,1,1,91,8,0
2,11,725.559760350734,0,0,1206613.1362418,1206614.18327959,1,0,98,16,0
2,12,626.486980821937,0,0,1206616.0891147,1206617.13614441,1,0,73,8,0
2,13,629.981285193935,0,0,1206618.80669547,1206619.85373596,1,0,89,8,0
2,14,479.368963744491,0,0,1206621.52427971,1206622.57131211,1,0,78,4,8
2,15,541.024163598195,0,0,1206624.15951278,1206625.20654672,1,0,67,8,16
2,16,478.898154571652,1,0,1206626.84180366,1206627.88886571,1,1,75,16,8
2,17,565.559745067731,1,0,1206629.4770683,1206630.52406606,1,1,73,8,4
2,18,430.076447781175,0,0,1206632.24167878,1206633.28871041,1,0,74,0,4
2,19,636.401303810999,1,0,1206634.75926387,1206635.80629511,1,1,99,0,16
2,20,474.201612873003,1,0,1206637.65332028,1206638.70034421,1,1,86,0,16
2,21,623.434613691643,1,0,1206640.20619795,1206641.25322573,1,1,88,16,16
2,22,699.526290176436,1,0,1206643.01789857,1206644.06492789,1,1,89,8,8
2,23,765.341009479016,0,0,1206645.79429699,1206646.84132631,1,0,81,4,16
2,24,578.266585245728,0,0,1206648.74717027,1206649.7942019,1,0,94,16,4
2,25,588.603212032467,0,0,1206651.51179576,1206652.55884125,1,0,65,0,0
2,26,625.19851163961,0,0,1206654.1823449,1206655.22936807,1,0,72,16,16
2,27,472.47005160898,1,0,1206657.04109218,1206658.08813151,1,1,73,4,0
2,28,653.006273554638,1,0,1206659.72338498,1206660.77041276,1,1,66,16,4
2,29,532.405239762738,1,0,1206662.4880355,1206663.53505673,1,1,88,4,16
2,30,497.046824079007,1,0,1206665.21737803,1206666.2644112,1,1,77,0,8
2,31,464.054772863165,1,0,1206667.81735393,1206668.86433243,1,1,66,0,4
2,32,711.010489845648,0,0,1206670.46430757,1206671.51134536,1,0,91,8,4
2,33,692.513429326937,0,0,1206673.33482352,1206674.38187787,1,0,62,8,16
2,34,788.883387576789,0,0,1206676.14653454,1206677.1935654,1,0,89,16,8
2,35,496.140622533858,1,0,1206679.0052822,1206680.05231768,1,1,78,8,16
2,36,613.2581315469,1,0,1206681.66404956,1206682.71107658,1,1,73,0,4
2,37,652.827651239932,0,0,1206684.33457022,1206685.38160339,1,0,97,0,0
2,38,470.641480060294,1,0,1206687.18156074,1206688.22861547,1,1,94,0,16
2,39,617.276754463091,0,0,1206689.71091412,1206690.75793344,1,0,89,4,8
2,40,656.396638136357,0,0,1206692.4637948,1206693.51082181,1,0,94,0,16
2,41,555.887178517878,0,0,1206695.28725718,1206696.33428573,1,0,86,8,8
2,42,571.77034416236,1,0,1206697.98131713,1206699.02837263,1,1,74,16,0
2,43,575.155703816563,0,0,1206700.64009528,1206701.68712036,1,0,98,16,0
2,44,563.973699696362,1,0,1206703.28706316,1206704.33410095,1,1,98,0,8
2,45,575.818609213457,0,0,1206706.06347043,1206707.11049821,1,0,83,4,8
2,46,618.284586118534,1,0,1206708.73399878,1206709.78102772,1,1,69,16,0
2,47,555.298955878243,0,0,1206711.53393033,1206712.5809585,1,0,62,0,8
2,48,457.284823292866,0,0,1206714.1809294,1206715.22796411,1,0,63,0,0
2,49,756.794458255172,1,0,1206716.80439609,1206717.85142002,1,1,100,8,4
2,50,450.901376083493,0,0,1206719.75727361,1206720.80430524,1,0,72,0,8
2,51,422.061529709026,0,0,1206722.32191111,1206723.36893813,1,0,67,4,0
2,52,415.872873505577,0,0,1206724.8513465,1206725.89833617,1,0,64,4,16
2,53,713.936589192599,0,0,1206727.45120575,1206728.4982397,1,0,99,16,16
2,54,465.51185566932,1,0,1206730.28642759,1206731.33346268,1,1,63,4,16
2,55,663.539231056347,1,0,1206732.93342626,1206733.9804552,1,1,76,8,0
2,56,450.770873809233,0,0,1206735.79220857,1206736.83922095,1,0,83,4,16
2,57,488.173824734986,0,0,1206738.30976863,1206739.3568068,1,0,63,16,0
2,58,666.9446087908,1,0,1206741.03911809,1206742.08617782,1,1,79,16,8
2,59,614.219382638112,0,0,1206743.86257778,1206744.90961441,1,0,96,4,0
2,60,719.781473977491,1,0,1206746.53310921,1206747.58013969,1,1,61,4,4
2,61,611.262101214379,0,0,1206749.49773963,1206750.54476857,1,0,96,16,4
2,62,536.711429478601,0,0,1206752.22708562,1206753.2741111,1,0,96,8,4
2,63,507.661778479815,0,0,1206754.86231523,1206755.90935379,1,0,63,0,8
2,64,437.281404621899,0,0,1206757.45049203,1206758.49752059,1,0,65,4,4
2,65,674.675809685141,1,0,1206760.12102501,1206761.16811284,1,1,91,8,8
2,66,441.802018787712,1,0,1206763.01506756,1206764.06209534,1,1,84,0,0
2,67,942.614289466292,0,0,1206765.66206316,1206766.70909594,1,0,98,8,8
2,68,450.411703903228,0,0,1206768.68552161,1206769.73255825,1,0,100,0,4
2,69,636.470981873572,0,0,1206771.34427936,1206772.39131792,1,0,62,8,0
2,70,685.588725144044,1,0,1206774.2030478,1206775.25006095,1,1,92,4,4
2,71,546.007887460291,0,0,1206776.96767599,1206778.01471031,1,0,99,4,0
2,72,719.130117679015,0,0,1206779.56760531,1206780.61466427,1,0,70,4,0
2,73,405.152439372614,1,0,1206782.47343041,1206783.52046011,1,1,96,0,0
2,74,738.919111900032,1,0,1206785.10866309,1206786.15569665,1,1,95,16,16
2,75,593.21968164295,1,0,1206787.96740998,1206789.01445624,1,1,93,4,4
2,76,504.300286294892,1,1,1206790.66146685,1206791.70851619,1,0,93,16,8
2,77,526.778243482113,0,0,1206793.28495472,1206794.33197134,1,0,64,4,4
2,78,430.563810048625,1,0,1206796.02609943,1206797.07308756,1,1,65,4,8
2,79,629.90968185477,1,0,1206798.53186771,1206799.57890935,1,1,79,0,4
2,80,576.302121859044,1,0,1206801.26123179,1206802.30825842,1,1,82,16,4
2,81,616.109933238477,0,0,1206822.48425671,1206823.53128256,2,0,98,4,16
2,82,489.137385739014,1,0,1206825.17830395,1206826.22533943,2,1,95,16,16
2,83,434.727948857471,1,0,1206827.8488889,1206828.89587395,2,1,68,0,8
2,84,577.539776219055,0,0,1206830.38994476,1206831.43698332,2,0,70,4,16
2,85,612.698781071231,1,0,1206833.20168811,1206834.24867586,2,1,99,4,8
2,86,546.213457360864,0,0,1206835.97804957,1206837.02507889,2,0,67,8,16
2,87,557.167563587427,0,0,1206838.67210259,1206839.71913192,2,0,98,0,0
2,88,636.16147194989,0,0,1206841.36615831,1206842.41318956,2,0,92,8,8
2,89,481.594046810642,1,0,1206844.08374255,1206845.13076764,2,1,62,0,8
2,90,523.058736231178,0,0,1206846.70720655,1206847.7542428,2,0,92,8,8
2,91,435.173350386322,1,0,1206849.46008145,1206850.5071177,2,1,73,16,0
2,92,495.732562150806,1,0,1206851.98944523,1206853.036458,2,1,62,0,4
2,93,559.628628659993,0,0,1206854.73055491,1206855.77757191,2,0,77,16,0
2,94,406.184523599222,1,0,1206857.44814569,1206858.4951727,2,1,65,4,8
2,95,353.75918331556,0,0,1206860.08340686,1206861.13039191,2,0,75,16,4
2,96,517.348973546177,0,0,1206862.64800433,1206863.69503789,2,0,93,8,16
2,97,516.986338654533,0,0,1206865.23617728,1206866.28321238,2,0,94,8,0
2,98,400.63990955241,1,0,1206867.96552597,1206869.0125576,2,1,86,16,16
2,99,360.86058546789,0,0,1206870.53024239,1206871.57721936,2,0,84,0,0
2,100,434.518144465983,1,0,1206873.05952572,1206874.10655542,2,1,72,8,8
2,101,370.368772652,0,0,1206875.74181044,1206876.78884322,2,0,74,4,4
2,102,408.248307416216,1,0,1206878.32998609,1206879.37701772,2,1,73,8,0
2,103,430.063358973712,0,0,1206880.8710993,1206881.91813325,2,0,71,4,0
2,104,377.409351058304,0,1,1206883.44751704,1206884.49458717,2,1,91,4,16
2,105,539.085877826437,1,0,1206885.9650952,1206887.01217457,2,1,97,0,8
2,106,507.11012724787,0,0,1206888.565043,1206889.61206539,2,0,64,4,4
2,107,392.840185435489,1,0,1206891.20032958,1206892.2473308,2,1,64,0,4
2,108,546.738161239773,0,0,1206893.75314835,1206894.80018499,2,0,61,4,0
2,109,659.73002766259,1,0,1206896.55308684,1206897.60016312,2,1,81,8,4
2,110,417.853120248765,1,0,1206899.40014395,1206900.44710975,2,1,77,4,8
2,111,386.11027225852,0,0,1206901.95295156,1206902.99998512,2,0,73,4,8
2,112,467.265744460747,1,1,1206904.41171554,1206905.45874871,2,0,93,8,0
2,113,521.249413024634,1,0,1206907.01166103,1206908.05869073,2,1,67,8,0
2,114,515.215126564726,1,0,1206909.70571289,1206910.75274145,2,1,89,0,4
2,115,706.296624615788,1,0,1206912.30565299,1206913.35268463,2,1,77,8,4
2,116,468.339019920677,0,0,1206915.21146462,1206916.25849587,2,0,70,0,0
2,117,841.23019548133,0,0,1206917.75258015,1206918.79960677,2,0,66,8,16
2,118,366.162673104554,0,0,1206920.64663078,1206921.69365626,2,0,76,0,16
2,119,567.560779862106,1,0,1206923.16424936,1206924.21126328,2,1,99,0,16
2,120,563.900556880981,0,0,1206925.8230021,1206926.87001602,2,0,92,4,0
2,121,722.131669754162,0,0,1206928.63474545,1206929.68171588,2,0,79,16,8
2,122,627.011684700847,0,0,1206931.48166514,1206932.52869869,2,0,81,16,8
2,123,577.165592694655,1,0,1206934.18749108,1206935.2345154,2,1,69,4,8
2,124,489.752555731684,1,0,1206936.85808064,1206937.90505222,2,1,88,16,8
2,125,571.085495874286,0,0,1206939.52856126,1206940.57558058,2,0,63,4,4
2,126,465.517245233059,0,0,1206942.34023225,1206943.38725926,2,0,87,4,16
2,127,574.03738796711,1,0,1206945.02251081,1206946.06957978,2,1,64,16,8
2,128,479.379357770085,1,0,1206947.72834099,1206948.77537262,2,1,84,16,0
2,129,389.889063546434,1,0,1206950.44601146,1206951.49297764,2,1,74,0,16
2,130,400.241858325899,0,0,1206952.97526783,1206954.02230755,2,0,73,0,8
2,131,775.311921490356,1,0,1206955.56345349,1206956.61048089,2,1,66,16,16
2,132,678.568934788927,0,0,1206958.52807736,1206959.57511824,2,0,79,8,8
2,133,632.212912430987,0,0,1206961.25742913,1206962.30445884,2,0,90,4,4
2,134,611.816447228193,0,0,1206964.13971724,1206965.1867558,2,0,93,16,4
2,135,688.074042554945,0,0,1206966.89260408,1206967.93964649,2,0,94,0,16
2,136,504.767245845869,1,0,1206969.77487948,1206970.82190996,2,1,96,8,16
2,137,549.101830692962,0,0,1206972.44539975,1206973.49243523,2,0,64,0,0
2,138,578.125304076821,1,0,1206975.19827927,1206976.24530436,2,1,95,0,8
2,139,724.576566135511,1,0,1206977.96292093,1206979.00994756,2,1,70,16,4
2,140,714.176420820877,0,0,1206980.73932628,1206981.78635444,2,0,73,4,16
2,141,572.653447976336,1,0,1206983.50396024,1206984.55099225,2,1,83,16,8
2,142,477.98887337558,1,0,1206986.17448397,1206987.22151791,2,1,89,8,4
2,143,493.936712387949,1,0,1206988.71562106,1206989.76263229,2,1,85,4,4
2,144,632.017351221293,0,0,1206991.3273002,1206992.37433453,2,0,87,8,0
2,145,1248.36070090532,1,0,1206994.18609944,1206995.23308565,2,1,76,16,16
2,146,480.397198349237,1,0,1206997.49185394,1206998.53890058,2,1,73,0,0
2,147,692.43335723877,0,0,1207000.08007578,1207001.12706815,2,0,89,4,0
2,148,668.576464755461,1,0,1207002.98584006,1207004.03290248,2,1,69,16,0
2,149,548.313427483663,0,0,1207005.86813779,1207006.91516981,2,0,66,8,4
2,150,1282.511489233,1,0,1207008.47984311,1207009.52687667,2,1,91,16,0
2,151,490.314985858276,0,0,1207011.96210751,1207013.00913837,2,0,96,8,4
2,152,858.414919115603,1,0,1207014.66792729,1207015.71496123,2,1,100,0,4
2,153,859.881625976413,0,0,1207017.59727128,1207018.64429984,2,0,74,8,16
2,154,552.271611290053,1,0,1207020.70307552,1207021.75011215,2,1,62,8,8
2,155,716.327975969762,0,0,1207023.45595696,1207024.50298012,2,0,90,0,4
2,156,605.860308278352,1,0,1207026.27941087,1207027.32645713,2,1,88,4,0
2,157,492.792604258284,0,0,1207029.12641371,1207030.17352272,2,0,73,16,4
2,158,635.163649218157,1,0,1207031.7851703,1207032.83219923,2,1,87,0,16
2,159,697.670771274716,1,0,1207034.60861651,1207035.65566547,2,1,76,16,16
2,160,793.507171329111,0,0,1207037.45562166,1207038.50265445,2,0,63,16,4
2,161,556.229410227388,1,0,1207045.12602913,1207046.17305153,3,1,71,8,4
2,162,498.425759607926,0,0,1207047.84360452,1207048.89063923,3,0,62,4,8
2,163,694.964870112017,0,0,1207050.56119106,1207051.6082481,3,0,89,4,0
2,164,435.775816673413,1,0,1207053.50235032,1207054.54935,3,1,62,16,0
2,165,519.833136117086,0,0,1207056.16105494,1207057.20809119,3,0,73,16,4
2,166,586.015879176557,1,0,1207058.8668728,1207059.91391252,3,1,61,4,8
2,167,410.747483372688,0,0,1207061.53739769,1207062.58443279,3,0,85,0,4
2,168,691.688069840893,0,0,1207064.18439444,1207065.2314307,3,0,63,4,4
2,169,559.734493261203,0,0,1207067.03138458,1207068.07841852,3,0,62,8,4
2,170,417.430431582034,0,0,1207069.66661688,1207070.71364774,3,0,63,4,16
2,171,438.545236596838,0,0,1207072.17244252,1207073.21946953,3,0,71,0,0
2,172,461.010874947533,0,0,1207074.79590498,1207075.84293969,3,0,63,8,4
2,173,470.007447060198,1,1,1207077.39584816,1207078.44288364,3,0,92,0,16
2,174,763.752269325778,1,0,1207079.98406384,1207081.03106313,3,1,79,8,8
2,175,533.223284874111,0,0,1207082.84277723,1207083.88981233,3,0,98,0,8
2,176,673.418522346765,1,0,1207085.54859509,1207086.59561787,3,1,68,0,4
2,177,460.418802453205,1,0,1207088.39558561,1207089.44261686,3,1,83,0,8
2,178,573.630482656881,1,0,1207091.00728208,1207092.0543114,3,1,87,16,4
2,179,627.609531395137,0,0,1207093.76014735,1207094.80719823,3,0,92,8,0
2,180,807.06285382621,0,0,1207096.63068525,1207097.67771073,3,0,73,4,0
2,181,436.294745886698,0,0,1207099.53649149,1207100.58352659,3,0,74,8,8
2,182,386.130290105939,1,0,1207102.07760779,1207103.12463749,3,1,84,0,4
2,183,676.873175194487,1,0,1207104.61875604,1207105.66577574,3,1,86,8,0
2,184,516.713785473257,1,0,1207107.39513174,1207108.44215914,3,1,68,4,8
2,185,563.188761239871,0,0,1207110.1244658,1207111.17151091,3,0,64,16,8
2,186,591.689455788583,1,0,1207112.93617297,1207113.98320537,3,1,90,8,4
2,187,686.805206118152,1,0,1207115.70086044,1207116.74785088,3,1,99,8,8
2,188,404.720511520281,0,0,1207118.59487297,1207119.64195118,3,0,85,8,8
2,189,573.428377276286,1,0,1207121.23009488,1207122.27712458,3,1,66,16,4
2,190,385.976690100506,0,0,1207124.05355764,1207125.1005835,3,0,66,0,16
2,191,538.175056688488,0,0,1207126.50054139,1207127.54761305,3,0,98,0,8
2,192,626.053128391504,1,0,1207129.1946075,1207130.2416399,3,1,93,8,0
2,193,681.525061372668,0,0,1207131.97099667,1207133.01804409,3,0,79,8,0
2,194,401.646971469745,0,0,1207134.77094517,1207135.81797641,3,0,76,16,8
2,195,549.551466712728,0,0,1207137.35918395,1207138.40616784,3,0,70,4,8
2,196,482.979141408578,0,0,1207140.0296484,1207141.07670274,3,0,64,16,16
2,197,461.572534870356,1,0,1207142.61782212,1207143.66485183,3,1,84,4,0
2,198,467.343891970813,1,0,1207145.30010569,1207146.34714425,3,1,95,16,16
2,199,432.024357840419,0,0,1207147.93533529,1207148.98236577,3,0,85,0,0
2,200,928.218234097585,0,0,1207150.59410227,1207151.64113737,3,0,100,16,16
2,201,620.914649451151,1,0,1207153.61755765,1207154.66462046,3,1,89,16,0
2,202,872.09455948323,1,0,1207156.47631147,1207157.52334618,3,1,64,4,16
2,203,507.436575368047,1,0,1207159.53506713,1207160.58209953,3,1,97,4,16
2,204,569.755835691467,1,0,1207162.09971618,1207163.14674281,3,1,61,4,4
2,205,587.969948537648,1,0,1207164.80556522,1207165.85256721,3,1,68,0,16
2,206,627.795853186399,1,0,1207167.65255035,1207168.69954426,3,1,79,4,16
2,207,467.177588259801,1,0,1207170.41714967,1207171.46418784,3,1,63,8,16
2,208,540.870178723708,1,0,1207173.09950561,1207174.14651029,3,1,82,4,4
2,209,684.812640538439,0,0,1207175.74644115,1207176.79348664,3,0,83,16,0
2,210,464.430496096611,1,0,1207178.66402339,1207179.71105232,3,1,82,16,8
2,211,443.143612705171,0,0,1207181.31101706,1207182.35804946,3,0,93,8,16
2,212,600.847327383235,0,0,1207183.84043974,1207184.88744135,3,0,83,4,16
2,213,459.128793329,0,0,1207186.59323534,1207187.64027544,3,0,63,8,16
2,214,557.752321707085,0,0,1207189.22853501,1207190.27550197,3,0,74,8,16
2,215,635.720690013841,0,0,1207191.96957347,1207193.01660587,3,0,91,16,8
2,216,779.433329589665,1,0,1207194.71069084,1207195.75773479,3,1,89,16,0
2,217,664.017354371026,0,0,1207197.67536938,1207198.72236945,3,0,77,16,0
2,218,475.427333265543,1,0,1207200.54585031,1207201.59287809,3,1,61,0,4
2,219,386.21613685973,1,0,1207203.23990141,1207204.28693689,3,1,74,0,16
2,220,424.281222978607,0,0,1207205.78102194,1207206.82804357,3,0,68,8,4
2,221,722.653678851202,1,0,1207208.45153952,1207209.49857654,3,1,90,4,8
2,222,439.522271044552,1,0,1207211.25146799,1207212.29850424,3,1,72,0,16
2,223,555.95762678422,0,0,1207213.92199788,1207214.96903721,3,0,82,16,8
2,224,435.942120617256,1,0,1207216.66311372,1207217.71013958,3,1,86,8,8
2,225,418.075628578663,1,0,1207219.26305151,1207220.31007313,3,1,85,0,4
2,226,441.630710614845,0,0,1207221.85122138,1207222.89832423,3,0,73,0,0
2,227,535.952283535153,1,0,1207224.49821968,1207225.54525439,3,1,99,0,8
2,228,648.03602360189,0,0,1207227.15698396,1207228.20401752,3,0,70,16,16
2,229,440.307209733874,0,0,1207230.01580823,1207231.06276364,3,0,95,8,16
2,230,653.303079772741,1,0,1207232.5686116,1207233.61564439,3,1,98,16,16
2,231,435.328875435516,1,0,1207235.41560327,1207236.46263028,3,1,63,16,4
2,232,558.45102854073,0,0,1207237.92142737,1207238.96846285,3,0,79,4,4
2,233,449.881995562464,1,0,1207240.73312338,1207241.78021044,3,1,68,0,0
2,234,669.307508505881,1,0,1207243.25070115,1207244.29775434,3,1,70,0,8
2,235,499.701910186559,0,0,1207246.1682907,1207247.21532233,3,0,86,16,4
2,236,478.875056840479,0,0,1207248.78004683,1207249.82704844,3,0,88,4,4
2,237,437.269471120089,1,0,1207251.49756755,1207252.54460419,3,1,63,0,0
2,238,704.725207993761,1,0,1207254.0740234,1207255.1210277,3,1,90,4,0
2,239,452.182915993035,1,0,1207256.9327341,1207257.9797692,3,1,76,4,0
2,240,414.247947046533,0,0,1207259.48566567,1207260.53264725,3,0,93,8,0
2,241,411.688716616482,1,1,1207265.29724926,1207266.34427974,4,0,99,8,4
2,242,450.000179000199,0,0,1207267.81482588,1207268.86192449,4,0,68,4,8
2,243,457.168179564178,1,0,1207270.52063643,1207271.56769193,4,1,63,16,8
2,244,378.647390054539,0,0,1207273.19117517,1207274.23820565,4,0,76,16,0
2,245,409.780072746798,0,0,1207275.74405207,1207276.79108409,4,0,66,4,16
2,246,430.916820885614,1,0,1207278.30868996,1207279.35573237,4,1,95,4,8
2,247,487.578672822565,0,0,1207280.93217052,1207281.9791983,4,0,80,8,0
2,248,690.667149610817,1,0,1207283.59095482,1207284.63797721,4,1,93,4,16
2,249,489.039220381528,1,0,1207286.4026208,1207287.44965436,4,1,62,8,8
2,250,529.549973085523,1,0,1207289.1319564,1207290.17901113,4,1,96,16,0
2,251,381.961146835238,0,0,1207291.8495518,1207292.89658343,4,0,66,4,8
2,252,548.603689298034,1,0,1207294.37890249,1207295.42593259,4,1,63,8,16
2,253,524.864595383406,0,0,1207297.08476462,1207298.1317543,4,0,69,0,8
2,254,629.22791368328,0,0,1207299.75524717,1207300.80227187,4,0,91,0,4
2,255,463.874225504696,1,0,1207302.47282486,1207303.51985765,4,1,83,0,4
2,256,702.245664782822,0,0,1207305.04923875,1207306.09626769,4,0,92,4,4
2,257,589.564078021795,0,0,1207307.86093052,1207308.9079506,4,0,73,8,0
2,258,447.808202821761,1,0,1207310.51969789,1207311.56679265,4,1,95,8,0
2,259,557.142541045323,0,0,1207313.084412,1207314.13137087,4,0,93,0,8
2,260,515.239764237776,0,0,1207315.77838418,1207316.82542582,4,0,90,0,4
2,261,443.54320387356,1,0,1207318.44891446,1207319.49594224,4,1,61,0,0
2,262,361.491538817063,0,0,1207321.0959089,1207322.14294246,4,0,72,8,16
2,263,636.222681030631,0,0,1207323.68408186,1207324.73111002,4,0,94,16,8
2,264,547.214359743521,1,0,1207326.51930754,1207327.56633378,4,1,97,16,8
2,265,357.198052573949,0,0,1207329.16630891,1207330.21333207,4,0,97,0,8
2,266,567.262818804011,1,0,1207331.62507597,1207332.67210144,4,1,80,0,16
2,267,454.845316242427,1,0,1207334.34266367,1207335.38968876,4,1,74,0,16
2,268,466.73295670189,1,0,1207337.03670052,1207338.08373177,4,1,62,0,0
2,269,725.770719815046,0,0,1207339.74251838,1207340.78956195,4,0,91,16,0
2,270,469.138586893678,1,0,1207342.66009869,1207343.70713187,4,1,76,4,4
2,271,402.592438971624,1,0,1207345.28356231,1207346.33060164,4,1,62,4,16
2,272,735.910630552098,0,0,1207347.88350895,1207348.93053289,4,0,94,16,0
2,273,699.274524813518,0,0,1207350.70696248,1207351.75399796,4,0,98,4,16
2,274,524.04731977731,1,0,1207353.63630648,1207354.68334273,4,1,62,8,16
2,275,432.883593952283,1,0,1207356.33041224,1207357.37740537,4,1,64,4,4
2,276,412.760452134535,0,0,1207358.93036543,1207359.97741053,4,0,73,8,4
2,277,478.051622165367,0,0,1207361.53024201,1207362.57729019,4,0,61,16,16
2,278,448.720178799704,1,0,1207364.07136177,1207365.11839302,4,1,65,0,0
2,279,895.478333113715,1,0,1207366.69481769,1207367.74185086,4,1,90,8,0
2,280,460.56162356399,0,0,1207369.69475109,1207370.74177464,4,0,89,0,0
2,281,769.150597741827,1,0,1207372.2711619,1207373.31819199,4,1,87,8,16
2,282,612.375027732924,1,0,1207375.28285359,1207376.32987714,4,1,93,8,16
2,283,530.91504983604,0,0,1207378.0121992,1207379.05927395,4,0,97,16,8
2,284,605.678221210837,0,0,1207380.74153904,1207381.78856836,4,0,89,4,16
2,285,919.295189436525,0,0,1207383.48265218,1207384.52968805,4,0,77,8,4
2,286,583.536336198449,0,0,1207386.54140053,1207387.58843101,4,0,85,8,8
2,287,472.697949735448,1,0,1207389.2354524,1207390.28248826,4,1,75,8,8
2,288,680.708556203172,0,0,1207391.9413203,1207392.98830266,4,0,65,16,4
2,289,469.612090615556,0,0,1207394.74121529,1207395.78828926,4,0,92,0,16
2,290,377.661886159331,1,0,1207397.38820434,1207398.43528332,4,1,65,4,0
2,291,364.113518036902,0,1,1207399.84696177,1207400.89400034,4,1,74,8,0
2,292,490.66029698588,0,0,1207402.43513896,1207403.48223835,4,0,68,8,8
2,293,416.841438738629,1,0,1207404.98801663,1207406.035101,4,1,83,4,0
2,294,470.036704326048,1,0,1207407.64677668,1207408.69381101,4,1,86,16,8
2,295,678.398011485115,1,0,1207410.30553943,1207411.3525753,4,1,74,16,16
2,296,769.19101853855,0,0,1207413.0466441,1207414.09368574,4,0,98,4,4
2,297,645.377087872475,0,0,1207416.04658097,1207417.09360721,4,0,91,16,4
2,298,419.128885725513,0,0,1207418.83474384,1207419.88177701,4,0,73,4,0
2,299,468.690105713904,1,0,1207421.31704442,1207422.36412609,4,1,69,0,8
2,300,636.142993811518,0,0,1207423.92874666,1207424.97578022,4,0,80,8,8
2,301,420.332278357819,1,0,1207426.69338216,1207427.74041341,4,1,77,0,16
2,302,504.48891799897,0,0,1207429.29331918,1207430.34034235,4,0,94,16,4
2,303,399.563169805333,0,0,1207431.98737606,1207433.03440499,4,0,76,0,8
2,304,607.944109942764,0,0,1207434.56378456,1207435.61080849,4,0,81,4,4
2,305,590.389437507838,0,0,1207437.28136417,1207438.32840081,4,0,89,8,4
2,306,569.265778409317,1,0,1207440.06953513,1207441.11656637,4,1,87,16,4
2,307,579.667848534882,1,0,1207442.79887843,1207443.8459193,4,1,83,16,16
2,308,647.173322737217,1,0,1207445.4694037,1207446.51643379,4,1,70,4,0
2,309,463.601287221536,1,0,1207448.28110009,1207449.32813249,4,1,69,0,16
2,310,453.164185397327,1,0,1207450.9045637,1207451.95159572,4,1,63,16,16
2,311,427.547244587913,1,0,1207453.4692143,1207454.51624208,4,1,75,0,0
2,312,518.689412623644,0,0,1207456.03392417,1207457.08088459,4,0,74,0,4
2,313,490.912447683513,1,0,1207458.78678368,1207459.83377951,4,1,99,4,8
2,314,487.321132794023,1,0,1207461.41019494,1207462.45723003,4,1,80,16,4
2,315,824.120924808085,0,0,1207464.13954055,1207465.18657179,4,0,70,8,4
2,316,782.016812358052,1,0,1207467.13947125,1207468.18650327,4,1,91,0,4
2,317,446.368058212101,1,0,1207470.15116718,1207471.19819573,4,1,89,16,0
2,318,584.600757341832,0,0,1207472.70404793,1207473.75107956,4,0,62,16,16
2,319,587.418682407588,0,0,1207475.50398026,1207476.55101381,4,0,62,4,8
2,320,516.991343349218,1,0,1207478.26861884,1207479.31565509,4,1,84,4,0
2,321,438.276147935539,0,0,1207484.12730798,1207485.17433692,5,0,88,16,4
2,322,369.685464305803,1,0,1207486.70370801,1207487.7507408,5,1,77,8,16
2,323,397.160233929753,0,0,1207489.26835244,1207490.31539023,5,0,89,0,4
2,324,431.88577122055,1,0,1207491.75064764,1207492.79769428,5,1,100,0,0
2,325,565.142830833793,1,0,1207494.26823195,1207495.31526897,5,1,62,8,0
2,326,459.357076091692,0,0,1207497.07999802,1207498.12695766,5,0,92,8,4
2,327,456.831722520292,1,0,1207499.64458124,1207500.69162057,5,1,61,4,8
2,328,617.091587511823,0,0,1207502.20922606,1207503.25625346,5,0,82,8,4
2,329,448.266692925245,0,0,1207505.06797256,1207506.11500958,5,0,75,8,16
2,330,566.758902976289,1,0,1207507.69144118,1207508.73847782,5,1,75,4,0
2,331,869.029873516411,0,0,1207510.50314027,1207511.55016959,5,0,99,8,0
2,332,468.901450047269,1,0,1207513.58545563,1207514.63243837,5,1,82,4,16
2,333,543.335863156244,0,0,1207516.20888653,1207517.25591315,5,0,90,4,16
2,334,594.245221465826,1,0,1207518.99704092,1207520.04409527,5,1,68,8,16
2,335,527.422670740634,0,0,1207521.65581175,1207522.70283954,5,0,81,16,8
2,336,579.473827499896,1,0,1207524.34989018,1207525.39689487,5,1,78,4,16
2,337,1001.27140199766,1,0,1207527.04391703,1207528.09094828,5,1,61,8,0
2,338,600.668319733813,0,0,1207530.20855584,1207531.25557977,5,0,81,4,0
2,339,551.72650446184,0,0,1207532.90260617,1207533.94962972,5,0,83,16,4
2,340,457.646302878857,0,0,1207535.65547684,1207536.70250616,5,0,74,4,4
2,341,494.284333661199,1,0,1207538.27894469,1207539.32597093,5,1,78,0,4
2,342,796.147244051099,1,0,1207541.02006091,1207542.06711063,5,1,68,16,4
2,343,858.853006269783,0,0,1207543.96115819,1207545.00825757,5,0,89,0,8
2,344,1087.38865540363,1,0,1207547.07873496,1207548.12576428,5,1,90,8,16
2,345,449.420040473342,1,0,1207550.27865173,1207551.32568952,5,1,64,4,8
2,346,626.622102688998,0,0,1207552.93741794,1207553.98444072,5,0,72,16,16
2,347,487.736507551745,1,0,1207555.69028591,1207556.73732024,5,1,81,0,8
2,348,456.270062364638,1,0,1207558.31375722,1207559.3607827,5,1,75,16,0
2,349,655.160138616338,1,0,1207561.0078141,1207562.05484496,5,1,65,0,16
2,350,599.685895489529,1,0,1207563.73716279,1207564.7842537,5,1,82,4,8
2,351,797.220904147252,0,0,1207566.56061863,1207567.60765334,5,0,62,16,8
2,352,538.744416087866,1,0,1207569.43114344,1207570.47822973,5,1,91,0,8
2,353,796.178041025996,1,0,1207572.04282874,1207573.08985883,5,1,64,4,0
2,354,436.608105665073,0,0,1207574.97217774,1207576.01921091,5,0,64,4,0
2,355,688.012063736096,0,0,1207577.48977052,1207578.53679869,5,0,94,0,4
2,356,682.959816418588,1,0,1207580.27794147,1207581.32497272,5,1,87,0,0
2,357,1109.49666355737,1,0,1207583.207277,1207584.2543017,5,1,92,8,8
2,358,545.182143105194,0,0,1207586.47778857,1207587.52481096,5,0,100,4,4
2,359,793.594172922894,0,0,1207589.14831191,1207590.1953397,5,0,68,16,16
2,360,940.805735997856,0,0,1207592.00710731,1207593.05410237,5,0,91,4,8
2,361,739.570083562285,1,0,1207595.08936262,1207596.13637885,5,1,74,4,0
2,362,564.473380800337,0,0,1207597.88927415,1207598.93630925,5,0,91,16,16
2,363,627.528689336032,0,0,1207600.64215829,1207601.68918338,5,0,92,16,16
2,364,533.702947897837,1,0,1207603.50091788,1207604.54794874,5,1,91,0,4
2,365,653.039765544236,0,0,1207606.25378354,1207607.30082056,5,0,93,0,4
2,366,636.867493158206,1,0,1207609.05372048,1207610.10074596,5,1,79,0,16
2,367,665.188025217503,1,0,1207611.86541726,1207612.91244312,5,1,80,8,4
2,368,547.000320628285,0,0,1207614.65358859,1207615.70061368,5,0,74,16,0
2,369,428.975455230102,0,0,1207617.2888286,1207618.33584483,5,0,75,4,4
2,370,453.19459750317,0,0,1207619.79463614,1207620.84166046,5,0,80,0,0
2,371,479.275032877922,1,0,1207622.45339311,1207623.50042551,5,1,81,4,8
2,372,439.752863720059,1,0,1207625.17097812,1207626.2180086,5,1,66,4,16
2,373,467.149870702997,0,0,1207627.70032958,1207628.74735775,5,0,92,8,8
2,374,666.270539630204,1,0,1207630.39437914,1207631.44140962,5,1,93,4,4
2,375,869.885260006413,1,0,1207633.217865,1207634.26487315,5,1,89,8,0
2,376,615.820441627875,1,0,1207636.2765941,1207637.32368964,5,1,80,16,8
2,377,688.873994396999,0,0,1207639.06481626,1207640.11181478,5,0,89,8,8
2,378,512.359860353172,0,0,1207641.93529988,1207642.98230726,5,0,74,8,8
2,379,461.348101962358,1,0,1207644.68815745,1207645.73518908,5,1,96,0,0
2,380,701.416070805863,1,0,1207647.33514882,1207648.38218353,5,1,69,8,4
2,381,416.736729210243,0,0,1207650.09978894,1207651.14682019,5,0,71,0,16
2,382,487.743821693584,0,0,1207652.74678685,1207653.79381155,5,0,65,0,0
2,383,978.629451012239,0,0,1207655.44084757,1207656.48787073,5,0,65,16,8
2,384,621.239172993228,1,0,1207658.52311789,1207659.57014144,5,1,81,0,8
2,385,440.408839611337,0,1,1207661.38187055,1207662.42889911,5,1,97,0,16
2,386,723.938298644498,0,0,1207664.00533147,1207665.05237042,5,0,91,4,16
2,387,480.546563863754,0,0,1207666.78174259,1207667.82877461,5,0,63,0,8
2,388,549.525674199685,0,0,1207669.41697066,1207670.4639996,5,0,87,8,0
2,389,636.588010471314,1,0,1207672.07573495,1207673.12276735,5,1,61,16,16
2,390,458.147909026593,1,0,1207674.80507594,1207675.85210564,5,1,80,0,16
2,391,638.100527692586,0,0,1207677.44030169,1207678.48734141,5,0,90,16,0
2,392,669.527706922963,1,0,1207680.26376985,1207681.31080572,5,1,96,8,4
2,393,597.166341962293,0,0,1207683.02843153,1207684.07523947,5,0,81,16,8
2,394,625.156165799126,0,0,1207685.73422475,1207686.78125677,5,0,99,8,16
2,395,837.464492768049,0,0,1207688.51063202,1207689.55766596,5,0,82,16,4
2,396,530.596300959587,0,0,1207691.45174085,1207692.49878519,5,0,88,8,8
2,397,482.475225580856,1,0,1207694.2046069,1207695.25164315,5,1,63,4,4
2,398,644.405442755669,0,0,1207696.79282181,1207697.83981033,5,0,78,16,0
2,399,798.150588525459,1,0,1207699.58095157,1207700.62798898,5,1,81,16,4
2,400,626.98281253688,1,0,1207702.61616563,1207703.66319957,5,1,95,16,0
2,401,1017.16611627489,0,0,1207708.47484437,1207709.52189063,6,0,98,8,0
2,402,667.655634460971,1,0,1207711.69840862,1207712.7453902,6,1,99,8,8
2,403,506.109609967098,0,0,1207714.5688291,1207715.61586228,6,0,96,0,4
2,404,922.287117689848,0,0,1207717.27464388,1207718.32168052,6,0,95,8,16
2,405,607.107971562073,1,0,1207720.30986679,1207721.35690073,6,1,89,8,0
2,406,963.619380490854,1,0,1207723.08634066,1207724.13330146,6,1,77,0,0
2,407,676.777704618871,0,0,1207726.19208214,1207727.23916228,6,0,69,4,4
2,408,484.96901220642,1,0,1207728.99200908,1207730.03904071,6,1,87,16,0
2,409,713.261750293896,1,0,1207731.60371132,1207732.65074873,6,1,92,16,16
2,410,809.997807489708,0,0,1207734.43893431,1207735.48596902,6,0,93,8,8
2,411,506.104605505243,0,0,1207737.39180643,1207738.43883845,6,0,82,0,16
2,412,615.62372581102,0,0,1207739.96822225,1207741.01524426,6,0,87,16,16
2,413,438.695756718516,0,0,1207742.815212,1207743.86223516,6,0,77,8,0
2,414,540.545655414462,0,0,1207745.45048356,1207746.49748286,6,0,79,4,0
2,415,662.982575362548,0,1,1207748.22684194,1207749.27386934,6,1,88,0,8
2,416,653.33041199483,0,0,1207751.08559768,1207752.13262816,6,0,96,16,8
2,417,952.318422729149,0,0,1207753.88552924,1207754.93255509,6,0,67,4,8
2,418,577.449694974348,1,0,1207756.99133732,1207758.03836664,6,1,85,16,0
2,419,431.312177330256,1,0,1207759.73244815,1207760.7794717,6,1,79,0,16
2,420,422.840693732724,0,0,1207762.250111,1207763.29706602,6,0,84,8,16
2,421,1001.72373279929,1,0,1207764.79114992,1207765.83817539,6,1,88,0,4
2,422,682.279587723315,0,0,1207767.92049114,1207768.96752046,6,0,100,16,4
2,423,676.415839930996,1,0,1207770.76747357,1207771.81450675,6,1,71,16,0
2,424,1389.42595361732,1,0,1207773.57917458,1207774.62620814,6,1,87,8,16
2,425,2503.60889383592,0,0,1207777.07323923,1207778.1202366,6,0,93,16,8
2,426,882.810374023393,1,0,1207781.68487334,1207782.73190112,6,1,82,4,4
2,427,541.068049380556,0,0,1207784.79066756,1207785.83770343,6,0,77,8,16
2,428,790.651135146618,1,0,1207787.42589871,1207788.47292996,6,1,100,0,0
2,429,552.757049212232,1,0,1207790.37881049,1207791.42582364,6,1,87,0,8
2,430,526.76784968935,1,0,1207793.0257649,1207794.07280577,6,1,88,8,4
2,431,1500.69241831079,0,0,1207795.66099527,1207796.70802767,6,0,86,16,16
2,432,560.204532463104,0,0,1207799.34326383,1207800.39029546,6,0,99,0,4
2,433,615.249157184735,0,0,1207801.99025326,1207803.03728644,6,0,92,0,4
2,434,682.575238868594,1,0,1207804.84901093,1207805.89604333,6,1,70,16,4
2,435,579.055373324081,0,0,1207807.67247062,1207808.71950302,6,0,100,16,8
2,436,555.372098926455,0,0,1207810.34299859,1207811.3900306,6,0,93,16,4
2,437,544.737511547282,0,0,1207813.09586733,1207814.14290088,6,0,98,4,0
2,438,566.059426171705,1,0,1207815.71933826,1207816.76636835,6,1,92,8,0
2,439,540.934467455372,1,0,1207818.50750844,1207819.55460051,6,1,92,0,8
2,440,600.205594906583,1,0,1207821.16626772,1207822.21330166,6,1,62,4,8
2,441,1653.27536244877,1,0,1207823.87208365,1207824.91910913,6,1,69,8,16
2,442,1183.99613536894,1,0,1207827.64846051,1207828.69554835,6,1,75,4,4
2,443,1005.44246984646,1,0,1207831.07190726,1207832.11894275,6,1,69,0,4
2,444,1389.03983635828,0,0,1207834.24830283,1207835.29534486,6,0,75,4,0
2,445,419.391045114025,0,0,1207837.71880046,1207838.76583787,6,0,79,0,0
2,446,425.530041335151,0,0,1207840.2599287,1207841.30694955,6,0,73,8,8
2,447,396.483469987288,0,0,1207842.90692044,1207843.95394784,6,0,86,0,8
2,448,391.749201808125,0,0,1207845.48332433,1207846.53042525,6,0,86,4,4
2,449,840.924535412341,1,0,1207848.03620431,1207849.08324017,6,1,69,16,4
2,450,392.744329757988,1,1,1207851.07142645,1207852.11852352,6,0,70,4,8
2,451,682.157169794664,1,0,1207853.54194949,1207854.5889842,6,1,99,16,16
2,452,716.973558068275,0,0,1207856.37720134,1207857.42421604,6,0,94,4,8
2,453,668.77626022324,1,0,1207859.16537191,1207860.2123789,6,1,81,4,16
2,454,500.930710230023,1,0,1207861.91821755,1207862.96526266,6,1,68,4,0
2,455,565.607480239123,1,0,1207864.49463183,1207865.54166115,6,1,81,16,8
2,456,542.013517115265,1,0,1207867.27103987,1207868.31807111,6,1,77,8,0
2,457,786.398839903995,0,0,1207869.88273903,1207870.92976912,6,0,61,16,0
2,458,598.11986843124,1,0,1207872.85913352,1207873.90616938,6,1,94,0,16
2,459,497.019491856918,1,0,1207875.65905468,1207876.70609439,6,1,77,0,8
2,460,542.047008872032,1,0,1207878.35312271,1207879.40015242,6,1,94,16,8
2,461,509.929977124557,1,0,1207881.15304195,1207882.2000859,6,1,62,0,0
2,462,1127.62492988259,0,0,1207883.77651827,1207884.82355259,6,0,61,0,0
2,463,510.848882608116,0,0,1207887.04703292,1207888.09406147,6,0,68,4,8
2,464,457.210140768439,1,0,1207889.75284808,1207890.7998801,6,1,94,16,0
2,465,1016.20217040181,0,0,1207892.29396476,1207893.34099486,6,0,94,4,16
2,466,434.806481236592,0,0,1207895.43513319,1207896.48216597,6,0,64,0,16
2,467,532.628902699798,1,0,1207898.07029581,1207899.11733052,6,1,77,16,16
2,468,424.216934479773,0,0,1207900.84670269,1207901.89372778,6,0,76,8,4
2,469,527.235578978434,0,0,1207903.34075233,1207904.38779012,6,0,98,4,4
2,470,406.883615534753,0,0,1207906.11716653,1207907.16418931,6,0,84,8,8
2,471,907.447200501338,1,0,1207908.7523919,1207909.79941314,6,1,95,8,4
2,472,432.85048706457,0,0,1207911.76408783,1207912.81111908,6,0,95,4,16
2,473,493.062847759575,0,0,1207914.28167022,1207915.32870455,6,0,66,16,4
2,474,748.451937222853,1,0,1207916.89337054,1207917.9404014,6,1,78,4,0
2,475,552.571882028133,1,0,1207919.75212628,1207920.79916099,6,1,79,4,16
2,476,435.599888907745,1,0,1207922.44617661,1207923.49320901,6,1,82,0,16
2,477,567.067642929032,1,0,1207925.01087493,1207926.05785382,6,1,64,4,16
2,478,701.32906944491,0,0,1207927.68134862,1207928.72837409,6,0,68,8,8
2,479,727.535002864897,0,0,1207930.54010359,1207931.58715139,6,0,79,8,4
2,480,1001.70794944279,1,0,1207933.34004862,1207934.38706639,6,1,65,8,4
2,481,678.004194749519,1,0,1207942.19863844,1207943.245677,7,1,71,0,16
2,482,435.640309937298,0,0,1207945.06915748,1207946.11619642,7,0,69,8,16
2,483,440.664454828948,1,0,1207947.6808678,1207948.72794794,7,1,76,16,8
2,484,433.626186335459,0,0,1207950.22201682,1207951.26900803,7,0,83,4,0
2,485,401.869864435866,1,0,1207952.82193113,1207953.8689439,7,1,85,0,16
2,486,581.214242614806,0,0,1207955.44537781,1207956.49240828,7,0,72,4,4
2,487,677.636170992628,1,0,1207958.25707535,1207959.30411353,7,1,72,16,4
2,488,700.620353454724,0,0,1207961.00994948,1207962.05698727,7,0,90,16,0
2,489,742.645163554698,1,0,1207963.80988527,1207964.85692345,7,1,76,0,16
2,490,525.865112431347,0,0,1207966.66864563,1207967.7157173,7,0,99,16,8
2,491,491.002143826336,0,0,1207969.3274026,1207970.37443462,7,0,65,8,4
2,492,670.303791295737,0,0,1207971.98615495,1207973.03319159,7,0,93,8,16
2,493,565.530102932826,0,0,1207974.89196889,1207975.93900014,7,0,63,8,16
2,494,504.106265492737,1,0,1207977.62132104,1207978.66835152,7,1,79,4,16
2,495,557.644147193059,1,0,1207980.18596586,1207981.2329948,7,1,94,4,16
2,496,609.876621514559,0,0,1207982.95062215,1207983.99763146,7,0,64,16,16
2,497,580.957087920979,0,0,1207985.75059759,1207986.79761113,7,0,95,16,0
2,498,536.237540654838,0,0,1207988.40928835,1207989.45632306,7,0,76,4,16
2,499,485.676188254729,0,0,1207991.12687182,1207992.17390999,7,0,93,4,0
2,500,477.015303447843,1,0,1207993.84445297,1207994.89154235,7,1,95,4,16
2,501,459.830194944516,0,0,1207996.53854988,1207997.58554071,7,0,75,4,0
2,502,497.963804518804,1,0,1207999.19726682,1208000.24430076,7,1,63,4,4
2,503,454.13737045601,1,0,1208001.90308891,1208002.9501167,7,1,67,8,4
2,504,793.821300845593,1,0,1208004.43243537,1208005.47948548,7,1,90,4,8
2,505,1227.59813652374,0,0,1208007.37359425,1208008.4205947,7,0,91,0,8
2,506,549.042546423152,0,0,1208010.73816869,1208011.78520109,7,0,74,16,16
2,507,571.650235680863,1,0,1208013.36163462,1208014.40866625,7,1,90,0,0
2,508,678.591647651047,1,0,1208016.11450952,1208017.16154192,7,1,80,16,0
2,509,570.636629592627,1,0,1208018.9614908,1208020.00853013,7,1,87,16,4
2,510,546.137619763613,0,0,1208021.7849551,1208022.83199251,7,0,81,8,8
2,511,781.994099728763,0,0,1208024.51430957,1208025.56136815,7,0,99,4,4
2,512,1342.05940458924,0,0,1208027.52600049,1208028.57302827,7,0,80,16,8
2,513,545.731484424323,0,0,1208030.94945726,1208031.9964758,7,0,95,8,4
2,514,500.546517549083,1,0,1208033.584673,1208034.63170579,7,1,87,8,16
2,515,617.58780409582,1,0,1208036.23166783,1208037.27869523,7,1,100,8,0
2,516,446.259498829022,1,0,1208038.91396988,1208039.96100613,7,1,74,8,4
2,517,598.86823548004,1,0,1208041.59626846,1208042.64328046,7,1,70,0,0
2,518,595.759278628975,1,0,1208044.39624698,1208045.4432455,7,1,66,16,8
2,519,491.156513802707,0,0,1208047.16081549,1208048.20784982,7,0,83,0,0
2,520,434.588207630441,0,0,1208049.77258395,1208050.81954359,7,0,94,8,8
2,521,499.562168726698,0,0,1208052.27834068,1208053.32537116,7,0,62,8,0
2,522,443.742999341339,1,0,1208054.9723937,1208056.01942533,7,1,88,0,16
2,523,533.879645867273,1,0,1208057.53704468,1208058.58405899,7,1,80,8,8
2,524,515.867637936026,1,0,1208060.18402912,1208061.23113235,7,1,92,16,8
2,525,491.540321381763,0,0,1208062.8663173,1208063.91334547,7,0,96,4,16
2,526,451.296732295305,0,1,1208065.50155191,1208066.54858277,7,1,64,16,0
2,527,452.930128201842,1,0,1208068.12501245,1208069.17209759,7,1,84,0,4
2,528,555.095695890486,1,0,1208070.67794363,1208071.72492522,7,1,80,4,8
2,529,461.123668821529,0,0,1208073.33665902,1208074.38368989,7,0,68,0,0
2,530,413.865679176524,1,0,1208076.01893605,1208077.06598154,7,1,65,0,4
2,531,374.743870925158,1,0,1208078.56005658,1208079.60716058,7,1,76,0,16
2,532,437.712562736124,0,0,1208081.00707035,1208082.05414702,7,0,87,8,0
2,533,771.240558708087,0,0,1208083.58347,1208084.63049277,7,0,68,8,0
2,534,396.552378311753,0,0,1208086.59515284,1208087.64218678,7,0,66,8,4
2,535,472.537805093452,0,0,1208089.13627144,1208090.18330731,7,0,84,8,0
2,536,594.553576316684,1,0,1208091.84209007,1208092.88912748,7,1,70,0,4
2,537,496.739239199087,1,0,1208094.54795105,1208095.59494226,7,1,68,16,0
2,538,610.008663497865,1,0,1208097.14791386,1208098.19488082,7,1,77,16,4
2,539,929.180255159736,1,0,1208099.9124947,1208100.9595117,7,1,88,4,8
2,540,474.848349811509,1,0,1208102.9829948,1208104.03002489,7,1,93,8,16
2,541,547.637818614021,0,0,1208105.63002004,1208106.67702318,7,0,91,4,4
2,542,481.058948906139,1,0,1208108.39463283,1208109.44166138,7,1,66,4,8
2,543,516.300720628351,0,0,1208111.00633392,1208112.05336632,7,0,96,0,8
2,544,1054.19411393814,1,0,1208113.7003904,1208114.74742242,7,1,99,0,8
2,545,728.401937987655,0,0,1208116.80618963,1208117.85322396,7,0,71,0,8
2,546,510.370759293437,0,0,1208119.65318515,1208120.70021294,7,0,68,0,8
2,547,834.251211257651,1,0,1208122.39429098,1208123.44133147,7,1,84,16,4
2,548,615.079003851861,0,0,1208125.33539096,1208126.38243452,7,0,63,16,4
2,549,472.155537456274,0,0,1208128.02945322,1208129.07648601,7,0,99,0,4
2,550,836.69148851186,0,0,1208130.69997657,1208131.74700897,7,0,61,16,16
2,551,1048.8057944458,1,0,1208133.69989958,1208134.74693236,7,1,89,16,16
2,552,738.014835165814,0,0,1208136.81747789,1208137.86450605,7,0,91,4,0
2,553,436.553440988064,1,0,1208139.78211408,1208140.82914109,7,1,95,4,8
2,554,673.583671217784,0,0,1208142.44086797,1208143.48789845,7,0,88,8,8
2,555,776.721653994173,0,0,1208145.19377213,1208146.24077951,7,0,72,4,0
2,556,653.440126450732,1,0,1208148.22898541,1208149.27600319,7,1,80,16,16
2,557,568.943565012887,0,0,1208151.09948058,1208152.14651914,7,0,80,0,4
2,558,805.020628264174,1,0,1208153.74646771,1208154.79357403,7,1,61,4,4
2,559,609.765752451494,1,0,1208156.73469479,1208157.7816706,7,1,88,0,0
2,560,644.694934599102,0,0,1208159.53457476,1208160.58161525,7,0,76,8,8
2,561,407.548060640693,0,0,1208167.35791473,1208168.40494405,8,0,66,4,4
2,562,432.472069049254,0,0,1208170.00492957,1208171.05194234,8,0,63,0,8
2,563,564.245098270476,1,0,1208172.54602739,1208173.59305903,8,1,64,4,8
2,564,675.752934534103,1,0,1208175.32247316,1208176.36946398,8,1,98,0,4
2,565,540.410918416455,1,0,1208178.05177065,1208179.09881113,8,1,68,4,0
2,566,903.703825781122,1,0,1208180.80465171,1208181.85168103,8,1,99,0,16
2,567,947.972966823727,0,0,1208183.8751672,1208184.92219729,8,0,61,16,4
2,568,738.205391680822,0,0,1208187.02802924,1208188.07506203,8,0,89,16,8
2,569,466.551254270598,0,0,1208189.94560455,1208190.99263618,8,0,68,8,0
2,570,553.262504749,0,0,1208192.52201074,1208193.56904353,8,0,75,4,16
2,571,1141.77653426304,0,0,1208195.20428661,1208196.25134788,8,0,63,16,16
2,572,740.418155910447,1,0,1208198.42782391,1208199.47482012,8,1,81,0,4
2,573,458.663373719901,0,0,1208201.39239004,1208202.43941397,8,0,72,4,8
2,574,839.474766748026,1,0,1208203.92172302,1208204.96879122,8,1,61,0,16
2,575,1289.59556785412,0,0,1208206.93342857,1208207.98046098,8,0,69,8,4
2,576,545.030467910692,0,0,1208210.45101366,1208211.49803066,8,0,83,4,16
2,577,534.131410997361,0,0,1208213.09798693,1208214.14502241,8,0,63,0,0
2,578,455.418140394613,1,0,1208215.70968609,1208216.75671503,8,1,84,8,4
2,579,569.184166379273,0,0,1208218.3449207,1208219.3919481,8,0,68,8,0
2,580,608.819514513016,0,0,1208221.02720427,1208222.07430173,8,0,90,0,4
2,581,1450.86557441391,1,0,1208223.82717971,1208224.87417169,8,1,71,4,4
2,582,705.14866663143,1,0,1208227.34469627,1208228.39173252,8,1,70,4,0
2,583,1045.9220407065,1,0,1208230.1799131,1208231.22694935,8,1,97,4,8
2,584,554.029734805226,0,0,1208233.36812239,1208234.41511668,8,0,62,16,0
2,585,583.536721067503,0,0,1208236.00331504,1208237.05035052,8,0,96,16,8
2,586,920.811171643436,1,0,1208238.80325814,1208239.85028516,8,1,74,8,8
2,587,590.335927903652,0,0,1208241.88552,1208242.93256087,8,0,87,8,0
2,588,769.73497052677,1,0,1208244.55604951,1208245.60308961,8,1,71,8,4
2,589,460.352974012494,0,0,1208247.47365522,1208248.5206703,8,0,81,0,16
2,590,705.282248556614,1,0,1208250.16767668,1208251.21470754,8,1,96,0,4
2,591,431.658258428797,1,0,1208252.93245115,1208253.97935228,8,1,77,0,0
2,592,493.303834227845,0,0,1208255.42637221,1208256.47341116,8,0,73,16,16
2,593,376.690626144409,1,0,1208258.03808754,1208259.08510686,8,1,75,4,0
2,594,798.672982491553,1,0,1208260.63800609,1208261.68506389,8,1,87,8,16
2,595,720.646869624034,0,0,1208263.53205672,1208264.57908604,8,0,90,16,4
2,596,529.234303859994,1,0,1208266.40257653,1208267.4496097,8,1,62,8,16
2,597,659.986797720194,1,0,1208269.19074825,1208270.23777449,8,1,100,0,16
2,598,722.303748130798,0,0,1208272.09655795,1208273.14359343,8,0,80,8,16
2,599,689.268580870703,1,0,1208275.0023688,1208276.04939389,8,1,93,16,16
2,600,432.241861475632,0,0,1208277.80229959,1208278.84933353,8,0,80,0,4
2,601,567.32210307382,0,0,1208280.34341858,1208281.39044636,8,0,87,16,16
2,602,515.012251446024,0,0,1208282.9786428,1208284.02568251,8,0,64,4,0
2,603,1179.49861916713,0,0,1208285.70799649,1208286.7550262,8,0,100,8,8
2,604,402.433834504336,0,0,1208289.04909285,1208290.09612217,8,0,96,4,8
2,605,781.58950409852,0,0,1208291.55489731,1208292.60193433,8,0,66,0,8
2,606,873.121639247984,1,0,1208294.56660595,1208295.61363604,8,1,63,4,4
2,607,527.128174435347,0,0,1208297.56652934,1208298.61356482,8,0,98,8,16
2,608,1444.45941457525,1,0,1208300.33116831,1208301.37820032,8,1,81,16,8
2,609,572.87287665531,0,0,1208303.89579195,1208304.94281896,8,0,91,4,8
2,610,961.355416104198,1,0,1208306.57808014,1208307.62510445,8,1,77,16,0
2,611,613.108766032383,1,0,1208309.60153359,1208310.64857061,8,1,82,4,16
2,612,523.174225119874,1,0,1208312.46028817,1208313.50731981,8,1,93,16,16
2,613,476.71657265164,1,0,1208315.08375872,1208316.13078765,8,1,81,8,8
2,614,397.663380019367,1,0,1208317.77781174,1208318.82484491,8,1,84,0,0
2,615,742.155876243487,0,0,1208320.40127189,1208321.4482989,8,0,87,8,0
2,616,630.730037111789,0,0,1208323.37766946,1208324.4247084,8,0,70,8,8
2,617,852.20855451189,1,0,1208326.20113261,1208327.24816578,8,1,83,16,0
2,618,789.846563478932,1,0,1208329.28340909,1208330.33044689,8,1,99,8,16
2,619,825.140690430999,1,0,1208332.23628507,1208333.2833194,8,1,63,16,8
2,620,471.86219622381,0,0,1208335.13038614,1208336.17734848,8,0,74,4,16
2,621,624.395479913801,0,0,1208337.75380086,1208338.80083095,8,0,93,16,0
2,622,995.210168184713,1,0,1208340.58900537,1208341.63607165,8,1,83,0,8
2,623,695.921501843259,0,0,1208343.7654479,1208344.81244874,8,0,97,16,8
2,624,465.946093201637,1,0,1208346.61242803,1208347.65943309,8,1,94,8,4
2,625,503.124610986561,0,0,1208349.27116113,1208350.31819738,8,0,62,8,8
2,626,517.236564308405,0,0,1208351.97697399,1208353.02401139,8,0,98,16,0
2,627,515.318296616897,1,0,1208354.72985581,1208355.77688321,8,1,82,0,0
2,628,640.720582334325,1,0,1208357.40037724,1208358.44747932,8,1,76,4,0
2,629,425.388375064358,0,0,1208360.22384078,1208361.27087356,8,0,69,4,4
2,630,450.654230313376,0,0,1208362.7414428,1208363.78844633,8,0,98,4,16
2,631,626.196719240397,1,0,1208365.25901595,1208366.30604643,8,1,63,0,0
2,632,434.990493347868,0,0,1208368.10599569,1208369.15303386,8,0,85,4,4
2,633,538.681282429025,1,0,1208370.78829427,1208371.83532975,8,1,84,16,4
2,634,547.568525187671,0,0,1208373.5764529,1208374.62348376,8,0,81,16,4
2,635,592.407795833424,0,0,1208376.31756604,1208377.36460037,8,0,78,8,4
2,636,538.697450654581,1,0,1208379.12927013,1208380.17635104,8,1,81,0,16
2,637,706.079120980576,1,0,1208381.84684398,1208382.89387946,8,1,99,16,4
2,638,507.965898839757,1,0,1208384.78797398,1208385.8349906,8,1,84,0,8
2,639,530.390346189961,1,0,1208387.50553589,1208388.55255867,8,1,77,0,8
2,640,699.873911216855,1,0,1208390.22318365,1208391.27015291,8,1,80,8,0
2,641,449.189063161612,0,0,1208398.37585552,1208399.42288522,9,0,76,4,0
2,642,423.11055236496,1,0,1208401.02284996,1208402.0698789,9,1,80,4,16
2,643,466.560108354315,1,0,1208403.64631973,1208404.69334867,9,1,62,16,0
2,644,585.263277869672,0,0,1208406.22271938,1208407.26976179,9,0,90,0,8
2,645,410.687429364771,0,0,1208408.94030978,1208409.98733409,9,0,65,0,0
2,646,915.162232704461,1,0,1208411.61083274,1208412.65786322,9,1,64,4,4
2,647,457.594333216548,1,0,1208414.64606104,1208415.69313463,9,1,63,16,4
2,648,543.019039090723,0,0,1208417.21069315,1208418.25772556,9,0,85,16,16
2,649,519.787325523794,1,0,1208419.83416331,1208420.8811934,9,1,91,0,4
2,650,500.106120482087,0,0,1208422.45763078,1208423.50465279,9,0,61,0,8
2,651,519.770772196352,0,0,1208425.18697908,1208426.23401148,9,0,86,0,4
2,652,401.477202773094,1,0,1208427.81044193,1208428.85746701,9,1,65,0,8
2,653,547.05460043624,1,0,1208430.44566691,1208431.49270047,9,1,85,4,0
2,654,567.147330148146,0,0,1208433.09267252,1208434.13969723,9,0,94,16,8
2,655,679.839696036652,1,0,1208435.86906439,1208436.91609833,9,1,100,8,0
2,656,583.335770759732,1,0,1208438.7042997,1208439.75131824,9,1,75,16,8
2,657,622.047593817115,0,0,1208441.33952238,1208442.38655324,9,0,61,16,0
2,658,625.36828010343,1,0,1208444.19828158,1208445.2453059,9,1,67,8,8
2,659,451.540413778275,1,0,1208446.9040929,1208447.95111413,9,1,63,0,0
2,660,407.367898151279,1,0,1208449.598149,1208450.64518025,9,1,96,4,16
2,661,624.127161223441,1,0,1208452.22164341,1208453.26865156,9,1,99,4,4
2,662,499.243804719299,1,0,1208455.08037028,1208456.1273946,9,1,81,4,0
2,663,431.719852378592,0,0,1208457.65677377,1208458.70387046,9,0,68,8,16
2,664,575.999156571925,0,0,1208460.26847602,1208461.31551227,9,0,62,16,8
2,665,537.554497132078,0,0,1208463.0919257,1208464.13897119,9,0,71,0,8
2,666,731.371538247913,1,0,1208465.83304769,1208466.88007509,9,1,98,16,8
2,667,657.285131281242,0,0,1208468.71532887,1208469.76236628,9,0,93,8,16
2,668,426.01278424263,1,0,1208471.45643585,1208472.50347326,9,1,66,4,16
2,669,530.770689016208,0,0,1208473.99759103,1208475.04465423,9,0,85,16,0
2,670,653.722688788548,1,0,1208476.73866799,1208477.78570232,9,1,100,8,4
2,671,418.882509693503,1,0,1208479.49157754,1208480.53864728,9,1,88,0,16
2,672,1400.96712764353,0,0,1208482.0914776,1208483.13851424,9,0,93,0,8
2,673,1106.4620045945,1,0,1208485.71491773,1208486.76194628,9,1,61,16,4
2,674,495.742186438292,1,0,1208489.06777854,1208490.11481171,9,1,79,8,4
2,675,660.630454774946,0,0,1208491.7736041,1208492.82067923,9,0,70,4,16
2,676,563.383167376742,1,0,1208494.59705917,1208495.6440908,9,1,76,8,8
2,677,523.931061150506,1,0,1208497.32640555,1208498.37344219,9,1,82,0,16
2,678,674.163809511811,0,0,1208500.09104336,1208501.13807307,9,0,88,16,16
2,679,776.368258520961,0,0,1208502.93803041,1208503.98508322,9,0,97,8,0
2,680,470.468247076496,1,0,1208505.79677807,1208506.84381009,9,1,84,0,16
2,681,591.620932566002,1,0,1208508.34966575,1208509.39669392,9,1,90,16,16
2,682,669.933457160369,0,0,1208511.00843004,1208512.05545936,9,0,72,4,8
2,683,584.389413008466,0,0,1208513.78482422,1208514.83186393,9,0,83,0,0
2,684,1202.26298831403,0,0,1208516.62004335,1208517.66710193,9,0,81,8,8
2,685,645.191151183099,0,0,1208520.01997352,1208521.06700207,9,0,95,4,0
2,686,1168.84208866395,0,0,1208522.84344014,1208523.89046061,9,0,63,0,0
2,687,386.492924764752,1,0,1208526.21982446,1208527.26685032,9,1,85,0,0
2,688,434.404580621049,1,0,1208528.66681821,1208529.71383945,9,1,71,0,4
2,689,469.995898194611,0,0,1208531.34910986,1208532.39613726,9,0,84,8,8
2,690,450.61996858567,0,0,1208533.92551837,1208534.97254345,9,0,86,8,16
2,691,386.982211843133,1,0,1208536.49016203,1208537.53719905,9,1,73,0,16
2,692,440.868099918589,1,0,1208539.03128064,1208540.07837348,9,1,65,16,0
2,693,506.992713781074,1,0,1208541.63125269,1208542.67824544,9,1,79,8,8
2,694,439.494168851525,1,0,1208544.3134966,1208545.36053363,9,1,66,16,16
2,695,508.728894405067,1,0,1208546.86637774,1208547.91340514,9,1,68,8,16
2,696,506.175438640639,1,1,1208549.59572951,1208550.6427596,9,0,85,4,8
2,697,594.991663703695,0,0,1208552.18389707,1208553.23093063,9,0,70,4,4
2,698,483.522323425859,1,0,1208555.00735869,1208556.05438839,9,1,62,0,4
2,699,611.988910241053,1,0,1208557.57200427,1208558.61903514,9,1,78,8,4
2,700,627.816641237587,1,0,1208560.31314898,1208561.36015213,9,1,90,0,16
2,701,446.033140877262,0,0,1208563.01893258,1208564.06596306,9,0,87,8,4
2,702,676.724194781855,0,0,1208565.56004657,1208566.60711015,9,0,91,4,0
2,703,683.278565295041,0,0,1208568.43056137,1208569.47759416,9,0,74,8,0
2,704,583.301509032026,1,0,1208571.27754689,1208572.3245816,9,1,61,8,0
2,705,493.821608833969,1,0,1208574.10106547,1208575.14804591,9,1,99,0,4
2,706,633.404371095821,0,0,1208576.83035757,1208577.87739267,9,0,61,8,0
2,707,1282.4352667667,0,0,1208579.52441599,1208580.57144107,9,0,96,4,8
2,708,461.799277691171,0,0,1208582.88904394,1208583.93612023,9,0,76,4,8
2,709,836.113274795935,0,0,1208585.45367952,1208586.50070731,9,0,67,4,4
2,710,846.165413968265,0,0,1208588.50065995,1208589.54768851,9,0,81,4,16
2,711,764.905232004821,1,0,1208591.44177032,1208592.48880581,9,1,70,16,4
2,712,430.51492003724,0,0,1208594.35934294,1208595.40638034,9,0,68,8,4
2,713,470.170671120286,0,0,1208596.88869478,1208597.93571987,9,0,75,16,16
2,714,835.711759049445,0,0,1208599.5239344,1208600.57101492,9,0,96,4,8
2,715,911.188265541568,1,0,1208602.59444297,1208603.64147229,9,1,64,16,4
2,716,672.218979336321,0,0,1208605.64142532,1208606.68846196,9,0,91,8,16
2,717,532.588096801192,0,0,1208608.55899947,1208609.60603726,9,0,76,16,0
2,718,484.152891905978,1,0,1208611.32364113,1208612.37068085,9,1,76,16,8
2,719,466.226730961353,0,0,1208613.88827825,1208614.93531143,9,0,74,4,4
2,720,639.797827228904,1,0,1208616.60592293,1208617.65291722,9,1,89,16,4
