sub_id,Trial,RT,Resp,Error,Fix_onset,Disp_onset,block,tid,tloc,fish_setsize,bird_setsize
6,1,514.008860103786,0,0,1212676.35410686,1212677.40114465,1,0,88,0,8
6,2,1214.039580198,1,0,1212678.95405966,1212680.00108552,1,1,69,8,0
6,3,1887.234183494,0,0,1212682.35397943,1212683.40100337,1,0,77,16,4
6,4,2160.63528042287,0,0,1212686.37740324,1212687.42443642,1,0,89,0,4
6,5,550.585681805387,0,0,1212690.76553239,1212691.81255786,1,0,62,0,16
6,6,407.097860472277,1,0,1212693.44781018,1212694.49484797,1,1,85,0,16
6,7,664.091472979635,0,0,1212696.08305057,1212697.13008374,1,0,79,8,8
6,8,552.368442993611,0,0,1212698.90650409,1212699.95353765,1,0,95,0,4
6,9,764.25831601955,0,0,1212701.69467851,1212702.74170745,1,0,71,16,8
6,10,728.665843373165,1,0,1212704.51817362,1212705.56525529,1,1,69,16,8
6,11,1074.83523595147,1,0,1212707.47100147,1212708.51808584,1,1,91,4,4
6,12,1561.50129181333,0,0,1212710.74151227,1212711.78853774,1,0,63,4,16
6,13,498.724696459249,0,0,1212714.44729087,1212715.49437447,1,0,63,16,8
6,14,862.033386947587,1,0,1212717.11782653,1212718.16485354,1,1,79,4,8
6,15,688.205520622432,0,0,1212720.22363231,1212721.27066163,1,0,97,0,0
6,16,771.983742248267,1,0,1212723.05887954,1212724.10589347,1,1,87,4,0
6,17,420.601188205183,0,1,1212725.94114263,1212726.98817234,1,1,83,4,0
6,18,572.679061442614,1,0,1212728.48225046,1212729.52927863,1,1,66,4,8
6,19,1015.43938065879,1,0,1212731.27041949,1212732.31744881,1,1,92,4,8
6,20,645.294911926612,1,0,1212734.45857796,1212735.5056146,1,1,76,8,0
6,21,543.578210519627,0,0,1212737.31733486,1212738.36436803,1,0,76,16,16
6,22,805.277603911236,0,0,1212739.99961227,1212741.04665468,1,0,81,16,0
6,23,681.695035891607,1,0,1212742.88191192,1212743.92894471,1,1,98,0,0
6,24,760.607331991196,0,0,1212745.81123782,1212746.85826869,1,0,70,0,8
6,25,561.761911259964,1,0,1212748.66999241,1212749.71702366,1,1,65,8,8
6,26,477.58486866951,0,0,1212751.4581622,1212752.50519114,1,0,72,0,8
6,27,698.359675006941,1,0,1212754.09339489,1212755.14042152,1,1,96,8,4
6,28,859.501873841509,0,0,1212756.9050882,1212757.9521206,1,0,93,8,0
6,29,595.218227477744,1,0,1212759.88148654,1212760.92851817,1,1,95,8,0
6,30,664.850619155914,1,0,1212762.65791421,1212763.70491505,1,1,61,8,8
6,31,764.804962556809,0,0,1212765.56376241,1212766.61076979,1,0,79,16,0
6,32,590.030858526006,1,0,1212768.5636296,1212769.6106593,1,1,71,8,16
6,33,491.747637046501,0,0,1212771.25772881,1212772.3047308,1,0,91,0,0
6,34,419.302324764431,1,0,1212773.86937986,1212774.91641072,1,1,94,0,8
6,35,836.215110961348,1,0,1212776.36343334,1212777.41046767,1,1,86,4,8
6,36,761.755289975554,0,0,1212779.29277656,1212780.33980781,1,0,63,8,0
6,37,606.215064646676,0,0,1212782.26917028,1212783.31620538,1,0,93,8,4
6,38,558.055107947439,1,0,1212784.99851705,1212786.04555214,1,1,82,4,8
6,39,572.192853782326,0,0,1212787.65727363,1212788.70431104,1,0,68,4,0
6,40,398.598274681717,1,1,1212790.42191106,1212791.46894577,1,0,76,16,16
6,41,1988.6348308064,0,0,1212792.88072739,1212793.92772361,1,0,98,4,16
6,42,1185.72790222242,1,0,1212797.12763807,1212798.17466547,1,1,79,4,4
6,43,542.898366693407,0,0,1212800.52755938,1212801.57458601,1,0,88,0,0
6,44,627.20937631093,0,0,1212803.19806425,1212804.24510628,1,0,70,8,8
6,45,530.813625548035,0,0,1212806.06864373,1212807.11562108,1,0,78,16,16
6,46,579.839747864753,0,0,1212808.82151555,1212809.86849637,1,0,65,16,4
6,47,586.451862705871,1,0,1212811.597862,1212812.64489902,1,1,78,4,0
6,48,530.056019546464,0,0,1212814.42132245,1212815.46835755,1,0,65,4,4
6,49,631.057075923309,1,0,1212817.12714532,1212818.17417464,1,1,63,4,16
6,50,1944.68982797116,1,0,1212819.85649516,1212820.90352025,1,1,88,4,4
6,51,967.090022517368,1,0,1212823.9622686,1212825.00929908,1,1,100,0,16
6,52,877.599343424663,0,0,1212827.03278332,1212828.0798138,1,0,74,0,0
6,53,838.626515353099,1,0,1212830.0327071,1212831.07974066,1,1,90,0,16
6,54,1349.49439018965,0,0,1212833.03263165,1212834.07966598,1,0,90,8,16
6,55,992.867877706885,0,0,1212836.44434167,1212837.49134828,1,0,73,4,0
6,56,693.51607747376,1,0,1212839.66776733,1212840.71480281,1,1,80,16,4
6,57,565.512985456735,1,0,1212842.57357779,1212843.62061867,1,1,89,8,4
6,58,774.395531974733,1,0,1212845.26762889,1212846.31465937,1,1,77,8,16
6,59,960.601480677724,0,0,1212848.12639387,1212849.17340857,1,0,84,8,8
6,60,1307.55966156721,1,0,1212851.22042441,1212852.26745374,1,1,71,16,8
6,61,874.700191197917,1,0,1212854.62033841,1212855.66736735,1,1,85,4,16
6,62,522.621240001172,1,0,1212857.60850582,1212858.6555336,1,1,87,8,16
6,63,468.32498209551,0,0,1212860.29078361,1212861.33783026,1,0,78,0,4
6,64,443.860618863255,0,0,1212862.97307757,1212864.02011036,1,0,94,0,8
6,65,772.842208389193,0,0,1212865.56129441,1212866.60827523,1,0,68,16,0
6,66,692.053220001981,1,0,1212868.47882352,1212869.5258567,1,1,88,16,8
6,67,708.573883632198,0,0,1212871.34934603,1212872.3963792,1,0,89,8,4
6,68,624.841857235879,0,0,1212874.11398384,1212875.1610197,1,0,78,16,4
6,69,925.71464413777,0,0,1212876.89038033,1212877.93740965,1,0,97,8,16
6,70,640.520222717896,1,0,1212879.87854774,1212880.92557398,1,1,82,16,4
6,71,541.545223677531,0,0,1212882.58436329,1212883.63138837,1,0,73,0,16
6,72,547.855528304353,1,0,1212885.19609017,1212886.2431653,1,1,88,16,0
6,73,473.418035311624,0,0,1212887.97246433,1212889.01949519,1,0,80,0,4
6,74,535.081319510937,1,0,1212890.65475483,1212891.70177375,1,1,73,16,16
6,75,471.915141912177,1,0,1212893.34880092,1212894.39583602,1,1,96,8,4
6,76,532.477433560416,1,0,1212896.01939472,1212897.06635936,1,1,94,4,4
6,77,631.618351209909,1,0,1212898.63102882,1212899.67808509,1,1,64,16,16
6,78,532.373878639191,0,0,1212901.36036943,1212902.40740106,1,0,73,4,16
6,79,592.444187961519,1,0,1212904.11324509,1212905.16027711,1,1,62,16,0
6,80,511.570508126169,1,0,1212906.80729773,1212907.85432475,1,1,98,0,4
6,81,537.449608324096,1,0,1212942.43001183,1212943.47698841,2,1,87,8,4
6,82,399.046370992437,1,0,1212945.10047512,1212946.14750252,2,1,99,8,0
6,83,630.690591875464,0,1,1212947.58279264,1212948.62979733,2,1,70,8,8
6,84,689.977502683178,1,0,1212950.28858894,1212951.33564983,2,1,80,4,8
6,85,603.229295928031,1,0,1212953.11204555,1212954.1591869,2,1,70,8,4
6,86,611.695389961824,1,0,1212955.82961786,1212956.87666335,2,1,95,0,8
6,87,667.775563662872,0,0,1212958.61778534,1212959.66482275,2,0,91,16,0
6,88,689.108642516658,0,0,1212961.44125581,1212962.48828667,2,0,99,16,4
6,89,452.01296848245,0,0,1212964.32356971,1212965.37056516,2,0,96,0,16
6,90,695.374291390181,1,0,1212966.94699714,1212967.99402993,2,1,71,16,4
6,91,603.983437409624,1,0,1212969.87633343,1212970.92336545,2,1,97,16,8
6,92,667.205434292555,0,0,1212972.67626884,1212973.72330085,2,0,81,8,4
6,93,732.535485876724,0,0,1212975.44090511,1212976.48793712,2,0,86,4,0
6,94,560.747150331736,0,0,1212978.26436865,1212979.31147342,2,0,89,0,16
6,95,748.967992607504,0,0,1212981.06429789,1212982.11132644,2,0,71,4,0
6,96,834.213306196034,1,0,1212983.92305478,1212984.97007602,2,1,80,16,8
6,97,514.805732527748,0,0,1212986.99356258,1212988.04059691,2,0,73,16,16
6,98,698.184132110327,1,0,1212989.61703351,1212990.66406091,2,1,63,8,16
6,99,626.017532544211,1,0,1212992.55813272,1212993.60516974,2,1,99,8,0
6,100,933.123246533796,1,0,1212995.26394519,1212996.31098375,2,1,91,16,16
6,101,704.480577725917,0,0,1212998.4285763,1212999.47561294,2,0,71,16,0
6,102,526.099760783836,1,0,1213001.25203599,1213002.29907224,2,1,92,8,8
6,103,723.863436840475,1,0,1213003.93432726,1213004.98136851,2,1,99,16,4
6,104,618.659745668992,0,0,1213006.87544263,1213007.92246464,2,0,88,0,0
6,105,621.217051055282,0,0,1213009.60478093,1213010.6518114,2,0,94,0,4
6,106,751.428672345355,1,0,1213012.31059571,1213013.35762156,2,1,94,0,8
6,107,755.199764622375,0,0,1213015.28699366,1213016.33402337,2,0,72,16,4
6,108,686.723800143227,1,0,1213018.11044642,1213019.15747959,2,1,87,16,0
6,109,595.403779298067,0,0,1213021.05155756,1213022.09859265,2,0,67,4,8
6,110,824.130754685029,1,0,1213023.88678093,1213024.93381256,2,1,90,4,8
6,111,701.439759461209,0,0,1213026.79259794,1213027.83961302,2,0,65,4,0
6,112,704.16413876228,1,0,1213029.56899174,1213030.61602837,2,1,80,8,0
6,113,499.794122064486,1,0,1213032.451281,1213033.49829261,2,1,66,4,4
6,114,446.694327518344,0,0,1213035.09827006,1213036.14529437,2,0,86,16,0
6,115,476.34913935326,0,0,1213037.62761228,1213038.67464083,2,0,77,0,16
6,116,548.134241020307,0,0,1213040.16873859,1213041.21576098,2,0,76,16,16
6,117,601.463088067248,1,0,1213042.78043197,1213043.82746014,2,1,89,0,8
6,118,564.418152207509,0,0,1213045.47448692,1213046.52151393,2,0,82,8,0
6,119,906.93117165938,0,0,1213048.297947,1213049.34498248,2,0,90,8,16
6,120,462.612524395809,0,0,1213051.32139775,1213052.36843362,2,0,69,0,16
6,121,535.431250231341,0,0,1213053.90956609,1213054.95660003,2,0,100,0,8
6,122,787.293313536793,1,0,1213056.65067884,1213057.69770355,2,1,74,8,16
6,123,515.658039133996,0,0,1213059.62707603,1213060.67411651,2,0,65,0,0
6,124,625.499758170918,0,0,1213062.36818609,1213063.41521656,2,0,82,4,16
6,125,455.058791441843,0,0,1213065.19164578,1213066.23868318,2,0,95,4,16
6,126,534.536982420832,0,0,1213067.81510285,1213068.86214333,2,0,76,4,4
6,127,749.783343169838,1,0,1213070.52092687,1213071.56796658,2,1,61,8,8
6,128,686.64103327319,0,0,1213073.35614754,1213074.40318572,2,0,82,16,8
6,129,497.898181900382,0,0,1213076.21490405,1213077.26200113,2,0,89,0,4
6,130,632.512233918533,1,0,1213078.85016561,1213079.89716067,2,1,75,4,8
6,131,598.042311845347,0,0,1213081.62653438,1213082.67356986,2,0,70,4,4
6,132,434.03175775893,0,0,1213084.46176199,1213085.50879478,2,0,73,16,16
6,133,808.88200737536,0,0,1213087.06170055,1213088.10872833,2,0,77,16,0
6,134,505.190910538659,0,0,1213090.01456536,1213091.06160315,2,0,95,0,4
6,135,566.963138990104,1,0,1213092.66156135,1213093.70858412,2,1,62,0,4
6,136,462.334966519848,0,0,1213095.42620493,1213096.47323002,2,0,65,4,8
6,137,539.876026567072,1,0,1213097.99091211,1213099.03786829,2,1,63,4,16
6,138,457.618406740949,0,0,1213100.67312677,1213101.72015879,2,0,65,8,0
6,139,1375.76191755943,0,0,1213103.28485712,1213104.33185718,2,0,76,8,8
6,140,790.429987711832,1,0,1213106.86120864,1213107.90824374,2,1,89,8,4
6,141,636.511993827298,0,0,1213109.719969,1213110.76700718,2,0,94,4,4
6,142,423.388701165095,1,0,1213112.50812956,1213113.55515696,2,1,85,0,0
6,143,863.668707199395,1,0,1213115.0139552,1213116.06098683,2,1,63,4,16
6,144,783.497584052384,1,0,1213117.95506095,1213119.00208911,2,1,87,4,16
6,145,481.216604355723,1,0,1213120.94322412,1213121.99024805,2,1,75,8,16
6,146,557.247071992606,1,0,1213123.54315075,1213124.59018353,2,1,65,0,0
6,147,641.363675473258,1,0,1213126.23721032,1213127.28423964,2,1,78,16,8
6,148,625.391198787838,1,0,1213129.03713917,1213130.08417042,2,1,68,0,0
6,149,641.380613902584,0,0,1213131.89589107,1213132.94292,2,0,82,16,16
6,150,755.630152532831,1,0,1213134.74287696,1213135.78990975,2,1,70,4,0
6,151,696.346706245095,1,0,1213137.57810726,1213138.6251362,2,1,79,4,4
6,152,737.925729947165,1,0,1213140.50750053,1213141.55450907,2,1,74,8,16
6,153,509.16295312345,1,0,1213143.42501925,1213144.47204934,2,1,99,8,8
6,154,793.798408936709,0,0,1213146.0484871,1213147.09552258,2,0,61,16,8
6,155,716.076416661963,1,0,1213149.06017263,1213150.10720465,2,1,91,16,4
6,156,978.278571041301,1,0,1213151.86010188,1213152.90713197,2,1,80,4,0
6,157,449.437184724957,1,0,1213154.97767788,1213156.02470142,2,1,85,0,8
6,158,568.872552597895,0,0,1213157.54231923,1213158.58935163,2,0,69,0,4
6,159,664.047202561051,0,0,1213160.24812901,1213161.29516872,2,0,81,8,4
6,160,459.387694019824,0,0,1213163.01277567,1213164.05979999,2,0,73,0,16
6,161,1847.21926227212,1,0,1213198.7648333,1213199.81186916,3,1,89,16,8
6,162,826.720782089978,0,0,1213202.78827212,1213203.83530876,3,0,74,4,4
6,163,509.335031267256,1,0,1213205.8117171,1213206.85875335,3,1,65,0,16
6,164,402.834786335006,0,0,1213208.38813446,1213209.43523769,3,0,86,8,0
6,165,494.990175589919,1,0,1213210.95277581,1213211.99979974,3,1,88,8,16
6,166,488.316466799006,1,0,1213213.61152932,1213214.65855941,3,1,88,4,16
6,167,496.809893287718,0,1,1213216.22323541,1213217.27025049,3,1,91,16,4
6,168,690.310110338032,1,0,1213218.79963275,1213219.84667092,3,1,78,16,16
6,169,481.88990377821,0,0,1213221.63486266,1213222.68189121,3,0,67,8,8
6,170,501.656185369939,0,0,1213224.36420481,1213225.41123528,3,0,75,4,16
6,171,713.151471922174,0,0,1213227.0935508,1213228.1405832,3,0,81,8,4
6,172,591.209998354316,1,0,1213229.98760105,1213231.03462537,3,1,73,16,16
6,173,505.394940730184,0,0,1213232.79935904,1213233.84632099,3,0,96,8,0
6,174,578.982821432874,1,0,1213235.4227522,1213236.46978923,3,1,64,16,8
6,175,566.915018716827,1,0,1213238.06974973,1213239.11678675,3,1,92,16,16
6,176,503.684937488288,0,0,1213240.85792376,1213241.90495732,3,0,80,0,4
6,177,621.238223975524,0,0,1213243.48138737,1213244.52841323,3,0,65,4,8
6,178,491.266434080899,1,0,1213246.22249051,1213247.26952868,3,1,96,8,8
6,179,560.560828540474,1,0,1213248.83419352,1213249.88122515,3,1,100,8,4
6,180,510.532649233937,1,0,1213251.53999444,1213252.58705225,3,1,82,4,8
6,181,1711.36524598114,1,0,1213254.17523098,1213255.22226684,3,1,78,16,4
6,182,1492.13182949461,1,0,1213257.99867411,1213259.04570844,3,1,74,4,16
6,183,493.417219026014,1,0,1213261.62212502,1213262.6691401,3,1,95,16,0
6,184,1204.28193709813,0,0,1213264.2573427,1213265.30437125,3,0,80,0,4
6,185,871.445333817974,0,0,1213267.65725439,1213268.70429179,3,0,66,0,4
6,186,1404.626786476,1,0,1213270.62188904,1213271.66892568,3,1,91,4,16
6,187,567.053220234811,0,0,1213274.0923963,1213275.13943024,3,0,72,16,8
6,188,653.754846658558,1,0,1213276.88056071,1213277.92766125,3,1,98,0,16
6,189,494.407727615908,0,0,1213279.69225363,1213280.73928295,3,0,98,4,0
6,190,717.077703680843,0,0,1213282.38632552,1213283.43334098,3,0,100,4,8
6,191,444.204775383696,1,0,1213285.33917224,1213286.38620926,3,1,94,0,8
6,192,478.851010324433,0,0,1213288.00970059,1213289.05673184,3,0,97,8,8
6,193,468.958630226552,0,0,1213290.57433656,1213291.62137204,3,0,87,4,0
6,194,602.199521381408,1,0,1213293.23309507,1213294.28013286,3,1,92,0,0
6,195,423.776743235067,0,0,1213295.95067892,1213296.99770747,3,0,93,4,4
6,196,731.016039149836,0,0,1213298.51532258,1213299.56236384,3,0,73,4,16
6,197,657.40852500312,1,0,1213301.32701474,1213302.37404868,3,1,67,8,16
6,198,1069.06965351664,0,0,1213304.10342393,1213305.15045518,3,0,78,8,0
6,199,556.672322796658,1,0,1213307.24452576,1213308.29155662,3,1,83,0,0
6,200,712.948981439695,0,0,1213309.90327387,1213310.95030936,3,0,80,0,8
6,201,2499.64360170998,0,0,1213312.83262788,1213313.8796468,3,0,69,0,4
6,202,998.96760750562,1,0,1213317.49131902,1213318.53842764,3,1,86,16,4
6,203,1181.80975457653,0,0,1213320.67953832,1213321.72653646,3,0,66,8,16
6,204,811.38734286651,0,0,1213323.96175429,1213325.00878361,3,0,86,16,0
6,205,1436.924750451,1,0,1213326.93815378,1213327.98518426,3,1,97,16,4
6,206,1210.48830170184,1,0,1213330.5498337,1213331.59685994,3,1,92,4,0
6,207,2299.31684560142,0,0,1213333.99679819,1213335.04383906,3,0,78,4,8
6,208,1025.15121316537,1,0,1213338.53786675,1213339.58489646,3,1,96,16,0
6,209,606.292441952974,1,0,1213341.73778776,1213342.78481631,3,1,83,8,16
6,210,1047.91211755946,0,0,1213344.40832035,1213345.45534736,3,0,82,8,8
6,211,468.077066121623,1,0,1213347.5729326,1213348.61996115,3,1,98,4,0
6,212,1162.05155709758,0,0,1213350.11405544,1213351.161089,3,0,90,0,8
6,213,471.358101116493,0,0,1213353.41985228,1213354.46688276,3,0,98,16,16
6,214,471.709572011605,1,0,1213355.94920297,1213356.99623922,3,1,85,0,16
6,215,574.375205906108,1,0,1213358.6197294,1213359.66675949,3,1,80,8,16
6,216,478.059527464211,0,1,1213361.360836,1213362.40786994,3,1,84,16,16
6,217,524.336632806808,1,0,1213363.97253362,1213365.01956333,3,1,93,8,0
6,218,577.277822652832,0,0,1213366.71364099,1213367.7606757,3,0,73,0,8
6,219,645.650232210755,0,0,1213369.37239989,1213370.41942651,3,0,83,16,0
6,220,768.734274199232,0,0,1213372.12526516,1213373.1723068,3,0,63,4,4
6,221,1030.99147835746,0,0,1213374.98402783,1213376.03108641,3,0,98,16,0
6,222,543.064285535365,1,0,1213378.19571483,1213379.24274569,3,1,87,0,0
6,223,523.013901663944,1,0,1213380.88975592,1213381.93678832,3,1,77,0,0
6,224,502.277899766341,0,0,1213383.50146971,1213384.54849595,3,0,88,8,0
6,225,500.21065142937,0,0,1213386.08964112,1213387.13666544,3,0,89,0,16
6,226,656.644759699702,1,0,1213388.65427901,1213389.7013118,3,1,72,8,4
6,227,599.911304656416,1,0,1213391.5247915,1213392.57182314,3,1,99,0,16
6,228,664.688934804872,0,0,1213394.31297092,1213395.36000294,3,0,90,8,4
6,229,465.487808920443,0,0,1213397.14818968,1213398.19522285,3,0,77,0,8
6,230,482.578216586262,1,0,1213399.84224347,1213400.88926663,3,1,95,16,8
6,231,1092.14815194719,1,0,1213402.52452126,1213403.57156252,3,1,64,4,4
6,232,1128.52825783193,1,0,1213405.83037816,1213406.87736629,3,1,100,16,4
6,233,914.729740936309,1,0,1213409.14788171,1213410.19500303,3,1,79,4,8
6,234,563.805292127654,0,0,1213412.14789826,1213413.1948529,3,0,68,8,4
6,235,716.811310034245,0,0,1213414.84187544,1213415.88891054,3,0,71,4,4
6,236,650.51230811514,0,0,1213417.67709304,1213418.72412737,3,0,67,16,8
6,237,448.08211713098,0,0,1213420.45349646,1213421.5005254,3,0,76,4,0
6,238,654.895105399191,1,0,1213423.13580582,1213424.18282167,3,1,70,8,8
6,239,610.314529621974,0,0,1213426.0063006,1213427.05333224,3,0,91,0,0
6,240,440.027162898332,0,0,1213428.84152859,1213429.88855253,3,0,97,0,4
6,241,607.205188134685,0,0,1213443.88821761,1213444.9352504,4,0,75,8,0
6,242,406.944260466844,0,0,1213446.61755783,1213447.66464644,4,0,84,4,16
6,243,577.241251245141,0,0,1213449.13514253,1213450.18217147,4,0,96,4,0
6,244,572.788390563801,1,0,1213451.80567242,1213452.85270944,4,1,68,0,16
6,245,445.771572412923,0,0,1213454.55855541,1213455.60561244,4,0,68,0,0
6,246,507.591921137646,0,0,1213457.14672297,1213458.1937419,4,0,75,16,8
6,247,562.000588048249,1,0,1213459.86429296,1213460.9113192,4,1,69,4,0
6,248,680.233333259821,0,0,1213462.52305417,1213463.57008734,4,0,79,8,4
6,249,465.036247856915,0,0,1213465.25238977,1213466.29943064,4,0,75,8,16
6,250,535.968657815829,1,0,1213467.85235643,1213468.89935688,4,1,61,0,4
6,251,865.723251830786,1,0,1213470.64051622,1213471.68752937,4,1,91,8,8
6,252,617.273110896349,0,0,1213473.66398584,1213474.71098359,4,0,69,8,16
6,253,466.695821145549,0,0,1213476.52270578,1213477.56973241,4,0,88,8,0
6,254,767.938941717148,0,0,1213479.18145698,1213480.22850362,4,0,64,8,8
6,255,507.234676042572,1,0,1213482.00492667,1213483.05195561,4,1,88,0,8
6,256,619.560942519456,0,0,1213484.7107376,1213485.75777732,4,0,63,8,0
6,257,447.732186177745,1,0,1213487.46361212,1213488.51064375,4,1,82,0,4
6,258,536.9160505943,0,0,1213490.02829081,1213491.07528318,4,0,100,0,4
6,259,419.544851174578,1,0,1213492.75760024,1213493.80462609,4,1,85,4,4
6,260,1011.69793051668,0,0,1213495.41637607,1213496.46340231,4,0,88,4,16
6,261,412.700603716075,1,0,1213498.60451723,1213499.65154116,4,1,78,8,16
6,262,533.543009543791,0,0,1213501.23974183,1213502.28678116,4,0,85,16,4
6,263,466.355129377916,1,0,1213503.98085998,1213505.02788506,4,1,89,0,8
6,264,612.216244218871,0,0,1213506.52196742,1213507.56899944,4,0,72,4,16
6,265,582.1329690516,0,0,1213509.36895755,1213510.41599072,4,0,81,8,4
6,266,651.654876535758,1,0,1213512.14535789,1213513.19238798,4,1,63,16,16
6,267,641.439128201455,0,0,1213514.92176208,1213515.96878409,4,0,79,16,8
6,268,516.423729481176,1,0,1213517.67463852,1213518.72166399,4,1,64,16,16
6,269,471.785409608856,0,0,1213520.43933562,1213521.48633183,4,0,76,4,4
6,270,670.563076622784,1,0,1213522.98038686,1213524.02741541,4,1,88,16,0
6,271,427.903925534338,1,0,1213525.88619771,1213526.93329286,4,1,97,4,4
6,272,804.64087612927,0,0,1213528.42731247,1213529.47434179,4,0,62,16,4
6,273,742.428250610828,1,0,1213531.36841668,1213532.41544985,4,1,81,8,4
6,274,744.063186226413,1,0,1213534.19187098,1213535.23890261,4,1,85,0,4
6,275,472.583436639979,1,0,1213537.10944898,1213538.15647907,4,1,64,0,0
6,276,510.634664213285,0,0,1213539.75644265,1213540.80347005,4,0,73,4,16
6,277,461.591604165733,1,0,1213542.46224358,1213543.50928791,4,1,86,0,0
6,278,424.052376300097,1,0,1213545.07396276,1213546.12099439,4,1,77,4,8
6,279,516.384078655392,1,0,1213547.63860488,1213548.68563151,4,1,97,16,4
6,280,518.969101365656,0,0,1213550.32088344,1213551.36790314,4,0,68,0,4
6,281,773.197528673336,1,0,1213553.08552549,1213554.1325552,4,1,62,8,8
6,282,556.100653717294,0,0,1213556.07370252,1213557.12071491,4,0,97,8,4
6,283,615.682831034064,1,0,1213558.74421663,1213559.79124133,4,1,64,4,8
6,284,681.459438754246,1,0,1213561.43826465,1213562.48528666,4,1,79,4,0
6,285,610.958956880495,0,0,1213564.24994372,1213565.29699614,4,0,91,0,16
6,286,559.883679728955,1,0,1213567.00283055,1213568.0498618,4,1,85,16,4
6,287,578.04158818908,1,0,1213569.6615906,1213570.708613,4,1,81,4,16
6,288,711.429149843752,1,0,1213572.3791683,1213573.42620262,4,1,100,0,8
6,289,632.154603954405,1,0,1213575.30850613,1213576.35553892,4,1,70,0,16
6,290,562.215397134423,0,0,1213578.1084373,1213579.15547317,4,0,78,16,0
6,291,682.771390769631,1,0,1213580.87307434,1213581.92010674,4,1,72,4,4
6,292,430.76804629527,1,0,1213583.62594385,1213584.67297972,4,1,75,8,16
6,293,612.504965858534,0,0,1213586.15529839,1213587.20232887,4,0,75,16,8
6,294,711.695543956012,0,0,1213589.02581666,1213590.07285792,4,0,66,16,8
6,295,590.825805906206,1,0,1213591.91991388,1213592.96690085,4,1,67,4,4
6,296,521.213047439232,0,0,1213594.59038256,1213595.63742151,4,0,75,8,4
6,297,595.454209251329,1,0,1213597.20209173,1213598.24912259,4,1,90,4,8
6,298,450.101630063728,1,0,1213599.97849246,1213601.02551331,4,1,84,8,0
6,299,471.312290756032,1,0,1213602.59018892,1213603.63721786,4,1,63,16,0
6,300,580.750183900818,0,0,1213605.20188963,1213606.24892318,4,0,98,0,16
6,301,683.771523181349,0,0,1213608.00182503,1213609.04885358,4,0,72,16,4
6,302,532.218353822827,1,0,1213610.93137344,1213611.97819565,4,1,85,16,0
6,303,410.000862088054,1,0,1213613.61345066,1213614.66047845,4,1,85,4,0
6,304,401.260290062055,0,0,1213616.16632449,1213617.21335881,4,0,85,8,8
6,305,944.469629554078,0,0,1213618.63684483,1213619.68388455,4,0,92,0,8
6,306,651.60213666968,1,0,1213621.68383797,1213622.73086729,4,1,100,8,8
6,307,728.961494518444,0,0,1213624.40141451,1213625.44844614,4,0,76,16,16
6,308,450.241371290758,1,0,1213627.21311244,1213628.26014946,4,1,79,8,0
6,309,436.202561017126,0,0,1213629.86010188,1213630.90713235,4,0,75,8,16
6,310,570.274200988933,1,0,1213632.50711364,1213633.55412757,4,1,67,4,0
6,311,635.697413235903,1,0,1213635.31879618,1213636.36582588,4,1,71,16,16
6,312,428.142987191677,1,0,1213638.14225317,1213639.18927903,4,1,85,0,8
6,313,662.952754180878,0,0,1213640.78924723,1213641.83627655,4,0,81,16,0
6,314,622.631788020954,0,0,1213643.56566874,1213644.61268574,4,0,97,16,16
6,315,711.502677761018,0,0,1213646.25970406,1213647.30673261,4,0,67,16,8
6,316,469.178058905527,0,0,1213649.14198832,1213650.18901687,4,0,89,0,16
6,317,501.28854624927,1,0,1213651.83604057,1213652.88306989,4,1,71,0,0
6,318,616.067023482174,0,0,1213654.47126902,1213655.51829796,4,0,69,4,8
6,319,410.36542179063,0,0,1213657.23589451,1213658.28293731,4,0,95,0,0
6,320,458.894557086751,0,0,1213659.81235421,1213660.85936775,4,0,92,4,8
6,321,629.62424592115,0,0,1213687.76456575,1213688.81159391,5,0,93,8,16
6,322,511.926213512197,0,0,1213690.52919663,1213691.57623712,5,0,100,4,16
6,323,657.311899587512,0,0,1213693.10560513,1213694.15263561,5,0,72,4,0
6,324,793.189783347771,1,0,1213695.8467125,1213696.89375144,5,1,77,0,8
6,325,652.825547149405,1,0,1213698.71725964,1213699.76426509,5,1,81,4,0
6,326,580.89993451722,0,0,1213701.4701149,1213702.51713807,5,0,62,16,0
6,327,505.272907437757,1,0,1213704.28180129,1213705.32882868,5,1,94,16,4
6,328,433.364233002067,1,0,1213706.89350199,1213707.94053285,5,1,83,8,4
6,329,385.677395388484,1,0,1213709.44638466,1213710.49341168,5,1,84,0,4
6,330,478.791726054624,0,0,1213711.96397129,1213713.01099638,5,0,65,0,8
6,331,514.152836287394,0,0,1213714.62272672,1213715.6697572,5,0,95,0,16
6,332,1224.67801743187,0,0,1213717.35207271,1213718.39914823,5,0,68,8,8
6,333,1302.5428308174,1,0,1213720.69319333,1213721.74019262,5,1,75,4,16
6,334,736.028634943068,0,0,1213724.10483829,1213725.15196192,5,0,88,16,16
6,335,2382.18886568211,1,0,1213726.91653314,1213727.96357016,5,1,81,8,8
6,336,1136.58513664268,0,0,1213731.43407087,1213732.48110135,5,0,81,4,4
6,337,1132.79749103822,1,1,1213734.63400612,1213735.68102774,5,0,88,8,0
6,338,591.600350337103,1,0,1213737.86920739,1213738.9162448,5,1,78,16,8
6,339,634.796216152608,0,0,1213740.68091341,1213741.72793811,5,0,84,16,0
6,340,738.443504320458,0,0,1213743.56318304,1213744.61022083,5,0,70,8,4
6,341,458.575808210298,0,0,1213746.45733993,1213747.50426415,5,0,75,16,16
6,342,407.804651651531,0,0,1213749.12775587,1213750.17482946,5,0,75,8,16
6,343,586.756753036752,1,0,1213751.61004683,1213752.65707538,5,1,97,0,0
6,344,454.806255875155,0,0,1213754.26880649,1213755.31586546,5,0,66,4,8
6,345,626.514519099146,1,0,1213756.90403803,1213757.95106465,5,1,96,4,4
6,346,650.389119982719,1,0,1213759.63341636,1213760.68039948,5,1,81,16,0
6,347,522.565805353224,0,0,1213762.5039019,1213763.55092391,5,0,88,4,16
6,348,614.032111829147,1,0,1213765.22147536,1213766.26850622,5,1,71,8,0
6,349,488.968593068421,0,0,1213768.00964708,1213769.0567226,5,0,85,0,16
6,350,881.231079110876,1,0,1213770.5742792,1213771.62131044,5,1,72,8,0
6,351,533.292013918981,1,0,1213773.66832283,1213774.71535831,5,1,67,0,0
6,352,534.703671233729,1,0,1213776.38589782,1213777.43293331,5,1,66,4,8
6,353,821.553046349436,1,1,1213778.9858437,1213780.03287726,5,0,64,16,8
6,354,616.767270024866,1,0,1213782.03282067,1213783.07985191,5,1,78,4,4
6,355,884.151019155979,1,0,1213784.75040606,1213785.79743885,5,1,86,4,8
6,356,498.663102509454,1,0,1213787.87976845,1213788.92678161,5,1,66,4,8
6,357,635.022958973423,0,0,1213790.53856739,1213791.58552703,5,0,93,8,8
6,358,1026.74688235857,0,0,1213793.42078466,1213794.46780397,5,0,81,0,16
6,359,1049.50894182548,1,0,1213796.66775116,1213797.7147824,5,1,69,4,4
6,360,747.10669927299,1,0,1213799.78533409,1213800.83236225,5,1,91,0,0
6,361,522.375249071047,1,0,1213802.59702855,1213803.64406057,5,1,85,0,4
6,362,1128.49361100234,0,0,1213805.34990191,1213806.39693046,5,0,99,16,0
6,363,607.000773074105,1,0,1213808.67923343,1213809.72625813,5,1,78,16,4
6,364,632.317058043554,1,0,1213811.49092289,1213812.53795876,5,1,93,4,16
6,365,640.183380572125,0,0,1213814.23203411,1213815.27906536,5,0,82,16,4
6,366,572.504288284108,0,0,1213816.93785582,1213817.98489169,5,0,87,8,16
6,367,622.213333845139,0,0,1213819.57307734,1213820.62010859,5,0,62,8,4
6,368,499.914230313152,1,0,1213822.36124329,1213823.40827916,5,1,85,0,8
6,369,749.965430237353,0,0,1213824.91412058,1213825.96115952,5,0,89,0,16
6,370,463.9187019784,0,0,1213827.80816813,1213828.85519938,5,0,79,0,4
6,371,515.586821362376,1,0,1213830.47869187,1213831.52572273,5,1,82,0,8
6,372,621.740214992315,1,0,1213833.09044762,1213834.13742189,5,1,71,4,0
6,373,481.788273667917,1,0,1213835.84326054,1213836.8903041,5,1,93,16,16
6,374,600.395972374827,0,0,1213838.57261192,1213839.61963817,5,0,64,8,8
6,375,583.931513596326,0,0,1213841.39605506,1213842.44310132,5,0,61,0,4
6,376,683.577887015417,0,0,1213844.06658996,1213845.11362159,5,0,89,16,16
6,377,556.93717719987,1,0,1213846.93710437,1213847.9841464,5,1,61,0,0
6,378,689.873562892899,0,0,1213849.63122053,1213850.67822406,5,0,97,8,16
6,379,495.900226989761,0,0,1213852.4310878,1213853.47813021,5,0,77,4,0
6,380,501.98763795197,0,0,1213855.03102905,1213856.07805645,5,0,76,16,0
6,381,603.715888457373,1,0,1213857.61919546,1213858.66629099,5,1,91,4,8
6,382,455.615062033758,1,0,1213860.40736064,1213861.45438303,5,1,81,0,4
6,383,404.454708332196,1,0,1213863.10141366,1213864.14844876,5,1,83,4,16
6,384,692.953262478113,1,0,1213865.61899951,1213866.66602807,5,1,62,8,4
6,385,439.626032020897,1,0,1213868.45428255,1213869.5012549,5,1,83,4,0
6,386,436.116329394281,1,0,1213870.97181066,1213872.01884422,5,1,84,16,4
6,387,1048.02414169535,1,0,1213873.66589025,1213874.71289955,5,1,71,8,16
6,388,1059.04638627544,0,0,1213876.81872457,1213877.86574966,5,0,90,16,16
6,389,553.095636889338,1,0,1213880.06570339,1213881.11273463,5,1,69,0,16
6,390,638.703970005736,0,0,1213882.8421172,1213883.88913497,5,0,83,16,8
6,391,478.725897381082,0,0,1213885.64204298,1213886.689075,5,0,86,0,8
6,392,450.168998213485,1,0,1213888.25374407,1213889.30076723,5,1,85,16,8
6,393,483.496352098882,0,0,1213890.81837965,1213891.86542129,5,0,69,0,0
6,394,491.348430979997,1,0,1213893.45360309,1213894.50063935,5,1,67,16,4
6,395,642.555134370923,0,0,1213896.06530842,1213897.11233543,5,0,72,8,0
6,396,535.15099757351,0,0,1213898.8534759,1213899.90051177,5,0,98,4,4
6,397,481.896448181942,0,0,1213901.47694529,1213902.52402889,5,0,93,16,8
6,398,471.365415491164,1,0,1213904.19452299,1213905.24153922,5,1,67,8,4
6,399,467.408001655713,0,0,1213906.90033584,1213907.9473694,5,0,77,8,0
6,400,596.018564188853,1,0,1213909.5355693,1213910.58259015,5,1,98,8,8
6,401,1496.11850059591,0,0,1213945.29939445,1213946.34642262,6,0,84,16,0
6,402,794.225717196241,0,0,1213948.94635387,1213949.99338742,6,0,80,16,8
6,403,423.607744742185,1,0,1213951.86395997,1213952.91097312,6,1,75,0,4
6,404,627.720991615206,0,0,1213954.4638712,1213955.5109036,6,0,79,8,8
6,405,637.684204382822,0,0,1213957.3108621,1213958.35789835,6,0,94,4,16
6,406,551.313645904884,0,0,1213960.05195907,1213961.09899956,6,0,75,8,0
6,407,539.994979975745,1,0,1213962.67542808,1213963.72252592,6,1,90,4,4
6,408,512.489798245952,1,0,1213965.45182418,1213966.49886351,6,1,96,4,4
6,409,592.361036222428,0,0,1213968.08706033,1213969.13409312,6,0,93,4,8
6,410,562.535685952753,1,0,1213970.839931,1213971.88696148,6,1,89,0,0
6,411,455.687050241977,0,0,1213973.60460923,1213974.65160237,6,0,91,8,8
6,412,539.184634108096,0,0,1213976.18097808,1213977.22800933,6,0,88,4,0
6,413,531.640524975955,0,0,1213978.85156687,1213979.89856771,6,0,77,16,4
6,414,711.115790531039,0,0,1213981.51026533,1213982.55727964,6,0,71,0,0
6,415,570.207602577284,1,0,1213984.47489768,1213985.5219243,6,1,88,0,16
6,416,753.364263568074,0,0,1213987.21600004,1213988.26303244,6,0,72,4,4
6,417,553.124124184251,0,0,1213990.09828199,1213991.14531401,6,0,93,4,16
6,418,747.438536956906,0,0,1213992.76879186,1213993.81585044,6,0,75,16,4
6,419,1134.83432750218,0,0,1213995.59232932,1213996.63929512,6,0,63,8,4
6,420,849.924008361995,1,0,1213998.94512353,1213999.99214938,6,1,84,16,0
6,421,443.954549729824,0,0,1214001.94505,1214002.99208163,6,0,85,0,8
6,422,586.970022181049,0,0,1214004.59204598,1214005.63907338,6,0,77,16,16
6,423,599.950570845976,0,0,1214007.43902688,1214008.48607237,6,0,95,8,8
6,424,491.615594830364,1,0,1214010.10955638,1214011.15658417,6,1,94,0,16
6,425,984.037994174287,0,0,1214012.73301884,1214013.78004278,6,0,78,8,4
6,426,589.609324466437,1,0,1214015.86234428,1214016.9093813,6,1,65,16,16
6,427,616.580948233604,0,0,1214018.650516,1214019.69754071,6,0,62,16,0
6,428,625.694549176842,1,0,1214021.46221278,1214022.50930485,6,1,87,0,16
6,429,454.708860721439,0,0,1214024.20331129,1214025.25037218,6,0,93,4,16
6,430,561.171379173175,1,0,1214026.87384812,1214027.92087705,6,1,73,16,0
6,431,545.811377698556,1,0,1214029.65024884,1214030.69730318,6,1,81,8,4
6,432,483.303100802004,0,0,1214032.2737063,1214033.32074293,6,0,73,4,0
6,433,520.778809906915,1,0,1214035.00305845,1214036.05010279,6,1,79,0,16
6,434,426.481104455888,1,0,1214037.68536973,1214038.73236787,6,1,76,16,16
6,435,518.340072594583,1,0,1214040.22645408,1214041.27347801,6,1,98,16,16
6,436,641.22508908622,1,0,1214042.96756299,1214044.01460001,6,1,76,16,8
6,437,750.484359683469,0,0,1214045.7792717,1214046.8263399,6,0,71,8,0
6,438,438.99661838077,1,0,1214048.60271714,1214049.64975262,6,1,94,4,8
6,439,486.330830492079,0,0,1214051.20264954,1214052.24969118,6,0,87,16,4
6,440,491.549381520599,0,0,1214053.81435371,1214054.86138342,6,0,88,16,8
6,441,423.390625976026,1,0,1214056.41429535,1214057.46132775,6,1,68,0,8
6,442,490.863378159702,1,0,1214059.0848083,1214060.13183917,6,1,100,4,8
6,443,691.338344942778,1,0,1214061.74356797,1214062.79059652,6,1,100,16,4
6,444,909.611280076206,1,1,1214064.66114443,1214065.7081726,6,0,80,4,16
6,445,629.2720050551,0,0,1214067.63754161,1214068.68457248,6,0,80,8,16
6,446,640.05595818162,1,0,1214070.4727723,1214071.51979469,6,1,68,8,16
6,447,548.660484608263,0,0,1214073.35503731,1214074.40207664,6,0,74,4,0
6,448,471.965186996385,0,0,1214075.96674956,1214077.01383162,6,0,65,8,16
6,449,444.982014596462,0,0,1214078.51962916,1214079.56666733,6,0,73,4,8
6,450,546.783407917246,1,0,1214081.06074469,1214082.10777478,6,1,75,8,16
6,451,911.253144964576,1,0,1214083.73127035,1214084.77829004,6,1,87,8,16
6,452,620.987228350714,0,0,1214086.76648017,1214087.81352065,6,0,83,4,4
6,453,428.588003851473,1,0,1214089.53112298,1214090.57814884,6,1,67,8,8
6,454,488.783426117152,0,0,1214092.18988881,1214093.23691582,6,0,64,0,0
6,455,478.29858912155,1,0,1214094.81333895,1214095.86036904,6,1,73,0,4
6,456,536.806721007451,0,0,1214097.38974745,1214098.43684683,6,0,92,4,4
6,457,379.792089574039,0,0,1214100.08380471,1214101.13083788,6,0,74,0,8
6,458,644.046863773838,1,0,1214102.64844529,1214103.69548039,6,1,63,8,8
6,459,762.193762231618,0,0,1214105.35425661,1214106.401284,6,0,62,4,0
6,460,440.211175009608,1,0,1214108.29536043,1214109.34239283,6,1,65,0,8
6,461,401.484723202884,0,0,1214110.86000102,1214111.90703534,6,0,75,0,0
6,462,629.864462418482,1,0,1214113.47172751,1214114.51876492,6,1,62,8,0
6,463,462.030846159905,1,0,1214116.18928788,1214117.23631759,6,1,61,0,4
6,464,648.032380035147,1,0,1214118.73039956,1214119.77742965,6,1,92,4,16
6,465,412.20631217584,1,0,1214121.577392,1214122.62442671,6,1,85,4,8
6,466,561.79617298767,0,0,1214124.11850599,1214125.16555841,6,0,90,16,0
6,467,906.680561136454,0,0,1214126.80078532,1214127.84781734,6,0,71,0,4
6,468,514.832294778898,1,0,1214129.80071064,1214130.84773611,6,1,71,0,8
6,469,725.256230914965,1,0,1214132.42417849,1214133.47120858,6,1,77,8,0
6,470,479.766451055184,0,0,1214135.2476324,1214136.29466596,6,0,87,0,16
6,471,435.674007749185,1,0,1214137.94167696,1214138.9887186,6,1,99,0,0
6,472,974.844706244767,1,0,1214140.50633717,1214141.55336419,6,1,91,8,4
6,473,719.792844029143,1,0,1214143.60038696,1214144.6474032,6,1,65,16,8
6,474,665.677903452888,1,0,1214146.43559609,1214147.48263234,6,1,99,8,0
6,475,846.413920633495,0,0,1214149.17670538,1214150.22373894,6,0,80,0,4
6,476,530.623069265857,1,0,1214152.2236939,1214153.27072053,6,1,83,8,4
6,477,948.992477962747,1,0,1214154.98839562,1214156.03516016,6,1,72,16,4
6,478,556.7874268163,0,0,1214158.03536835,1214159.08235917,6,0,83,16,16
6,479,635.561906499788,1,0,1214160.81171133,1214161.85874681,6,1,92,16,8
6,480,613.192508928478,1,0,1214163.59987535,1214164.64690506,6,1,68,4,0
6,481,1758.27291980386,1,0,1214199.41075985,1214200.45778879,7,1,98,4,0
6,482,962.547465926036,1,0,1214203.32831052,1214204.37533638,7,1,91,16,8
6,483,524.912536609918,1,0,1214206.43412323,1214207.48115678,7,1,76,8,16
6,484,445.637220516801,1,0,1214209.08111305,1214210.12817702,7,1,97,0,4
6,485,510.729750152677,0,0,1214211.62222858,1214212.66925136,7,0,77,8,4
6,486,423.086890485138,0,0,1214214.29274577,1214215.33977393,7,0,96,8,4
6,487,521.579916588962,0,0,1214216.8573902,1214217.90441683,7,0,88,16,0
6,488,519.919188693166,1,0,1214219.62203263,1214220.66906888,7,1,100,4,4
6,489,587.02122210525,0,0,1214222.38666044,1214223.43369168,7,0,92,0,16
6,490,702.601191122085,1,0,1214225.10423851,1214226.15127053,7,1,71,16,16
6,491,481.052610324696,0,0,1214228.03358443,1214229.08061106,7,0,77,8,16
6,492,651.787303620949,1,0,1214230.71586646,1214231.76293043,7,1,63,16,8
6,493,547.082908451557,1,0,1214233.57461758,1214234.62165036,7,1,67,16,0
6,494,411.041030660272,1,0,1214236.22160779,1214237.26864712,7,1,85,0,0
6,495,604.946228442714,1,0,1214238.7156682,1214239.76269637,7,1,68,16,16
6,496,481.782884104177,0,0,1214241.44501073,1214242.49204275,7,0,82,4,8
6,497,422.812027391046,1,0,1214244.0920021,1214245.13902641,7,1,97,16,8
6,498,861.598764313385,0,0,1214246.58607098,1214247.63308644,7,0,66,8,4
6,499,781.36797179468,0,0,1214249.57422222,1214250.62126117,7,0,91,16,0
6,500,508.551247650757,0,0,1214252.42121081,1214253.46824245,7,0,84,8,0
6,501,607.173236086965,1,0,1214255.00938338,1214256.05645082,7,1,77,8,0
6,502,518.950238125399,0,0,1214257.73876595,1214258.78576024,7,0,88,8,8
6,503,707.43785938248,0,0,1214260.4210141,1214261.46804804,7,0,100,0,8
6,504,700.607855571434,0,0,1214263.3738843,1214264.42091324,7,0,82,8,4
6,505,860.54781707935,1,0,1214266.16204909,1214267.20907649,7,1,89,0,4
6,506,444.240191718563,0,0,1214269.09138654,1214270.13841548,7,0,65,0,4
6,507,653.421469265595,1,0,1214271.70311881,1214272.75012234,7,1,64,16,16
6,508,1152.38669025712,0,0,1214274.44419654,1214275.49122932,7,0,65,0,0
6,509,625.812347745523,1,0,1214277.66764722,1214278.71468424,7,1,78,8,16
6,510,1000.43546943925,0,0,1214280.53816279,1214281.58519519,7,0,68,4,4
6,511,623.829021118581,0,0,1214283.76162001,1214284.80865126,7,0,87,4,8
6,512,616.485477657989,0,0,1214286.49096139,1214287.53798301,7,0,97,4,0
6,513,561.388497939333,0,0,1214289.18500787,1214290.23204412,7,0,88,8,0
6,514,1208.3467557095,1,0,1214291.83200424,1214292.87903163,7,1,91,16,16
6,515,1200.12318785302,1,0,1214295.11427333,1214296.16131266,7,1,64,0,4
6,516,411.409439751878,1,0,1214298.52595294,1214299.57298534,7,1,86,4,16
6,517,580.890695331618,0,0,1214301.09062701,1214302.13763208,7,0,73,16,8
6,518,435.982362600043,1,0,1214303.90228914,1214304.94932539,7,1,64,4,16
6,519,444.499656558037,0,0,1214306.47869687,1214307.5257285,7,0,98,0,8
6,520,450.819584773853,1,0,1214308.98460412,1214310.03155298,7,1,64,4,0
6,521,486.346228979528,0,0,1214311.60798574,1214312.65500967,7,0,95,16,16
6,522,528.065763646737,0,0,1214314.24321688,1214315.29024159,7,0,98,0,8
6,523,583.656650502235,1,0,1214316.97255403,1214318.0195872,7,1,68,16,4
6,524,1389.36225580983,1,0,1214319.76071959,1214320.80775584,7,1,71,16,4
6,525,873.861358035356,0,0,1214323.23122107,1214324.27825771,7,0,100,4,4
6,526,730.573332170025,0,0,1214326.3135014,1214327.36053265,7,0,70,8,4
6,527,467.200506944209,1,0,1214329.13695724,1214330.18399619,7,1,62,0,8
6,528,523.371146759018,1,0,1214331.84277472,1214332.88979788,7,1,68,16,8
6,529,479.814571095631,1,0,1214334.45448081,1214335.50150282,7,1,75,16,0
6,530,809.318169951439,1,0,1214337.1368252,1214338.18379524,7,1,65,16,4
6,531,504.145352402702,1,1,1214340.01904286,1214341.06607642,7,0,82,8,16
6,532,974.509403808042,1,0,1214342.59544905,1214343.64247953,7,1,65,0,16
6,533,973.879990167916,1,0,1214345.70127561,1214346.74829531,7,1,83,8,8
6,534,1291.85203881934,0,0,1214348.7482468,1214349.7953331,7,0,88,0,0
6,535,1074.85486892983,0,0,1214352.25403279,1214353.30106866,7,0,72,8,8
6,536,496.358717093244,0,0,1214355.41867006,1214356.4656963,7,0,75,4,16
6,537,619.297243421897,0,0,1214358.01860516,1214359.06563102,7,0,82,8,8
6,538,666.265741223469,1,0,1214360.86559298,1214361.91261845,7,1,76,16,4
6,539,431.045219302177,1,0,1214363.74786877,1214364.79490117,7,1,87,16,0
6,540,621.646668994799,0,0,1214366.3713347,1214367.41836402,7,0,61,0,16
6,541,564.926687628031,1,0,1214369.24185258,1214370.28888575,7,1,87,16,4
6,542,473.620525561273,0,0,1214371.91236746,1214372.95940448,7,0,86,8,16
6,543,480.406258488074,1,0,1214374.50054503,1214375.54757012,7,1,95,0,0
6,544,856.902992352843,1,0,1214377.12404945,1214378.17103874,7,1,90,4,8
6,545,404.815033078194,0,0,1214380.12393935,1214381.17096675,7,0,85,0,8
6,546,446.750531904399,0,1,1214382.61801208,1214383.6650237,7,1,89,4,16
6,547,616.378072882071,0,0,1214385.24144375,1214386.28850541,7,0,80,8,0
6,548,493.437237339094,0,0,1214388.0884435,1214389.13547745,7,0,80,4,16
6,549,634.326946921647,0,0,1214390.82955511,1214391.87658751,7,0,95,4,0
6,550,591.889072209597,1,0,1214393.71183821,1214394.75893105,7,1,66,0,16
6,551,732.773777330294,0,0,1214396.54705735,1214397.5940909,7,0,98,4,4
6,552,494.445838732645,0,0,1214399.42936008,1214400.47637093,7,0,84,4,0
6,553,550.223047146574,1,0,1214402.01751032,1214403.06454234,7,1,86,4,4
6,554,658.433680189773,0,0,1214404.78214775,1214405.82917476,7,0,84,8,8
6,555,494.981706608087,0,0,1214407.60561013,1214408.65264369,7,0,67,4,8
6,556,426.355991745368,1,0,1214410.32318475,1214411.37022292,7,1,95,0,0
6,557,482.686390867457,1,0,1214412.9348943,1214413.98195558,7,1,87,0,16
6,558,769.43221129477,1,0,1214415.51129819,1214416.5583252,7,1,84,8,0
6,559,604.866156354547,1,0,1214418.38188267,1214419.42883731,7,1,73,4,8
6,560,1017.44387997314,0,0,1214421.2052696,1214422.25230546,7,0,61,0,4
6,561,1543.24714280665,1,0,1214457.32202832,1214458.36906881,8,1,63,4,8
6,562,506.46244129166,0,0,1214461.07487281,1214462.12190944,8,0,95,0,8
6,563,437.225791160017,1,0,1214463.75716369,1214464.8042188,8,1,95,4,4
6,564,569.746032590047,0,0,1214466.3923933,1214467.43949345,8,0,64,16,16
6,565,546.764159807935,0,0,1214469.03938466,1214470.08647596,8,0,78,16,8
6,566,686.896648257971,1,0,1214471.6864611,1214472.73342998,8,1,71,4,0
6,567,485.955492127687,0,0,1214474.62748062,1214475.67451918,8,0,77,0,4
6,568,429.769838694483,1,0,1214477.2156632,1214478.26269406,8,1,75,4,8
6,569,462.689517065883,1,0,1214479.81558867,1214480.86261491,8,1,62,4,0
6,570,454.179537249729,1,0,1214482.3449332,1214483.39196291,8,1,63,16,8
6,571,508.717936463654,0,0,1214484.96840452,1214486.01548812,8,0,87,16,0
6,572,616.227552760392,1,0,1214487.5801056,1214488.62713454,8,1,92,8,16
6,573,555.791913764551,0,0,1214490.41536939,1214491.46235637,8,0,89,0,16
6,574,557.972726179287,1,0,1214493.16819925,1214494.21523512,8,1,61,0,16
6,575,628.070537466556,0,0,1214495.82695854,1214496.87398863,8,0,92,0,0
6,576,799.632899696007,0,0,1214498.65043709,1214499.69744447,8,0,70,8,0
6,577,711.746743880212,1,0,1214501.65034932,1214502.69741251,8,1,80,0,4
6,578,531.745619839057,1,0,1214504.59143967,1214505.63847091,8,1,63,8,4
6,579,452.201985055581,1,0,1214507.36784463,1214508.41488396,8,1,77,8,0
6,580,654.840825591236,1,0,1214509.9913171,1214511.03837028,8,1,74,0,0
6,581,552.828087937087,0,0,1214512.74423742,1214513.79121785,8,0,72,0,0
6,582,483.138721901923,0,0,1214515.40293703,1214516.44997213,8,0,94,8,4
6,583,566.464612493292,1,0,1214518.12052589,1214519.1675529,8,1,64,16,16
6,584,485.997453099117,1,0,1214520.8851791,1214521.9321884,8,1,76,4,16
6,585,544.09329011105,0,0,1214523.49686171,1214524.54389103,8,0,75,8,16
6,586,707.686545094475,0,0,1214526.1791522,1214527.22620963,8,0,69,4,4
6,587,692.293051630259,1,0,1214529.14378301,1214530.19080579,8,1,80,8,4
6,588,619.485489791259,1,0,1214532.04958578,1214533.09661818,8,1,92,8,16
6,589,423.757110023871,1,0,1214534.76717926,1214535.81421358,8,1,85,8,8
6,590,611.903654644266,0,0,1214537.32008503,1214538.36708587,8,0,91,16,4
6,591,849.347719457,1,0,1214540.03762615,1214541.08465971,8,1,80,4,16
6,592,697.146273218095,0,0,1214543.11990379,1214544.1669385,8,0,89,8,0
6,593,438.764871098101,1,0,1214545.95513717,1214547.00217419,8,1,99,4,8
6,594,700.098550179973,0,0,1214548.56682632,1214549.61386411,8,0,80,16,4
6,595,461.94268995896,1,0,1214551.36675826,1214552.4137922,8,1,77,4,0
6,596,898.651014547795,1,0,1214553.94316869,1214554.99019993,8,1,91,4,0
6,597,871.04805232957,0,0,1214557.01367263,1214558.06072505,8,0,61,8,4
6,598,589.312518713996,1,0,1214560.02536702,1214561.07239327,8,1,92,16,16
6,599,573.614135151729,1,0,1214562.83706803,1214563.88409312,8,1,84,16,0
6,600,490.08382926695,1,0,1214565.60170123,1214566.64872901,8,1,95,8,16
6,601,650.71402839385,1,0,1214568.23692506,1214569.28395477,8,1,64,0,8
6,602,909.709445666522,1,0,1214571.02509101,1214572.0721211,8,1,91,0,16
6,603,1473.58164424077,0,0,1214574.01325841,1214575.06029428,8,0,64,16,8
6,604,1003.94825171679,1,0,1214577.54257946,1214578.5896161,8,1,96,4,4
6,605,715.653342660517,1,0,1214580.67194417,1214581.71894423,8,1,66,4,4
6,606,759.922098834068,0,0,1214583.57775464,1214584.62479281,8,0,87,0,0
6,607,527.880596928298,0,0,1214586.51889503,1214587.5659028,8,0,78,0,8
6,608,526.642942568287,0,0,1214589.30699862,1214590.35402948,8,0,84,8,8
6,609,590.164825553074,0,0,1214591.9892972,1214593.03630843,8,0,70,0,4
6,610,471.117499750108,0,0,1214594.68332789,1214595.7303703,8,0,83,0,4
6,611,734.861043980345,0,0,1214597.30680036,1214598.35382622,8,0,76,16,16
6,612,758.607067167759,1,0,1214600.15383015,1214601.20081712,8,1,70,16,8
6,613,614.339696941897,1,0,1214603.03607937,1214604.08309753,8,1,88,8,16
6,614,531.703658867627,0,0,1214605.7418803,1214606.78891616,8,0,75,4,8
6,615,548.879913287237,0,0,1214608.44776244,1214609.49472863,8,0,66,8,0
6,616,430.169429630041,0,0,1214611.10644512,1214612.15347829,8,0,74,0,16
6,617,445.730766281486,1,0,1214613.68285901,1214614.72989103,8,1,76,16,4
6,618,535.204122541472,1,0,1214616.35338929,1214617.40041206,8,1,71,0,4
6,619,528.996987966821,0,0,1214619.14162607,1214620.18858186,8,0,76,4,0
6,620,590.487424051389,1,0,1214621.87089584,1214622.91792862,8,1,100,0,0
6,621,901.772290235385,1,0,1214624.58854475,1214625.63554751,8,1,71,0,16
6,622,463.412861339748,0,0,1214627.61192968,1214628.658959,8,0,74,0,8
6,623,859.047233127058,0,0,1214630.23538675,1214631.28243224,8,0,74,8,0
6,624,967.680169967934,0,0,1214633.21178932,1214634.25881826,8,0,80,4,4
6,625,1262.98024062999,1,0,1214636.42347555,1214637.47050911,8,1,85,4,8
6,626,612.526908749714,1,0,1214639.79987258,1214640.84689459,8,1,70,4,16
6,627,529.969403054565,1,0,1214642.57626791,1214643.6233007,8,1,99,8,8
6,628,642.525492236018,0,0,1214645.2938433,1214646.34087801,8,0,70,16,4
6,629,668.720261426643,0,0,1214648.05853731,1214649.10551004,8,0,93,0,8
6,630,770.639838417992,0,0,1214650.89374143,1214651.94074997,8,0,71,4,16
6,631,662.056946661323,1,0,1214653.76422275,1214654.81125284,8,1,92,16,4
6,632,653.014178853482,1,0,1214656.6700386,1214657.71706369,8,1,95,8,4
6,633,706.726063741371,0,0,1214659.55235251,1214660.59935103,8,0,100,16,8
6,634,700.803416548297,0,0,1214662.44636465,1214663.49344363,8,0,94,16,0
6,635,810.284040635452,0,0,1214665.2580518,1214666.30509498,8,0,80,16,0
6,636,612.87145037204,0,0,1214668.29328279,1214669.34031211,8,0,67,16,0
6,637,488.41270734556,0,0,1214670.97556135,1214672.02259067,8,0,65,8,8
6,638,562.302398728207,0,0,1214673.71667334,1214674.76369958,8,0,74,16,16
6,639,631.748468382284,0,0,1214676.52836896,1214677.57539289,8,0,61,8,8
6,640,502.760257571936,1,0,1214679.32829089,1214680.37532753,8,1,81,4,16
6,641,699.658538214862,1,0,1214715.09213183,1214716.13914383,9,1,92,0,16
6,642,501.03562604636,0,0,1214717.85675886,1214718.90377702,9,0,93,8,4
6,643,465.944374445826,1,0,1214720.49198501,1214721.53901972,9,1,93,0,4
6,644,600.241602398455,0,0,1214723.05663213,1214724.10365645,9,0,95,8,4
6,645,716.256194049492,1,0,1214725.75069709,1214726.79769638,9,1,70,0,4
6,646,438.569310121238,0,0,1214728.71531288,1214729.76234028,9,0,76,8,0
6,647,610.612105578184,1,0,1214731.37406908,1214732.4211011,9,1,81,8,8
6,648,943.581521045417,1,0,1214734.06812095,1214735.11515181,9,1,75,4,8
6,649,1524.63690331206,0,0,1214737.16215727,1214738.20919313,9,0,71,8,4
6,650,490.585435414687,0,0,1214740.82089615,1214741.86799861,9,0,94,8,16
6,651,421.784177655354,1,0,1214743.51494032,1214744.56196925,9,1,74,8,16
6,652,459.43196490407,1,1,1214746.04430179,1214747.09131686,9,0,89,4,16
6,653,642.567068105564,0,0,1214748.59715405,1214749.64418876,9,0,71,16,16
6,654,485.844237962738,1,0,1214751.40887585,1214752.45589401,9,1,79,16,8
6,655,457.191868219525,0,0,1214754.0205677,1214755.06759317,9,0,75,16,0
6,656,499.068852746859,0,0,1214756.71461995,1214757.76164773,9,0,97,0,8
6,657,620.974909747019,1,0,1214759.267493,1214760.31452425,9,1,63,0,16
6,658,506.222225027159,1,0,1214762.07918785,1214763.12621756,9,1,88,16,0
6,659,579.168373486027,1,0,1214764.76147835,1214765.80849997,9,1,63,16,4
6,660,727.967521408573,0,0,1214767.40846933,1214768.45550442,9,0,93,16,4
6,661,480.462078005075,1,0,1214770.22016418,1214771.26719735,9,1,89,8,16
6,662,551.704767625779,1,0,1214772.8318618,1214773.87889998,9,1,81,4,0
6,663,558.669893071055,1,0,1214775.5259206,1214776.57293914,9,1,98,16,16
6,664,492.757393512875,0,0,1214778.32584445,1214779.3728784,9,0,75,16,8
6,665,1237.21277946606,0,0,1214781.05518313,1214782.10221862,9,0,61,8,8
6,666,1001.11415819265,0,0,1214784.34922938,1214785.3962587,9,0,92,0,0
6,667,2500,-1,-1,1214787.44326608,1214788.49030349,9,0,84,8,16
6,668,557.043426670134,1,0,1214792.53725928,1214793.58428322,9,1,83,8,0
6,669,432.4911381118,0,0,1214795.20778109,1214796.25481195,9,0,85,16,8
6,670,417.255864478648,0,0,1214797.73712331,1214798.78416034,9,0,85,8,8
6,671,549.588244175538,1,0,1214800.39588221,1214801.44291423,9,1,62,0,8
6,672,506.798898801208,0,0,1214803.00758638,1214804.05461762,9,0,85,16,0
6,673,764.500842429698,0,0,1214805.64281406,1214806.68984492,9,0,98,4,8
6,674,675.091774901375,1,0,1214808.66627329,1214809.71330068,9,1,71,8,8
6,675,811.932834796607,1,0,1214811.46619791,1214812.51322492,9,1,95,4,4
6,676,694.767975248396,0,0,1214814.45440844,1214815.50140311,9,0,93,4,16
6,677,661.822504596785,0,0,1214817.3013978,1214818.34838323,9,0,93,16,4
6,678,425.404749345034,1,0,1214820.21892267,1214821.26595623,9,1,67,0,4
6,679,505.00035402365,1,0,1214822.74834304,1214823.79535928,9,1,85,16,16
6,680,410.796194570139,1,0,1214825.48948814,1214826.53645086,9,1,73,4,16
6,681,428.129898384213,1,0,1214828.14814194,1214829.1951755,9,1,73,4,4
6,682,647.694382816553,1,0,1214830.78337578,1214831.83042589,9,1,99,8,0
6,683,577.879134099931,0,0,1214833.53624799,1214834.58328539,9,0,94,16,4
6,684,454.697311855853,0,0,1214836.27745775,1214837.32440508,9,0,84,0,0
6,685,601.16666695103,1,0,1214838.90081358,1214839.94784675,9,1,66,8,16
6,686,432.648587739095,1,0,1214841.6183982,1214842.6654229,9,1,85,0,4
6,687,466.979538323358,0,0,1214844.18303224,1214845.23008774,9,0,74,0,8
6,688,558.632166590542,0,0,1214846.81827224,1214847.86532736,9,0,95,8,8
6,689,465.730720199645,0,0,1214849.61821842,1214850.6652335,9,0,88,4,4
6,690,663.365049054846,0,0,1214852.30048082,1214853.34751784,9,0,81,4,0
6,691,657.294961158186,1,0,1214855.04159088,1214856.08861789,9,1,82,0,8
6,692,487.763275625184,0,0,1214857.95916542,1214859.00620398,9,0,97,0,16
6,693,550.403209635988,1,0,1214860.62968877,1214861.67671732,9,1,68,4,4
6,694,601.541620446369,1,0,1214863.39432773,1214864.4413636,9,1,87,4,8
6,695,574.405618011951,0,0,1214866.18253564,1214867.22955303,9,0,81,0,8
6,696,639.269094681367,0,0,1214868.87654747,1214869.92357833,9,0,82,4,4
6,697,607.947010546923,1,0,1214871.75882288,1214872.80584835,9,1,90,16,0
6,698,668.397278059274,0,0,1214874.42934584,1214875.47637978,9,0,73,4,0
6,699,849.56214367412,0,0,1214877.1822065,1214878.22926161,9,0,78,16,16
6,700,487.845657626167,1,0,1214880.1351587,1214881.18213297,9,1,87,0,16
6,701,526.102840201929,1,0,1214882.85266864,1214883.89970142,9,1,85,0,4
6,702,637.176824035123,1,0,1214885.60554739,1214886.65257632,9,1,79,8,0
6,703,486.070980783552,0,0,1214888.48783588,1214889.5348525,9,0,76,8,4
6,704,432.374494615942,0,0,1214891.15834075,1214892.20536969,9,0,98,4,16
6,705,816.590880276635,1,0,1214893.77005185,1214894.81707385,9,1,97,16,0
6,706,1120.14454556629,0,0,1214896.73466879,1214897.78172314,9,0,76,4,0
6,707,841.942582046613,1,0,1214900.075769,1214901.12280949,9,1,99,16,4
6,708,702.151940204203,1,0,1214903.02864536,1214904.07567199,9,1,75,8,0
6,709,1281.79989964701,0,0,1214905.96973687,1214907.01677813,9,0,70,0,16
6,710,904.248753329739,0,0,1214909.33436021,1214910.38139877,9,0,99,8,4
6,711,1286.62963840179,1,0,1214912.40488456,1214913.45190887,9,1,81,4,0
6,712,1351.1089226231,1,0,1214915.92243692,1214916.96946239,9,1,67,0,0
6,713,689.026645384729,0,0,1214919.40470901,1214920.45176836,9,0,64,0,0
6,714,819.881539093331,1,0,1214922.2046371,1214923.25167374,9,1,87,16,16
6,715,499.057303881273,1,0,1214925.15750731,1214926.20453047,9,1,90,4,8
6,716,517.65252975747,1,0,1214927.78096399,1214928.82799601,9,1,96,16,8
6,717,455.659717787057,0,0,1214930.48678647,1214931.53381079,9,0,86,4,8
6,718,768.420914653689,0,0,1214933.07495789,1214934.12198644,9,0,98,0,0
6,719,459.295303095132,0,0,1214936.05134968,1214937.09837977,9,0,94,4,16
6,720,1114.74121268839,1,0,1214938.68658621,1214939.73365827,9,1,70,16,8
