sub_id,Trial,RT,Resp,Error,Fix_onset,Disp_onset,block,tid,tloc,fish_setsize,bird_setsize
4,1,510.704469168559,0,0,1209690.10948466,1209691.15645315,1,0,89,16,4
4,2,657.717391615734,1,0,1209692.85046922,1209693.89750239,1,1,91,0,4
4,3,639.706153655425,0,0,1209695.65039538,1209696.69741932,1,0,91,8,4
4,4,550.245116697624,1,0,1209698.37974369,1209699.42677571,1,1,99,16,4
4,5,427.935824263841,1,0,1209700.99152716,1209702.03828295,1,1,94,4,4
4,6,472.325253533199,0,0,1209703.57962004,1209704.6266559,1,0,75,16,16
4,7,365.452749887481,0,0,1209706.17956168,1209707.22658946,1,0,66,0,4
4,8,506.452943896875,0,0,1209708.77949908,1209709.82654534,1,0,70,16,4
4,9,457.209318410605,0,0,1209711.35590835,1209712.40293421,1,0,63,16,0
4,10,671.447847038507,0,0,1209714.01466225,1209715.06169619,1,0,81,16,8
4,11,520.609168102965,1,0,1209716.8734203,1209717.92044615,1,1,91,8,0
4,12,647.247568005696,1,0,1209719.49688122,1209720.54391747,1,1,68,4,16
4,13,642.508295597509,0,0,1209722.36740102,1209723.41443612,1,0,100,16,4
4,14,502.121731638908,1,0,1209725.19086803,1209726.23789696,1,1,95,4,0
4,15,439.154194667935,1,0,1209727.89667819,1209728.94370905,1,1,80,8,16
4,16,385.237124981359,0,0,1209730.54367994,1209731.59070234,1,0,93,16,16
4,17,556.309045059606,0,0,1209733.09655454,1209734.14358809,1,0,81,8,8
4,18,358.773266663775,0,0,1209735.7082537,1209736.75528649,1,0,84,0,4
4,19,423.469669884071,0,0,1209738.20231296,1209739.24934074,1,0,67,16,0
4,20,520.993745420128,0,0,1209740.82577657,1209741.87281436,1,0,88,16,16
4,21,397.503568092361,0,0,1209743.4492475,1209744.49627605,1,0,65,0,0
4,22,360.457477392629,0,0,1209746.08447134,1209747.13149373,1,0,94,0,4
4,23,406.915899831802,0,0,1209748.50797121,1209749.55498591,1,0,73,0,0
4,24,494.664239231497,0,0,1209751.09611837,1209752.14314924,1,0,64,4,4
4,25,663.031798321754,1,0,1209753.70782601,1209754.75492308,1,1,71,8,0
4,26,570.758225396276,0,0,1209756.44893953,1209757.49602775,1,0,62,4,8
4,27,638.889263616875,1,0,1209759.20180519,1209760.24883913,1,1,72,16,8
4,28,553.980407305062,1,0,1209761.9076142,1209762.95465507,1,1,96,0,0
4,29,468.625764362514,1,0,1209764.53112247,1209765.57813485,1,1,85,0,0
4,30,563.962868414819,0,0,1209767.20160655,1209768.24864511,1,0,61,16,0
4,31,650.650636060163,1,0,1209769.88396326,1209770.93093214,1,1,99,8,8
4,32,537.826998159289,1,0,1209772.68383977,1209773.73092953,1,1,99,16,8
4,33,455.686406698078,1,0,1209775.42494059,1209776.47196337,1,1,87,16,4
4,34,659.300357103348,1,0,1209778.09546394,1209779.14249518,1,1,91,8,16
4,35,530.662847217172,1,0,1209780.91894441,1209781.96596912,1,1,88,0,16
4,36,458.060470176861,0,0,1209783.53062664,1209784.5776625,1,0,74,0,8
4,37,559.799884445965,0,0,1209786.16587588,1209787.21289019,1,0,100,16,8
4,38,552.807811647654,0,0,1209788.91873115,1209789.96577202,1,0,61,8,0
4,39,376.37990899384,0,0,1209791.69513572,1209792.74216851,1,0,71,8,0
4,40,426.550909178331,1,0,1209794.30683989,1209795.35387267,1,1,90,8,4
4,41,552.348936442286,1,0,1209796.88324492,1209797.93028156,1,1,99,8,4
4,42,431.344461627305,1,0,1209799.54200228,1209800.5890624,1,1,68,8,4
4,43,686.737400479615,1,0,1209802.09488303,1209803.14191928,1,1,81,4,8
4,44,517.253450350836,1,0,1209804.97716575,1209806.02420008,1,1,69,16,16
4,45,477.060676552355,1,0,1209807.6594524,1209808.7064925,1,1,92,0,8
4,46,411.266745300964,1,0,1209810.22409837,1209811.27115887,1,1,87,8,0
4,47,370.849538594484,1,0,1209812.69463257,1209813.74165882,1,1,75,0,16
4,48,412.129446165636,1,1,1209815.15338924,1209816.20043011,1,0,85,4,8
4,49,496.216792846099,1,0,1209817.71803213,1209818.76506492,1,1,76,8,8
4,50,583.934335038066,1,0,1209820.40033033,1209821.44735965,1,1,94,4,16
4,51,395.13335423544,1,0,1209823.05908691,1209824.10612124,1,1,93,0,16
4,52,657.398642739281,0,0,1209825.6590197,1209826.70605672,1,0,76,16,16
4,53,603.826499311253,0,0,1209828.38836993,1209829.43540425,1,0,97,8,16
4,54,509.325918741524,1,0,1209831.05888673,1209832.10591644,1,1,75,4,0
4,55,554.888148792088,1,0,1209833.82353532,1209834.87055964,1,1,91,0,8
4,56,650.094750337303,0,0,1209836.49405636,1209837.54108337,1,0,72,4,8
4,57,441.696486668661,1,0,1209839.25868955,1209840.30572196,1,1,85,16,8
4,58,454.367525642738,0,0,1209841.84686328,1209842.89389029,1,0,79,0,4
4,59,609.670614125207,1,0,1209844.36451034,1209845.41151117,1,1,96,4,0
4,60,500.188065227121,1,0,1209847.12909272,1209848.17611819,1,1,85,4,0
4,61,521.482647862285,0,0,1209849.74078842,1209850.78782467,1,0,92,0,16
4,62,420.925838174298,0,0,1209852.51719607,1209853.56422578,1,0,71,8,16
4,63,591.428783722222,0,0,1209855.1406566,1209856.1876867,1,0,90,4,16
4,64,669.386758236215,1,0,1209857.92882986,1209858.97586034,1,1,62,16,0
4,65,557.771132327616,0,0,1209860.69346575,1209861.74048968,1,0,98,4,0
4,66,399.96309299022,0,0,1209863.35227084,1209864.39926436,1,0,76,0,8
4,67,561.236179433763,1,0,1209865.91686215,1209866.96390379,1,1,90,4,4
4,68,495.107715949416,0,0,1209868.6109171,1209869.65795143,1,0,74,8,16
4,69,555.199583526701,0,0,1209871.31674343,1209872.36376852,1,0,100,8,8
4,70,726.809680927545,1,0,1209874.0813824,1209875.12840248,1,1,81,4,4
4,71,626.486543565989,0,0,1209876.91659807,1209877.96362931,1,0,70,0,16
4,72,484.363414114341,0,0,1209879.71653116,1209880.76356356,1,0,68,4,16
4,73,625.765123870224,1,0,1209882.37529622,1209883.42232207,1,1,70,0,0
4,74,771.159664262086,1,0,1209885.24581487,1209886.29284458,1,1,91,16,0
4,75,413.797873537987,0,0,1209888.17516079,1209889.22224054,1,0,77,0,8
4,76,428.388335043564,1,0,1209890.70450378,1209891.75153387,1,1,75,8,8
4,77,457.382166292518,0,0,1209893.30444619,1209894.35147513,1,0,77,4,8
4,78,454.431429272518,1,0,1209895.84555209,1209896.89258681,1,1,78,4,4
4,79,347.637073136866,0,0,1209898.50431715,1209899.55134994,1,0,76,8,4
4,80,407.248507486656,1,0,1209900.93954876,1209901.98657962,1,1,66,4,16
4,81,651.732765603811,1,0,1209915.69213494,1209916.73915887,2,1,61,8,16
4,82,598.784261150286,1,0,1209918.49207303,1209919.53909466,2,1,66,0,16
4,83,590.854419860989,0,0,1209921.24502262,1209922.29203731,2,0,87,8,4
4,84,496.178296394646,0,0,1209924.05663971,1209925.10366903,2,0,71,0,4
4,85,563.349238131195,1,0,1209926.71541516,1209927.76242099,2,1,90,4,0
4,86,538.169614737853,0,0,1209929.39768717,1209930.44471688,2,0,68,16,0
4,87,524.277474964038,1,0,1209932.16232614,1209933.20935585,2,1,93,0,8
4,88,368.718386627734,0,0,1209934.87996466,1209935.92693508,2,0,95,8,16
4,89,418.417807901278,1,0,1209937.40925375,1209938.45628038,2,1,95,0,0
4,90,593.839803477749,1,0,1209939.97397056,1209941.02092558,2,1,77,4,0
4,91,340.21384222433,0,0,1209942.73853177,1209943.78557033,2,0,66,8,8
4,92,555.344329215586,1,0,1209945.19730344,1209946.24433161,2,1,91,8,0
4,93,440.354507649317,1,0,1209947.99723692,1209949.04426316,2,1,65,8,4
4,94,478.010763879865,1,0,1209950.67951548,1209951.72655327,2,1,97,0,4
4,95,549.141814466566,0,0,1209953.33828362,1209954.38534181,2,0,89,8,8
4,96,400.422353297472,0,0,1209955.98527652,1209957.03230161,2,0,67,4,0
4,97,466.439947718754,0,0,1209958.5852147,1209959.63223632,2,0,63,0,0
4,98,465.22847097367,0,0,1209961.27926349,1209962.3262982,2,0,87,8,8
4,99,418.770048534498,0,0,1209963.9027348,1209964.94979145,2,0,88,0,0
4,100,392.509450437501,0,0,1209966.53796287,1209967.58499642,2,0,72,4,8
4,101,438.398128375411,1,0,1209969.17319671,1209970.22022642,2,1,74,0,16
4,102,543.189140036702,1,0,1209971.77312988,1209972.82015959,2,1,94,16,0
4,103,492.42760729976,1,0,1209974.47894197,1209975.52597475,2,1,85,16,8
4,104,688.269551144913,1,0,1209977.16123246,1209978.20825947,2,1,80,8,4
4,105,529.385926667601,1,0,1209979.97293232,1209981.01996433,2,1,61,4,0
4,106,407.200002111495,0,0,1209982.7610948,1209983.80812566,2,0,63,0,4
4,107,578.693071380258,0,0,1209985.32573885,1209986.37276971,2,0,71,8,16
4,108,692.648498807102,1,0,1209988.12566963,1209989.1727055,2,1,80,16,16
4,109,622.747403336689,0,0,1209990.92559849,1209991.97263051,2,0,86,16,4
4,110,430.441339733079,0,0,1209993.60789476,1209994.65491446,2,0,84,8,16
4,111,785.327821969986,0,0,1209996.24312013,1209997.29015523,2,0,99,16,0
4,112,604.380845092237,0,0,1209999.10187972,1210000.14890481,2,0,93,4,16
4,113,526.073709828779,0,0,1210001.7841656,1210002.83119531,2,0,77,8,8
4,114,479.477855842561,0,1,1210004.50175061,1210005.54876953,2,1,84,4,16
4,115,789.811479626223,0,0,1210007.20756038,1210008.25459586,2,0,99,16,4
4,116,696.547398576513,1,0,1210010.19572741,1210011.24275442,2,1,89,4,4
4,117,476.767720188946,0,0,1210013.10153403,1210014.1485645,2,0,86,16,16
4,118,531.370023265481,1,0,1210015.78381105,1210016.83086963,2,1,85,16,0
4,119,580.207128543407,1,0,1210018.41904951,1210019.46608769,2,1,67,8,0
4,120,413.874481106177,0,0,1210021.05433455,1210022.10131614,2,0,79,0,0
4,121,586.32225706242,1,0,1210023.67775312,1210024.72477898,2,1,68,8,4
4,122,446.203242056072,0,0,1210026.31298312,1210027.36001398,2,0,75,4,4
4,123,642.606460954994,0,0,1210028.84233265,1210029.88940817,2,0,70,8,16
4,124,588.372566970065,1,0,1210031.57168057,1210032.61871028,2,1,76,0,8
4,125,582.08843995817,0,0,1210034.34807475,1210035.39510792,2,0,93,4,8
4,126,479.055552044883,0,0,1210037.10095119,1210038.14798475,2,0,61,16,16
4,127,605.29744066298,0,0,1210039.71265459,1210040.75968391,2,0,90,4,4
4,128,662.830077810213,1,0,1210042.47732281,1210043.52432288,2,1,89,4,16
4,129,564.24774043262,1,0,1210045.2066384,1210046.2536708,2,1,61,0,4
4,130,457.988097332418,1,0,1210047.9359867,1210048.9830218,2,1,95,0,16
4,131,532.831340562552,0,0,1210050.5241558,1210051.5712525,2,0,96,0,8
4,132,447.723843622953,0,0,1210053.17113678,1210054.21827273,2,0,78,0,0
4,133,452.46119145304,1,0,1210055.8063787,1210056.85341495,2,1,88,16,16
4,134,435.262609273195,1,0,1210058.33574017,1210059.38275948,2,1,75,8,8
4,135,518.603128846735,1,0,1210061.00625467,1210062.0532786,2,1,99,16,4
4,136,591.710191452876,0,0,1210063.71207099,1210064.75910762,2,0,94,16,8
4,137,473.072465509176,1,0,1210066.41787614,1210067.46493896,2,1,63,16,8
4,138,431.487667607144,0,0,1210069.08841143,1210070.13544152,2,0,93,4,16
4,139,622.794753871858,0,0,1210071.70015024,1210072.74714684,2,0,100,8,0
4,140,479.424346005544,1,0,1210074.488285,1210075.53531163,2,1,84,16,8
4,141,523.135676514357,1,0,1210077.2176437,1210078.26465955,2,1,73,16,8
4,142,518.556548282504,0,0,1210079.87638566,1210080.92341999,2,0,89,16,0
4,143,459.833992179483,0,0,1210082.59397028,1210083.6410662,2,0,89,4,16
4,144,519.518184475601,0,0,1210085.17037416,1210086.21740618,2,0,63,4,4
4,145,522.896614857018,1,0,1210087.79391054,1210088.84087326,2,1,95,4,8
4,146,475.145103409886,1,0,1210090.55848445,1210091.60551608,2,1,95,8,0
4,147,540.725380415097,0,0,1210093.12312657,1210094.17015012,2,0,62,0,8
4,148,439.211938995868,0,0,1210095.85245101,1210096.89950959,2,0,66,0,4
4,149,631.233515450731,1,0,1210098.40535178,1210099.45238379,2,1,69,16,16
4,150,700.611062115058,1,0,1210101.12292754,1210102.1699661,2,1,61,16,4
4,151,693.439211696386,0,0,1210103.9111035,1210104.95813013,2,0,94,4,8
4,152,589.548242278397,1,0,1210106.75808824,1210107.80511371,2,1,80,4,4
4,153,507.984709693119,1,0,1210109.52272605,1210110.5697881,2,1,77,4,8
4,154,460.137342568487,1,0,1210112.13442907,1210113.18145993,2,1,87,0,16
4,155,466.903442516923,0,0,1210114.72260048,1210115.76963904,2,0,83,4,0
4,156,506.624252302572,1,0,1210117.35782893,1210118.40486557,2,1,92,0,8
4,157,640.42025920935,0,0,1210120.04011481,1210121.08715683,2,0,65,16,4
4,158,487.149002263322,1,0,1210122.82828306,1210123.87531123,2,1,77,0,16
4,159,463.664753362536,1,0,1210125.40475662,1210126.4518256,2,1,95,8,0
4,160,395.58684034273,0,0,1210128.08698206,1210129.13401562,2,0,84,8,4
4,161,531.375797698274,0,0,1210135.56915522,1210136.616183,3,0,62,0,8
4,162,519.381137797609,1,0,1210138.2161512,1210139.26317398,3,1,77,8,0
4,163,402.398750651628,0,0,1210140.96901994,1210142.01604773,3,0,88,4,8
4,164,405.397607944906,1,0,1210143.521898,1210144.56893502,3,1,65,4,0
4,165,539.422667352483,1,0,1210146.16888705,1210147.21592254,3,1,65,4,8
4,166,554.968605749309,1,0,1210148.94529509,1210149.9923325,3,1,88,8,8
4,167,583.845408633351,1,0,1210151.58053163,1210152.62756673,3,1,93,16,0
4,168,429.645237512887,1,0,1210154.26280557,1210155.30985761,3,1,94,16,16
4,169,567.689304705709,1,0,1210156.86275414,1210157.90978654,3,1,88,8,8
4,170,468.516435241327,0,0,1210159.60386035,1210160.65089276,3,0,99,8,8
4,171,596.229265443981,1,0,1210162.28615085,1210163.33317863,3,1,72,16,0
4,172,514.783146325499,1,0,1210165.06255196,1210166.10958821,3,1,93,0,16
4,173,476.232237415388,1,0,1210167.82719208,1210168.87422795,3,1,98,8,16
4,174,386.122923344374,0,0,1210170.3800659,1210171.42709638,3,0,75,16,0
4,175,463.825282873586,0,0,1210172.90949128,1210173.9565129,3,0,99,0,16
4,176,490.652930457145,0,1,1210175.55640988,1210176.60350657,3,1,81,0,0
4,177,797.176196007058,1,0,1210178.22693901,1210179.27397372,3,1,91,8,0
4,178,430.080245016143,1,1,1210181.10922134,1210182.15625836,3,0,98,16,8
4,179,677.140286657959,1,0,1210183.72091896,1210184.76795214,3,1,100,16,4
4,180,715.459063416347,1,0,1210186.62673174,1210187.67376722,3,1,92,16,4
4,181,730.437566991895,1,0,1210189.57960849,1210190.62663704,3,1,78,4,8
4,182,569.874351844192,0,0,1210192.54427895,1210193.59129479,3,0,93,4,8
4,183,858.91878255643,1,0,1210195.19123335,1210196.238275,3,1,81,8,4
4,184,704.914942150936,0,0,1210198.29704529,1210199.3440723,3,0,90,4,16
4,185,654.45060050115,1,0,1210201.10873513,1210202.15576369,3,1,100,4,0
4,186,639.06403654255,0,0,1210203.89690377,1210204.94393233,3,0,63,16,4
4,187,407.34012844041,0,0,1210206.64977482,1210207.69680607,3,0,65,0,4
4,188,550.24473182857,0,0,1210209.24971146,1210210.29674925,3,0,93,4,8
4,189,500.152263790369,0,0,1210211.94376448,1210212.99079611,3,0,86,0,16
4,190,484.008863568306,0,0,1210214.67316822,1210215.72015058,3,0,73,16,0
4,191,427.671150071546,0,0,1210217.26128266,1210218.30831314,3,0,86,8,0
4,192,634.617335395887,1,0,1210219.89651458,1210220.9435312,3,1,61,8,4
4,193,631.030640332028,0,0,1210222.62585634,1210223.6728872,3,0,82,16,16
4,194,697.942117461935,1,0,1210225.41408927,1210226.46109857,3,1,69,8,16
4,195,985.472875647247,0,0,1210228.29631193,1210229.34334203,3,0,85,0,16
4,196,876.151241362095,0,0,1210231.4138837,1210232.46091802,3,0,80,0,0
4,197,697.765804594383,1,0,1210234.54321876,1210235.59024423,3,1,87,8,16
4,198,593.767045764253,1,0,1210237.40203263,1210238.44900729,3,1,99,0,4
4,199,540.888604475185,1,0,1210240.24901622,1210241.2960005,3,1,81,4,0
4,200,889.42821091041,1,0,1210243.02541117,1210244.07239737,3,1,99,0,0
4,201,639.953299658373,1,0,1210246.04881881,1210247.09585583,3,1,70,8,16
4,202,568.921954371035,0,0,1210248.74294036,1210249.78994773,3,0,94,4,16
4,203,533.458444289863,1,0,1210251.46044914,1210252.50748424,3,1,92,16,4
4,204,413.61463139765,1,0,1210254.13098288,1210255.17803838,3,1,66,0,0
4,205,516.369961667806,0,0,1210256.66036129,1210257.70735558,3,0,73,8,4
4,206,1309.46727702394,0,0,1210259.36614258,1210260.4131719,3,0,80,8,4
4,207,380.152540979907,0,0,1210262.83665561,1210263.88367108,3,0,65,4,0
4,208,414.843431441113,1,0,1210265.33071025,1210266.37773803,3,1,68,0,4
4,209,428.092683898285,1,0,1210267.9894626,1210269.03649655,3,1,75,0,4
4,210,576.882977737114,0,0,1210270.57762247,1210271.62467643,3,0,80,8,8
4,211,531.482817139477,1,0,1210273.24815891,1210274.29518476,3,1,70,0,8
4,212,590.81438370049,1,0,1210275.96578934,1210277.01277824,3,1,68,0,0
4,213,515.90030733496,0,0,1210278.81278024,1210279.85976991,3,0,68,16,16
4,214,454.363676020876,0,0,1210281.38913716,1210282.43616763,3,0,80,16,16
4,215,474.697777070105,1,0,1210283.94201637,1210284.98904723,3,1,67,16,8
4,216,632.591663161293,1,0,1210286.64785502,1210287.69486625,3,1,61,4,4
4,217,663.547647884116,0,0,1210289.34188417,1210290.38892004,3,0,97,4,16
4,218,455.086635192856,0,0,1210292.25946217,1210293.30649419,3,0,87,16,16
4,219,601.697271922603,1,0,1210294.8946914,1210295.94174728,3,1,100,4,16
4,220,526.08564356342,1,0,1210297.70638894,1210298.75342057,3,1,71,4,16
4,221,572.526357835159,0,0,1210300.47102791,1210301.51806454,3,0,98,8,16
4,222,857.183756772429,0,0,1210303.21213451,1210304.25917076,3,0,78,16,8
4,223,489.91495766677,0,0,1210306.29441445,1210307.34144455,3,0,61,0,8
4,224,483.325555222109,0,0,1210309.01203372,1210310.0592228,3,0,85,4,4
4,225,492.994271917269,1,0,1210311.69428303,1210312.74131697,3,1,77,0,8
4,226,616.82244646363,0,0,1210314.27069538,1210315.31771931,3,0,91,4,0
4,227,386.468234937638,0,0,1210317.05886479,1210318.10588795,3,0,76,4,4
4,228,432.446994120255,1,0,1210319.65879834,1210320.70582844,3,1,64,8,4
4,229,596.347449114546,1,0,1210322.15283951,1210323.19989732,3,1,94,16,8
4,230,483.427955303341,1,0,1210324.95278146,1210325.99981116,3,1,63,16,0
4,231,595.052050193772,0,0,1210327.67036762,1210328.71739309,3,0,69,8,0
4,232,427.920990623534,0,0,1210330.51735467,1210331.56444751,3,0,87,0,4
4,233,520.065600983799,0,0,1210333.07028239,1210334.11728284,3,0,79,4,4
4,234,632.171283941716,0,0,1210335.77605059,1210336.82308184,3,0,81,8,8
4,235,367.438771296293,0,0,1210338.5289124,1210339.5759475,3,0,66,0,16
4,236,412.983292946592,0,0,1210341.05827965,1210342.10537749,3,0,97,0,8
4,237,526.280819671229,1,0,1210343.62291638,1210344.6699484,3,1,68,16,8
4,238,654.577638022602,1,0,1210346.34050408,1210347.38752917,3,1,62,4,4
4,239,501.496552489698,0,0,1210349.12866656,1210350.17569627,3,0,69,8,0
4,240,510.75836410746,0,0,1210351.84631547,1210352.89332516,3,0,74,16,4
4,241,672.668948071077,1,0,1210376.51623944,1210377.56326067,4,1,69,8,8
4,242,505.789268761873,0,0,1210379.41028199,1210380.45731131,4,0,69,4,4
4,243,566.700721159577,1,0,1210382.01027329,1210383.05724679,4,1,89,16,0
4,244,411.614366341382,0,0,1210384.645444,1210385.6924814,4,0,67,0,8
4,245,415.409326320514,0,0,1210387.18656338,1210388.23359693,4,0,88,0,16
4,246,403.094762703404,0,0,1210389.77474133,1210390.82176219,4,0,89,4,0
4,247,490.005038678646,0,0,1210392.36290851,1210393.40994322,4,0,82,0,8
4,248,598.188724368811,0,0,1210395.06872791,1210396.115758,4,0,93,16,16
4,249,542.559341527522,1,0,1210397.88042315,1210398.92745709,4,1,79,0,8
4,250,534.509006887674,0,1,1210400.52741567,1210401.57444037,4,1,81,16,4
4,251,1239.49149879627,1,0,1210403.28028518,1210404.32732335,4,1,77,16,4
4,252,667.59475809522,1,0,1210406.68020649,1210407.7272412,4,1,83,16,8
4,253,617.493821075186,1,0,1210409.52718738,1210410.57422056,4,1,98,8,4
4,254,962.928320514038,0,0,1210412.38605784,1210413.43299015,4,0,92,16,8
4,255,712.991454172879,1,0,1210415.58587837,1210416.63295505,4,1,98,8,16
4,256,551.356888376176,0,0,1210418.50344906,1210419.55047992,4,0,88,0,0
4,257,797.831402160227,1,0,1210421.17403246,1210422.22100173,4,1,61,16,4
4,258,467.947075609118,1,0,1210424.18566564,1210425.2326965,4,1,74,8,4
4,259,446.111236000434,0,0,1210426.89150391,1210427.93850821,4,0,77,8,0
4,260,622.082573128864,0,0,1210429.58553268,1210430.63256662,4,0,71,8,16
4,261,479.870517505333,1,0,1210432.42082765,1210433.46782425,4,1,86,8,4
4,262,493.478554766625,0,0,1210435.15010666,1210436.19713136,4,0,93,8,16
4,263,489.163125865161,0,0,1210437.77357297,1210438.82060037,4,0,82,0,4
4,264,521.230497397482,1,0,1210440.4793839,1210441.52641476,4,1,84,8,8
4,265,498.534651473165,0,0,1210443.13814549,1210444.18517097,4,0,87,4,16
4,266,498.725977959111,0,0,1210445.84396412,1210446.8909896,4,0,71,4,4
4,267,493.997869081795,1,0,1210448.51447977,1210449.56151449,4,1,73,16,16
4,268,522.44505379349,0,0,1210451.17324752,1210452.22027261,4,0,87,4,0
4,269,537.178336409852,0,0,1210453.91435066,1210454.96138344,4,0,100,0,8
4,270,453.671513358131,1,0,1210456.53781389,1210457.58484667,4,1,67,0,4
4,271,564.177292399108,0,0,1210459.20834109,1210460.25537156,4,0,82,16,16
4,272,562.930013984442,0,0,1210461.8435576,1210462.89070049,4,0,100,16,16
4,273,526.948729529977,0,0,1210464.53765374,1210465.58465804,4,0,71,0,0
4,274,428.666662890464,1,0,1210467.17284832,1210468.21988611,4,1,75,4,8
4,275,571.003831457347,1,0,1210469.78461639,1210470.83161337,4,1,100,4,8
4,276,563.811962958425,0,1,1210472.58448712,1210473.63152029,4,1,93,0,4
4,277,1042.6167009864,0,0,1210475.3609633,1210476.40792371,4,0,91,8,8
4,278,600.681741256267,0,0,1210478.57257946,1210479.61961533,4,0,61,0,16
4,279,509.323608828709,1,0,1210481.30192007,1210482.34895478,4,1,62,4,8
4,280,766.210202127695,1,0,1210483.9371439,1210484.98418323,4,1,95,8,16
4,281,626.057310495526,0,0,1210486.78413942,1210487.8311699,4,0,73,8,16
4,282,572.239175904542,1,0,1210489.63113186,1210490.67815849,4,1,96,16,8
4,283,627.761154202744,1,0,1210492.36048132,1210493.40750987,4,1,83,4,16
4,284,598.419701913372,0,0,1210495.18393139,1210496.23096571,4,0,93,16,0
4,285,534.995214547962,0,0,1210498.01915938,1210499.06618754,4,0,77,4,16
4,286,596.231190254912,1,0,1210500.72497647,1210501.77200579,4,1,62,4,16
4,287,734.309134306386,0,0,1210503.41902141,1210504.46605496,4,0,100,0,4
4,288,602.026029955596,0,0,1210506.30137919,1210507.34834192,4,0,83,4,8
4,289,624.99173451215,1,0,1210508.99538371,1210510.04239764,4,1,94,0,0
4,290,584.132975665852,1,0,1210511.71294639,1210512.75997225,4,1,72,4,4
4,291,537.652995204553,0,0,1210514.47758151,1210515.52461391,4,0,62,8,0
4,292,524.900344200432,0,0,1210517.1951669,1210518.24219699,4,0,89,0,0
4,293,641.193263698369,1,0,1210519.94803179,1210520.99507074,4,1,96,16,0
4,294,618.025069124997,0,0,1210522.73620197,1210523.78323514,4,0,77,16,16
4,295,415.604887064546,0,0,1210525.46559262,1210526.51259769,4,0,86,4,0
4,296,505.806976929307,0,0,1210527.97136975,1210529.01840139,4,0,84,16,8
4,297,602.649284061044,1,0,1210530.5713726,1210531.61833417,4,1,77,16,4
4,298,453.502899967134,1,0,1210533.35947888,1210534.40650551,4,1,75,16,0
4,299,512.961888918653,0,0,1210535.97117727,1210537.01821429,4,0,90,0,16
4,300,469.869578257203,1,0,1210538.66521567,1210539.71227694,4,1,74,0,16
4,301,749.843138968572,0,0,1210541.31222898,1210542.35930565,4,0,61,16,0
4,302,646.771754371002,1,0,1210544.20626729,1210545.25330046,4,1,89,4,0
4,303,489.379089791328,0,0,1210547.08854462,1210548.13557933,4,0,89,0,16
4,304,643.031074665487,1,0,1210549.71201478,1210550.75904333,4,1,70,8,8
4,305,502.816973719746,0,0,1210552.60611161,1210553.6531059,4,0,78,4,4
4,306,629.682501778007,1,0,1210555.30011767,1210556.34715739,4,1,72,8,8
4,307,594.079250236973,0,0,1210558.11181676,1210559.15884608,4,0,99,4,4
4,308,635.395729215816,1,0,1210560.92351353,1210561.97053901,4,1,63,8,4
4,309,745.335998479277,0,0,1210563.71167217,1210564.75870303,4,0,79,8,0
4,310,538.71780121699,0,0,1210566.67630836,1210567.72333807,4,0,99,0,8
4,311,491.330079501495,1,0,1210569.31152873,1210570.35856267,4,1,87,8,4
4,312,433.912545908242,0,0,1210571.88799613,1210572.93499619,4,0,66,0,0
4,313,431.211264571175,0,0,1210574.45258859,1210575.49962369,4,0,67,16,4
4,314,458.935489878058,1,0,1210577.13488332,1210578.18195191,4,1,63,16,8
4,315,588.972338475287,1,0,1210579.82895867,1210580.87596721,4,1,70,0,4
4,316,526.794359553605,1,0,1210582.57011763,1210583.61707265,4,1,87,8,0
4,317,769.087796332315,1,0,1210585.22880145,1210586.27583578,4,1,71,4,0
4,318,983.463371871039,1,0,1210588.19343418,1210589.24046274,4,1,71,4,8
4,319,589.764206204563,1,0,1210591.36981897,1210592.4168814,4,1,96,8,0
4,320,522.656013257802,1,0,1210594.14623048,1210595.19325595,4,1,97,4,16
4,321,496.150194201618,1,0,1210604.32245127,1210605.36948021,5,1,87,0,0
4,322,542.391882743686,0,0,1210606.93415043,1210607.98118668,5,0,78,16,8
4,323,516.156307421625,1,0,1210609.72231946,1210610.76935186,5,1,62,8,8
4,324,443.273677723482,0,0,1210612.47519436,1210613.52222329,5,0,88,16,4
4,325,451.848716242239,1,0,1210615.14574427,1210616.19274703,5,1,87,16,16
4,326,473.738835658878,1,0,1210617.73388758,1210618.78092498,5,1,63,4,16
4,327,427.578758914024,0,0,1210620.27499772,1210621.32203089,5,0,75,0,8
4,328,535.754745360464,0,0,1210622.82788155,1210623.87490972,5,0,91,0,0
4,329,372.460221406072,1,0,1210625.52193573,1210626.56896428,5,1,66,16,0
4,330,447.081726277247,0,0,1210628.03951812,1210629.08655244,5,0,86,4,8
4,331,537.925933720544,0,0,1210630.63948786,1210631.68648369,5,0,61,0,16
4,332,672.62544715777,1,0,1210633.26292106,1210634.30995308,5,1,83,8,16
4,333,719.559683231637,1,0,1210636.16877773,1210637.21577394,5,1,72,16,0
4,334,547.121146460995,0,0,1210638.9921916,1210640.03922939,5,0,62,0,16
4,335,762.891440885141,0,0,1210641.61566061,1210642.66270841,5,0,100,8,0
4,336,552.096401108429,1,0,1210644.521473,1210645.56850194,5,1,81,8,0
4,337,408.894991734996,1,0,1210647.2743402,1210648.32138107,5,1,84,8,16
4,338,485.551023157313,0,0,1210649.83898771,1210650.88601896,5,0,61,4,8
4,339,1421.84551339597,1,0,1210652.50951876,1210653.55660236,5,1,73,16,8
4,340,585.525384871289,1,0,1210656.03883288,1210657.08587183,5,1,79,4,8
4,341,443.509659729898,1,0,1210658.83876752,1210659.88579953,5,1,66,4,0
4,342,508.738851174712,0,0,1210661.49753565,1210662.54455727,5,0,72,4,0
4,343,726.340411696583,1,0,1210664.12099234,1210665.16801935,5,1,69,8,0
4,344,519.014653516933,0,0,1210666.95621609,1210668.0032508,5,0,82,16,4
4,345,680.348563939333,0,0,1210669.56791949,1210670.61495074,5,0,97,16,8
4,346,543.68266183883,1,0,1210672.42667331,1210673.47370378,5,1,70,4,4
4,347,417.086992645636,0,0,1210675.05014308,1210676.0971724,5,0,65,4,4
4,348,563.712642760947,0,0,1210677.53247754,1210678.5794853,5,0,87,16,8
4,349,698.735910002142,0,0,1210680.3205969,1210681.36762584,5,0,99,8,8
4,350,611.203534528613,1,0,1210683.24993782,1210684.29697137,5,1,71,0,0
4,351,555.149538209662,0,0,1210686.03810646,1210687.08513578,5,0,83,0,4
4,352,527.281337184832,0,0,1210688.74392239,1210689.79095634,5,0,82,8,8
4,353,697.431272128597,1,0,1210691.49679883,1210692.54382277,5,1,100,16,4
4,354,457.06919208169,0,0,1210694.43789996,1210695.48493429,5,0,65,0,4
4,355,629.831097321585,1,0,1210696.96725682,1210698.01428498,5,1,71,8,16
4,356,668.496340047568,1,0,1210699.75541776,1210700.80245285,5,1,90,4,8
4,357,587.456741370261,1,0,1210702.54358447,1210703.59061187,5,1,83,16,4
4,358,483.892605174333,0,0,1210705.21417943,1210706.26114215,5,0,93,0,4
4,359,521.834118524566,1,0,1210707.75525954,1210708.80232928,5,1,74,16,0
4,360,454.194677295163,1,0,1210710.36691366,1210711.41396993,5,1,84,4,16
4,361,497.998398961499,0,0,1210713.01392119,1210714.06095398,5,0,74,8,0
4,362,526.450587902218,1,0,1210715.57856409,1210716.62559187,5,1,90,0,0
4,363,559.16238669306,1,0,1210718.30790392,1210719.35493825,5,1,84,8,8
4,364,609.619414201006,1,0,1210720.97842496,1210722.02545775,5,1,68,8,16
4,365,638.8569267001,0,0,1210723.69601459,1210724.74308125,5,0,90,0,16
4,366,646.742497570813,1,0,1210726.48419593,1210727.53120601,5,1,92,0,4
4,367,507.238652324304,1,0,1210729.35468995,1210730.40173043,5,1,73,4,4
4,368,517.576818820089,1,0,1210731.97816434,1210733.02519251,5,1,98,16,8
4,369,477.762463269755,0,0,1210734.5781491,1210735.62512722,5,0,70,8,4
4,370,572.773503838107,0,0,1210737.28391961,1210738.33094546,5,0,75,16,16
4,371,545.332611072809,0,0,1210740.00149191,1210741.04852585,5,0,77,16,0
4,372,458.284518448636,0,0,1210742.69555109,1210743.74258042,5,0,85,8,0
4,373,701.025666669011,0,0,1210745.23665045,1210746.28371981,5,0,71,4,16
4,374,544.598487671465,1,0,1210748.01306889,1210749.06009166,5,1,61,0,16
4,375,472.198985749856,0,0,1210750.74239794,1210751.78945768,5,0,76,8,4
4,376,499.014699831605,1,0,1210753.47175356,1210754.51878096,5,1,90,8,16
4,377,444.016270339489,0,0,1210756.11875186,1210757.16578233,5,0,80,4,4
4,378,406.366173410788,0,0,1210758.74221355,1210759.78925134,5,0,89,0,16
4,379,926.978217670694,1,0,1210761.36567947,1210762.41270648,5,1,71,4,0
4,380,532.120315125212,0,0,1210764.42442859,1210765.47145637,5,0,82,8,4
4,381,610.055961413309,0,0,1210767.15381885,1210768.2007989,5,0,90,0,4
4,382,698.085323441774,1,0,1210769.95371076,1210771.00073931,5,1,97,4,16
4,383,536.590114003047,0,0,1210772.73011187,1210773.77716352,5,0,70,0,0
4,384,456.658822018653,1,0,1210775.37710785,1210776.42413101,5,1,86,0,8
4,385,629.732546862215,1,0,1210777.89470833,1210778.94175613,5,1,80,16,16
4,386,423.901982838288,0,1,1210780.63586305,1210781.68282577,5,1,84,4,4
4,387,1900.63061821274,0,0,1210783.17690775,1210784.22394592,5,0,100,8,4
4,388,483.659317716956,0,0,1210787.17683807,1210788.22384391,5,0,90,0,8
4,389,416.809819638729,1,0,1210789.87086915,1210790.9178977,5,1,89,8,4
4,390,460.698232986033,0,0,1210792.37668709,1210793.42372642,5,0,69,0,8
4,391,627.805424854159,1,0,1210794.97666684,1210796.02366228,5,1,85,16,0
4,392,471.933361841366,1,0,1210797.82364311,1210798.87065088,5,1,79,0,8
4,393,519.236006774008,1,0,1210800.43531802,1210801.48234888,5,1,69,4,16
4,394,562.998922541738,0,0,1210803.12936681,1210804.17641269,5,0,64,16,16
4,395,641.463122563437,1,0,1210805.84694681,1210806.89397767,5,1,61,4,8
4,396,657.442528521642,0,0,1210808.64686374,1210809.69390191,5,0,84,8,8
4,397,477.075305068865,0,0,1210811.42327601,1210812.47031573,5,0,85,4,0
4,398,684.013021178544,1,0,1210814.07026815,1210815.1173121,5,1,82,4,0
4,399,707.372542237863,0,0,1210816.98784961,1210818.0348797,5,0,81,16,4
4,400,566.614874638617,0,0,1210819.83484475,1210820.88187292,5,0,83,16,16
4,401,605.852556647733,1,0,1210855.66927972,1210856.71629018,6,1,89,4,0
4,402,586.828097701073,0,0,1210858.4103663,1210859.45740486,6,0,83,4,0
4,403,547.88183234632,0,0,1210861.16325698,1210862.21027591,6,0,82,8,0
4,404,547.525356989354,0,0,1210863.95141176,1210864.99844647,6,0,92,8,4
4,405,461.227556224912,0,0,1210866.68075737,1210867.72778284,6,0,97,0,8
4,406,533.056158805266,1,0,1210869.26892648,1210870.31596465,6,1,95,0,8
4,407,514.328505611047,1,0,1210872.03357122,1210873.08059746,6,1,63,0,0
4,408,645.777781493962,1,0,1210874.73938292,1210875.78641532,6,1,66,8,16
4,409,493.692209012806,0,0,1210877.49225551,1210878.53929291,6,0,77,0,4
4,410,587.352031609043,1,0,1210880.22160805,1210881.26863621,6,1,99,4,4
4,411,603.507750434801,1,0,1210882.8803654,1210883.92738703,6,1,61,8,4
4,412,580.691026290879,0,0,1210885.63323684,1210886.68027232,6,0,66,4,0
4,413,501.075403764844,1,0,1210888.39787734,1210889.44490705,6,1,61,0,8
4,414,549.487895565107,0,0,1210891.06840262,1210892.11542886,6,0,96,8,4
4,415,553.156587528065,0,0,1210893.75068118,1210894.79771628,6,0,97,0,4
4,416,594.611268257722,0,0,1210896.56237565,1210897.60941036,6,0,81,8,8
4,417,577.644433593377,0,0,1210899.22113955,1210900.2681681,6,0,75,8,16
4,418,591.280573280528,1,0,1210901.8916475,1210902.93870569,6,1,94,4,8
4,419,749.311120714992,0,0,1210904.64453048,1210905.69156866,6,0,70,4,0
4,420,544.65469205752,0,0,1210907.45623573,1210908.5032662,6,0,87,8,16
4,421,520.459802588448,0,0,1210910.1502799,1210911.19731807,6,0,64,4,8
4,422,534.439328592271,1,0,1210912.75024194,1210913.79727549,6,1,86,4,16
4,423,530.109271174297,1,0,1210915.52662534,1210916.57364889,6,1,87,8,0
4,424,548.719510436058,1,1,1210918.30303992,1210919.35004461,6,0,100,16,8
4,425,629.42727166228,1,0,1210921.0323709,1210922.07940484,6,1,96,16,16
4,426,565.589719684795,0,0,1210923.78524888,1210924.83226935,6,0,79,4,4
4,427,559.968498069793,0,0,1210926.45576915,1210927.50285121,6,0,86,0,0
4,428,653.458167333156,1,0,1210929.1263156,1210930.17332991,6,1,75,16,8
4,429,537.601410178468,0,0,1210931.87916355,1210932.92619634,6,0,78,0,4
4,430,566.250315168872,0,0,1210934.51443204,1210935.56142402,6,0,99,4,8
4,431,845.179857918993,1,0,1210937.3025591,1210938.34959651,6,1,92,8,0
4,432,594.793355558068,0,0,1210940.29077463,1210941.33776854,6,0,98,0,0
4,433,684.899974847212,1,0,1210942.98477761,1210944.03187199,6,1,79,16,4
4,434,692.221190547571,1,0,1210945.90235253,1210946.94938609,6,1,75,8,8
4,435,631.235825363547,1,0,1210948.65531405,1210949.70225829,6,1,90,8,8
4,436,825.372770195827,1,0,1210951.4080981,1210952.45512934,6,1,81,4,16
4,437,646.679363679141,1,0,1210954.36100911,1210955.40800186,6,1,62,8,4
4,438,727.906439220533,1,0,1210957.26677915,1210958.31380732,6,1,80,4,4
4,439,762.607723707333,1,0,1210960.06677615,1210961.11378276,6,1,73,16,4
4,440,848.48437551409,1,0,1210963.04311097,1210964.09014145,6,1,89,16,16
4,441,1016.07161550783,0,0,1210966.12538591,1210967.1724214,6,0,95,8,4
4,442,705.432331422344,1,0,1210969.24296384,1210970.28998816,6,1,63,0,4
4,443,601.420099148527,1,0,1210972.13700832,1210973.18403725,6,1,93,0,16
4,444,720.698402263224,0,0,1210974.85458755,1210975.90168231,6,0,66,8,8
4,445,677.23152297549,1,0,1210977.77215823,1210978.81919603,6,1,86,16,16
4,446,584.376271814108,1,0,1210980.63091628,1210981.67794445,6,1,97,0,0
4,447,611.639696871862,1,0,1210983.3955618,1210984.44259381,6,1,83,0,8
4,448,597.22670330666,1,0,1210986.20724818,1210987.25427711,6,1,73,4,16
4,449,662.398535059765,1,0,1210988.92483087,1210989.97184672,6,1,97,4,8
4,450,698.240463156253,1,1,1210991.71299721,1210992.76002383,6,0,96,16,8
4,451,1246.26683769748,1,0,1210994.607049,1210995.6540737,6,1,82,16,4
4,452,488.297345349565,0,0,1210997.95990788,1210999.00693143,6,0,77,0,16
4,453,695.313593838364,0,0,1211000.60689232,1211001.65392818,6,0,88,0,0
4,454,588.009162573144,1,0,1211003.53623554,1211004.58326525,6,1,86,16,8
4,455,693.71522963047,0,0,1211006.24204532,1211007.28940301,6,0,69,16,4
4,456,577.640583971515,1,0,1211009.00669776,1211010.05371784,6,1,85,8,0
4,457,666.299359407276,0,0,1211011.73603451,1211012.78309463,6,0,99,8,16
4,458,848.589085275307,0,0,1211014.51245718,1211015.55947457,6,0,83,0,16
4,459,564.910645829514,1,0,1211017.52413309,1211018.5711678,6,1,92,16,16
4,460,593.667725333944,1,0,1211020.30058001,1211021.34756121,6,1,90,4,16
4,461,480.375203071162,1,0,1211023.04164619,1211024.08867205,6,1,79,0,4
4,462,610.786235192791,0,0,1211025.65339155,1211026.70038545,6,0,63,16,0
4,463,789.615148678422,0,0,1211028.44151515,1211029.48854177,6,0,76,16,0
4,464,520.037113688886,0,0,1211031.45323148,1211032.50021999,6,0,69,16,0
4,465,498.659764416516,0,0,1211034.04137787,1211035.08840835,6,0,97,8,8
4,466,498.859175015241,0,0,1211036.70019605,1211037.74720189,6,0,98,16,16
4,467,612.773796310648,0,0,1211039.39418286,1211040.44122335,6,0,98,0,16
4,468,506.87409308739,0,0,1211042.10000419,1211043.14703081,6,0,94,16,0
4,469,710.96270205453,1,0,1211044.84115659,1211045.88815512,6,1,100,8,0
4,470,544.52688456513,0,0,1211047.61751189,1211048.66454275,6,0,65,4,8
4,471,533.55122031644,0,0,1211050.27627618,1211051.32330088,6,0,63,0,16
4,472,556.409520329908,1,0,1211052.91150078,1211053.95853164,6,1,88,0,8
4,473,562.920775031671,0,0,1211055.64085024,1211056.68787687,6,0,86,16,4
4,474,587.610726244748,0,0,1211058.26431001,1211059.31134472,6,0,74,4,4
4,475,568.091205554083,1,0,1211060.98188731,1211062.02893088,6,1,85,16,0
4,476,501.464215805754,1,1,1211063.74652974,1211064.79356253,6,0,69,4,16
4,477,2500,-1,-1,1211066.40527863,1211067.45232335,6,1,100,16,8
4,478,746.214867802337,1,0,1211071.48756051,1211072.53455249,6,1,64,8,16
4,479,589.636783581227,0,0,1211074.34627428,1211075.3933063,6,0,73,4,4
4,480,629.716763505712,1,0,1211077.14620006,1211078.19323708,6,1,100,4,0
4,481,714.152115862817,1,0,1211107.69839443,1211108.74542683,7,1,69,0,16
4,482,587.201896356419,1,0,1211110.54538186,1211111.59242812,7,1,71,0,4
4,483,1036.17473947816,1,0,1211113.23943758,1211114.28646998,7,1,80,4,8
4,484,591.704417020082,1,0,1211116.35700396,1211117.40403597,7,1,93,16,4
4,485,740.176347084343,0,0,1211119.19223734,1211120.2392605,7,0,68,0,8
4,486,504.840336274356,1,0,1211122.06275945,1211123.10977838,7,1,81,0,4
4,487,708.719910820946,0,0,1211124.65096513,1211125.69796057,7,0,99,4,0
4,488,574.847296345979,0,0,1211127.55677906,1211128.60376142,7,0,96,8,16
4,489,465.392465004697,1,0,1211130.33313013,1211131.38016484,7,1,66,4,0
4,490,475.346053950489,0,0,1211133.03894991,1211134.08598616,7,0,76,8,8
4,491,675.647017545998,1,0,1211135.74477547,1211136.79179902,7,1,62,4,4
4,492,554.632533574477,1,0,1211138.59175021,1211139.63878954,7,1,73,16,4
4,493,536.396862706169,1,0,1211141.32109851,1211142.3681363,7,1,85,4,8
4,494,474.615010200068,1,0,1211144.08574017,1211145.13276564,7,1,75,0,0
4,495,974.65812577866,0,0,1211146.62685801,1211147.67388618,7,0,88,8,4
4,496,493.851583451033,0,0,1211149.79152531,1211150.83851537,7,0,87,8,16
4,497,681.970795616508,1,0,1211152.34436372,1211153.39139227,7,1,83,4,16
4,498,820.6727639772,1,0,1211155.12078138,1211156.16779145,7,1,89,4,16
4,499,827.209041221067,1,0,1211158.00304793,1211159.05008072,7,1,98,16,0
4,500,861.231251852587,1,0,1211160.95591852,1211162.00294668,7,1,98,4,4
4,501,659.751918399706,0,0,1211163.96761021,1211165.01463299,7,0,71,8,0
4,502,695.643506711349,1,0,1211166.81459957,1211167.86162697,7,1,98,8,8
4,503,698.251627152786,0,0,1211169.63805695,1211170.68510052,7,0,92,8,16
4,504,555.716972798109,0,0,1211172.55562725,1211173.60266389,7,0,66,0,0
4,505,665.800063172355,0,0,1211175.35556112,1211176.40259968,7,0,80,4,4
4,506,520.734665682539,0,0,1211178.20255202,1211179.2495798,7,0,61,4,16
4,507,585.933059919626,0,0,1211180.96719214,1211182.01422069,7,0,93,0,16
4,508,721.54223988764,0,0,1211183.79071342,1211184.83768192,7,0,73,16,8
4,509,669.773645466194,1,0,1211186.75528726,1211187.80232235,7,1,96,8,4
4,510,529.414413962513,1,0,1211189.53168413,1211190.57872231,7,1,72,0,8
4,511,525.622148765251,0,0,1211192.13162192,1211193.17865432,7,0,98,0,4
4,512,440.909238532186,0,0,1211194.89626743,1211195.94329868,7,0,94,8,8
4,513,692.999584600329,0,0,1211197.55501786,1211198.60205257,7,0,99,8,4
4,514,561.292384052649,0,0,1211200.47259047,1211201.5196248,7,0,66,16,16
4,515,706.992969382554,1,0,1211203.15488058,1211204.20191799,7,1,93,16,16
4,516,772.897384595126,0,0,1211205.94305654,1211206.99008932,7,0,78,16,8
4,517,605.350950499997,0,0,1211208.95474361,1211210.00177755,7,0,93,0,8
4,518,522.063171258196,0,0,1211211.64879817,1211212.69582788,7,0,68,16,16
4,519,695.493371458724,1,0,1211214.35460564,1211215.40164151,7,1,98,8,8
4,520,954.257041448727,1,0,1211217.24865435,1211218.29568983,7,1,84,4,0
4,521,1130.34617714584,1,0,1211220.35446667,1211221.40149253,7,1,81,16,16
4,522,556.670524878427,0,0,1211223.70732402,1211224.7543568,7,0,73,16,0
4,523,626.390687888488,1,0,1211226.40137781,1211227.44840251,7,1,91,0,0
4,524,781.514768954366,1,0,1211229.09544315,1211230.14246939,7,1,78,4,16
4,525,558.505640830845,1,0,1211231.98947569,1211233.03649693,7,1,63,0,4
4,526,689.201545203105,1,0,1211234.77763702,1211235.82467366,7,1,92,16,4
4,527,625.665033934638,0,0,1211237.55410357,1211238.60106899,7,0,90,16,0
4,528,1107.5560154859,0,0,1211240.34220562,1211241.38924302,7,0,79,4,0
4,529,564.0313916374,0,0,1211243.70682895,1211244.75393103,7,0,63,4,16
4,530,486.058403737843,1,0,1211246.35381839,1211247.40085965,7,1,86,8,0
4,531,664.847281062976,0,0,1211248.98904569,1211250.03607424,7,0,92,4,8
4,532,573.769016657025,0,0,1211251.84781067,1211252.89488888,7,0,100,0,0
4,533,471.899485215545,1,0,1211254.58892343,1211255.63595891,7,1,67,4,4
4,534,654.2854513973,1,0,1211257.16532346,1211258.21235509,7,1,75,16,8
4,535,506.187704857439,1,0,1211260.05936408,1211261.10642035,7,1,65,8,16
4,536,893.460307503119,0,0,1211262.6593038,1211263.70634429,7,0,91,0,8
4,537,541.536496253684,0,0,1211265.76513344,1211266.8121489,7,0,76,16,0
4,538,496.134410845116,0,0,1211268.49445942,1211269.54149066,7,0,72,8,0
4,539,1033.40146993287,1,0,1211271.10615896,1211272.15319175,7,1,80,0,16
4,540,987.576310755685,1,0,1211274.35314009,1211275.40017018,7,1,86,0,4
4,541,634.267404442653,0,0,1211277.49422959,1211278.54128201,7,0,79,16,4
4,542,528.079749085009,1,0,1211280.23535198,1211281.28238014,7,1,70,16,0
4,543,514.736180892214,0,0,1211283.01174308,1211284.05883053,7,0,86,4,8
4,544,558.911006199196,0,0,1211285.61169126,1211286.65872674,7,0,95,4,4
4,545,455.739146796986,1,0,1211288.41169904,1211289.45868178,7,1,68,4,8
4,546,379.248264012858,0,0,1211291.07038094,1211292.11741219,7,0,91,0,8
4,547,723.957879235968,1,0,1211293.61149377,1211294.65852464,7,1,92,8,16
4,548,650.769589468837,1,0,1211296.50554249,1211297.55261877,7,1,80,8,4
4,549,617.601225385442,0,0,1211299.34078895,1211300.38781212,7,0,71,16,16
4,550,636.525979265571,1,0,1211302.03480926,1211303.08184281,7,1,98,0,0
4,551,573.10957624577,0,0,1211304.85828165,1211305.90530404,7,0,65,4,0
4,552,764.879002002999,1,0,1211307.64644644,1211308.69347615,7,1,92,8,8
4,553,630.659151589498,0,0,1211310.63466967,1211311.6816347,7,0,80,16,8
4,554,548.939323984087,1,0,1211313.38752339,1211314.43451768,7,1,67,0,16
4,555,526.328939944506,0,0,1211316.16387946,1211317.21091148,7,0,75,8,4
4,556,652.143135666847,0,0,1211318.84616611,1211319.89319466,7,0,85,0,16
4,557,715.210377704352,1,0,1211321.64610036,1211322.69313468,7,1,97,8,0
4,558,719.384525436908,0,0,1211324.59897672,1211325.64599757,7,0,88,16,4
4,559,659.889349946752,1,0,1211327.46951116,1211328.51651892,7,1,72,16,8
4,560,547.02760046348,0,0,1211330.2341251,1211331.28115866,7,0,64,8,0
4,561,1258.26688692905,1,0,1211365.96268539,1211367.00969161,8,1,98,8,4
4,562,572.693816618994,0,0,1211369.37441658,1211370.42136929,8,0,61,4,8
4,563,599.295876221731,1,1,1211372.04486524,1211373.09190111,8,0,97,4,8
4,564,695.896042045206,1,0,1211374.72715882,1211375.77418814,8,1,61,16,4
4,565,529.668104369193,0,0,1211377.57414125,1211378.62120368,8,0,87,0,8
4,566,480.530343018472,1,0,1211380.36236802,1211381.40933922,8,1,65,0,0
4,567,547.917633783072,1,0,1211383.07988797,1211384.12691999,8,1,67,0,0
4,568,642.366244457662,0,0,1211385.84452848,1211386.89155819,8,0,95,4,8
4,569,756.401743972674,1,0,1211388.59740222,1211389.64443193,8,1,90,16,0
4,570,563.528245780617,1,0,1211391.59731445,1211392.64437226,8,1,68,8,16
4,571,592.515917727724,0,0,1211394.33844222,1211395.38546231,8,0,86,4,0
4,572,462.086407467723,0,0,1211397.02071925,1211398.06774972,8,0,68,0,4
4,573,625.004053115845,1,0,1211399.70300897,1211400.75005061,8,1,95,0,8
4,574,690.716757439077,1,0,1211402.4441225,1211403.49114682,8,1,63,0,8
4,575,626.674405066296,1,0,1211405.38522401,1211406.43224949,8,1,82,16,16
4,576,703.899026149884,0,0,1211408.10283635,1211409.14983796,8,0,78,16,8
4,577,579.232403775677,1,0,1211410.86744529,1211411.914475,8,1,97,4,0
4,578,686.409797286615,1,0,1211413.62031827,1211414.66733951,8,1,70,16,4
4,579,718.986474443227,0,0,1211416.54965456,1211417.59668773,8,0,82,8,0
4,580,561.849809484556,0,0,1211419.43200196,1211420.47900933,8,0,63,4,16
4,581,482.476713135839,1,0,1211422.11422354,1211423.16125325,8,1,86,8,4
4,582,567.727416288108,1,0,1211424.72598083,1211425.77297243,8,1,65,8,16
4,583,535.595370922238,0,0,1211427.36115462,1211428.40818202,8,0,66,4,4
4,584,536.776050692424,0,0,1211430.01995086,1211431.06697171,8,0,78,8,16
4,585,641.55474351719,1,0,1211432.80807947,1211433.85511033,8,1,93,4,16
4,586,769.722214667127,0,0,1211435.51389771,1211436.5609278,8,0,79,16,0
4,587,522.039303556085,1,0,1211438.41976977,1211439.46676984,8,1,86,4,8
4,588,777.590076904744,1,0,1211441.14904609,1211442.19609004,8,1,91,8,0
4,589,705.447730142623,1,0,1211444.13722813,1211445.1842459,8,1,81,0,16
4,590,790.173729415983,0,0,1211446.97244072,1211448.01946619,8,0,90,4,0
4,591,574.667903827503,0,0,1211449.94884252,1211450.99587377,8,0,69,0,0
4,592,523.568374104798,1,0,1211452.63112493,1211453.67815618,8,1,67,4,4
4,593,599.809416104108,1,0,1211455.34872188,1211456.39574696,8,1,65,4,16
4,594,591.367189772427,1,0,1211458.03099428,1211459.07802013,8,1,97,4,8
4,595,592.818113276735,0,0,1211460.7486378,1211461.79563478,8,0,82,8,8
4,596,675.349441356957,0,0,1211463.41910032,1211464.46612618,8,0,96,8,8
4,597,460.076903458685,1,0,1211466.19549989,1211467.24253383,8,1,67,0,4
4,598,479.971762513742,0,0,1211468.88959488,1211469.93659148,8,0,63,16,8
4,599,570.687392260879,1,0,1211471.43066575,1211472.47769238,8,1,70,8,0
4,600,472.833403851837,1,0,1211474.07768714,1211475.12469683,8,1,97,0,16
4,601,504.101978614926,0,0,1211476.68935782,1211477.73639599,8,0,96,0,4
4,602,575.485179200768,0,0,1211479.31282682,1211480.35985691,8,0,84,16,8
4,603,602.918372955173,0,0,1211481.97158995,1211483.01861273,8,0,88,16,16
4,604,615.50548998639,0,0,1211484.80680293,1211485.85383264,8,0,85,16,4
4,605,541.553819552064,0,0,1211487.60673795,1211488.6537819,8,0,64,4,16
4,606,456.33275876753,0,0,1211490.24196178,1211491.28900034,8,0,85,8,8
4,607,679.841568227857,1,0,1211492.7595715,1211493.80658158,8,1,88,8,8
4,608,510.344144422561,1,0,1211495.63006898,1211496.67709946,8,1,74,8,4
4,609,512.299753725529,1,0,1211498.28882826,1211499.33585836,8,1,76,8,16
4,610,509.835224132985,1,0,1211501.0064152,1211502.05344952,8,1,96,0,0
4,611,767.922130180523,0,0,1211503.66517178,1211504.71219263,8,0,93,16,16
4,612,1039.90348568186,1,0,1211506.55921395,1211507.60624674,8,1,92,0,16
4,613,771.357919787988,1,0,1211509.77091481,1211510.81793181,8,1,99,16,0
4,614,568.828793708235,1,0,1211512.70030769,1211513.7472708,8,1,89,8,8
4,615,596.256982767954,0,0,1211515.35899498,1211516.40602969,8,0,77,0,4
4,616,617.204714100808,1,0,1211518.11187181,1211519.15890729,8,1,77,0,16
4,617,654.214618494734,1,0,1211520.80592868,1211521.85296262,8,1,76,4,0
4,618,574.876553844661,1,0,1211523.53526659,1211524.58236521,8,1,77,0,16
4,619,743.445833213627,1,0,1211526.17050159,1211527.21752706,8,1,81,16,4
4,620,595.209114952013,1,0,1211528.99396282,1211530.04098983,8,1,65,0,8
4,621,596.970702987164,1,0,1211531.68801468,1211532.73504593,8,1,89,16,0
4,622,497.198061784729,1,0,1211534.34676627,1211535.39379289,8,1,73,0,8
4,623,623.337550787255,0,0,1211537.04081967,1211538.08784553,8,0,87,16,16
4,624,589.729944476858,0,0,1211539.86429245,1211540.91130676,8,0,91,4,16
4,625,596.340134507045,0,0,1211542.69950273,1211543.74654091,8,0,78,8,4
4,626,699.854995822534,0,0,1211545.41708543,1211546.46411706,8,0,99,16,16
4,627,678.505363641307,0,0,1211548.24054281,1211549.28757868,8,0,86,8,0
4,628,517.639182740822,0,0,1211551.05224497,1211552.09926775,8,0,99,0,0
4,629,609.317988390103,0,0,1211553.78157865,1211554.82861644,8,0,90,16,8
4,630,749.516690848395,0,0,1211556.53445394,1211557.58148364,8,0,78,4,4
4,631,547.821008134633,0,0,1211559.45203848,1211560.49906395,8,0,97,8,4
4,632,689.655800815672,0,0,1211562.19315624,1211563.2401744,8,0,92,4,4
4,633,684.558897977695,1,0,1211565.08719186,1211566.13421772,8,1,92,16,8
4,634,598.489764844999,1,0,1211567.87535935,1211568.92239291,8,1,93,8,16
4,635,637.76170858182,0,0,1211570.63999485,1211571.68709154,8,0,85,8,0
4,636,531.455099815503,0,0,1211573.52227873,1211574.56930689,8,0,62,16,4
4,637,500.483716372401,0,0,1211576.21633599,1211577.263363,8,0,80,0,4
4,638,502.51708808355,0,0,1211578.86331811,1211579.91035937,8,0,85,4,0
4,639,514.472481794655,0,0,1211581.60443818,1211582.65146096,8,0,68,4,4
4,640,671.223414130509,1,0,1211584.29848697,1211585.34552053,8,1,80,16,0
4,641,658.219382632524,1,0,1211591.08655899,1211592.13358407,9,1,92,4,8
4,642,441.796577069908,0,0,1211593.90999981,1211594.95705031,9,0,84,0,16
4,643,496.917039388791,0,0,1211596.46294331,1211597.5099222,9,0,88,16,4
4,644,535.41212901473,0,0,1211599.19223965,1211600.23926473,9,0,85,4,0
4,645,541.785951936617,0,1,1211601.90982427,1211602.95686014,9,1,82,16,16
4,646,728.338751941919,0,0,1211604.53327518,1211605.58030643,9,0,96,16,4
4,647,637.614652980119,1,0,1211607.45088321,1211608.4978929,9,1,78,16,8
4,648,703.805865487084,0,0,1211610.30961739,1211611.35666827,9,0,95,0,16
4,649,643.114611506462,1,0,1211613.12130454,1211614.16836043,9,1,72,0,8
4,650,697.40778952837,1,0,1211615.93300478,1211616.98004835,9,1,88,0,16
4,651,677.226518513635,0,0,1211618.76822546,1211619.81526132,9,0,100,4,16
4,652,651.141463080421,0,0,1211621.66227879,1211622.70930696,9,0,92,4,0
4,653,569.040522910655,1,0,1211624.55637793,1211625.60335336,9,1,74,16,4
4,654,654.440206475556,0,1,1211627.27390635,1211628.3209349,9,1,81,8,16
4,655,775.589427212253,1,0,1211630.07382828,1211631.12086376,9,1,96,8,4
4,656,492.568888701499,1,0,1211632.92082342,1211633.96784542,9,1,85,0,0
4,657,582.136945333332,0,0,1211635.49721652,1211636.54426316,9,0,96,8,0
4,658,737.148617394269,1,0,1211638.14422521,1211639.19125183,9,1,87,4,4
4,659,797.856039833277,0,0,1211641.12041052,1211642.16765364,9,0,80,8,0
4,660,686.256197281182,0,0,1211644.14407584,1211645.19110324,9,0,95,16,0
4,661,528.188693337142,1,0,1211646.93224525,1211647.9792738,9,1,74,0,0
4,662,724.224658217281,1,0,1211649.53217496,1211650.57921005,9,1,63,4,4
4,663,986.138090956956,0,0,1211652.42622367,1211653.47325607,9,0,79,8,0
4,664,728.745657252148,0,0,1211655.50853287,1211656.55554564,9,0,71,16,16
4,665,909.629885107279,0,0,1211658.35551723,1211659.40253308,9,0,98,8,8
4,666,948.553052730858,0,0,1211661.34364807,1211662.39068702,9,0,99,8,16
4,667,790.01012025401,0,0,1211664.36710576,1211665.41413931,9,0,100,0,4
4,668,709.108337992802,0,0,1211667.26115216,1211668.30818033,9,0,65,4,8
4,669,640.483392868191,1,0,1211670.07285548,1211671.11987864,9,1,75,16,0
4,670,537.663004361093,0,0,1211672.88453994,1211673.93157927,9,0,66,16,4
4,671,625.512588536367,1,0,1211675.47271712,1211676.51975183,9,1,67,16,0
4,672,1590.11683170684,1,0,1211678.35499445,1211679.40203648,9,1,92,8,4
4,673,578.946761554107,0,0,1211682.14314154,1211683.19017355,9,0,93,0,8
4,674,711.73108718358,1,0,1211684.77841464,1211685.82540932,9,1,100,0,0
4,675,644.992843037471,1,0,1211687.54300896,1211688.59004097,9,1,63,4,4
4,676,541.58808127977,0,0,1211690.30766178,1211691.35469303,9,0,64,8,16
4,677,632.003825157881,1,0,1211693.03699623,1211694.08402863,9,1,95,16,8
4,678,570.99497737363,0,0,1211695.83691893,1211696.88394401,9,0,87,16,8
4,679,494.125291705132,0,0,1211698.58980268,1211699.63682661,9,0,87,8,16
4,680,442.494513932616,1,0,1211701.29561746,1211702.34263754,9,1,64,4,8
4,681,587.057920172811,0,0,1211703.93084476,1211704.977876,9,0,98,0,4
4,682,542.602457338944,0,0,1211706.75430984,1211707.8013253,9,0,79,16,8
4,683,610.298102721572,1,0,1211709.42483164,1211710.47185288,9,1,85,0,4
4,684,612.2956732288,0,0,1211712.23652188,1211713.28355851,9,0,82,0,0
4,685,621.549015399069,0,0,1211715.09527492,1211716.14230309,9,0,76,8,0
4,686,551.110512344167,1,0,1211717.87167757,1211718.91871382,9,1,73,4,16
4,687,538.809807272628,0,0,1211720.58926065,1211721.6362869,9,0,73,16,0
4,688,505.528264213353,1,0,1211723.37742429,1211724.42446131,9,1,96,0,16
4,689,669.196586823091,0,0,1211725.96559878,1211727.01262425,9,0,94,0,8
4,690,669.230078579858,1,0,1211728.8596498,1211729.90667489,9,1,80,16,4
4,691,500.843656482175,0,0,1211731.74196371,1211732.78899457,9,0,86,4,0
4,692,540.095196804032,0,0,1211734.40069411,1211735.44771497,9,0,98,4,0
4,693,559.086934197694,0,0,1211737.18894976,1211738.23588707,9,0,62,8,16
4,694,789.221332175657,1,0,1211739.80055383,1211740.84758701,9,1,96,8,8
4,695,584.936007158831,0,0,1211742.77695756,1211743.82399073,9,0,95,4,4
4,696,710.859917104244,1,0,1211745.47107372,1211746.51804106,9,1,71,16,0
4,697,527.292116079479,1,0,1211748.24740053,1211749.29444025,9,1,64,16,16
4,698,560.157514642924,1,0,1211750.83557541,1211751.88261012,9,1,63,0,0
4,699,447.602965636179,1,0,1211753.64729066,1211754.69429034,9,1,65,4,16
4,700,628.29740694724,1,0,1211756.18838656,1211757.23543436,9,1,74,8,0
4,701,405.835310230032,1,0,1211758.96485119,1211760.01183547,9,1,76,0,4
4,702,709.66306887567,0,0,1211761.50591243,1211762.55294484,9,0,91,4,16
4,703,757.02923280187,0,0,1211764.42352816,1211765.47051321,9,0,100,0,4
4,704,575.469395844266,0,0,1211767.28223116,1211768.3292651,9,0,85,16,8
4,705,590.785511536524,1,0,1211770.09392486,1211771.14096342,9,1,80,8,8
4,706,454.089967533946,1,0,1211772.90562779,1211773.95265712,9,1,76,4,4
4,707,530.175869585946,0,0,1211775.56437707,1211776.61141678,9,0,81,8,4
4,708,574.774538399652,1,0,1211778.24667103,1211779.29371767,9,1,80,0,8
4,709,521.418743999675,0,0,1211780.91719591,1211781.96421253,9,0,63,4,8
4,710,438.320751069114,0,0,1211783.6583002,1211784.70533299,9,0,63,0,16
4,711,793.637621216476,1,0,1211786.22296542,1211787.26997665,9,1,81,8,8
4,712,561.536449939013,0,0,1211789.22286995,1211790.26990428,9,0,76,16,16
4,713,647.42041635327,1,0,1211792.01104129,1211793.05806869,9,1,96,16,16
4,714,699.998201802373,0,0,1211794.88161692,1211795.92861968,9,0,99,8,4
4,715,607.913645682856,0,0,1211797.68148996,1211798.72852505,9,0,89,8,8
4,716,516.297588590533,1,0,1211800.35200984,1211801.3990407,9,1,94,0,8
4,717,524.512686999515,1,0,1211803.05782424,1211804.1048601,9,1,66,4,0
4,718,592.883556848392,1,0,1211805.76369022,1211806.81066911,9,1,98,4,16
4,719,469.262107275426,1,0,1211808.54004282,1211809.58707407,9,1,66,4,8
4,720,660.123406909406,1,0,1211811.08115989,1211812.12818844,9,1,90,8,4
