sub_id,Trial,RT,Resp,Error,Fix_onset,Disp_onset,block,tid,tloc,fish_setsize,bird_setsize
5,1,784.805944189429,1,0,1030210.55082535,1030211.59789491,1,1,98,4,4
5,2,623.19471326191,1,0,1030213.57439458,1030214.62146992,1,1,61,8,8
5,3,440.426027867943,1,0,1030216.33913955,1030217.38620642,1,1,62,0,16
5,4,668.136980733834,0,0,1030218.92740841,1030219.97447296,1,0,92,16,4
5,5,652.375139063224,0,0,1030221.69214721,1030222.73922601,1,0,83,4,4
5,6,574.979122844525,1,0,1030224.58630143,1030225.63336444,1,1,62,0,4
5,7,671.203964622691,0,0,1030227.33927198,1030228.38634154,1,0,92,16,16
5,8,661.982609773986,0,0,1030230.09225177,1030231.13932287,1,0,89,8,0
5,9,573.150173295289,1,0,1030232.89228649,1030233.93935451,1,1,62,4,4
5,10,726.797716924921,0,0,1030235.5393743,1030236.58648351,1,0,69,16,0
5,11,535.73966701515,1,0,1030238.48058537,1030239.52765878,1,1,72,4,16
5,12,436.689981725067,1,0,1030241.08061671,1030242.12768512,1,1,82,0,4
5,13,484.460172359832,0,0,1030243.63359157,1030244.68065959,1,0,75,4,4
5,14,549.240247928537,1,0,1030246.17483282,1030247.22187467,1,1,76,4,0
5,15,506.207771948539,1,0,1030248.82189253,1030249.86896517,1,1,72,8,4
5,16,560.247051762417,0,0,1030251.52781238,1030252.57488117,1,0,93,16,4
5,17,607.020578463562,1,0,1030254.16314002,1030255.21020573,1,1,80,0,0
5,18,672.177915927023,1,0,1030256.83375626,1030257.88082774,1,1,97,8,8
5,19,516.732604708523,1,0,1030259.65737176,1030260.70439013,1,1,75,4,0
5,20,591.558621497825,1,0,1030262.25735344,1030263.30442377,1,1,70,0,16
5,21,516.685254406184,1,0,1030264.9632756,1030266.01034016,1,1,86,0,0
5,22,366.514293244109,0,0,1030267.61035456,1030268.65743413,1,0,97,0,8
5,23,682.949508540332,1,0,1030270.18686555,1030271.23393396,1,1,99,16,4
5,24,474.303747294471,1,0,1030273.05749018,1030274.10455897,1,1,66,16,16
5,25,533.500349265523,1,0,1030275.71634393,1030276.76341889,1,1,95,4,16
5,26,719.05037749093,0,0,1030278.39873035,1030279.44580184,1,0,75,0,8
5,27,575.551174813882,0,0,1030281.32817856,1030282.37524389,1,0,98,16,8
5,28,530.189299955964,1,0,1030284.0105669,1030285.0576303,1,1,96,0,0
5,29,627.256436389871,0,0,1030286.76354246,1030287.81061202,1,0,66,16,8
5,30,670.086807920597,1,0,1030289.56356948,1030290.61064559,1,1,81,16,0
5,31,463.965235743672,0,0,1030292.35184211,1030293.39892014,1,0,72,4,8
5,32,543.908923631534,0,0,1030295.05775773,1030296.10488503,1,0,97,4,16
5,33,562.225751113147,0,0,1030297.77543891,1030298.82250847,1,0,94,4,16
5,34,468.752225395292,0,0,1030300.50488603,1030301.55195175,1,0,89,0,0
5,35,509.792143362574,0,0,1030303.11667716,1030304.16375827,1,0,98,4,16
5,36,855.233782203868,1,0,1030305.74024231,1030306.78730956,1,1,98,0,8
5,37,836.824949132279,0,0,1030308.66975365,1030309.71676431,1,0,63,8,0
5,38,438.796488102525,1,0,1030311.62273336,1030312.66973864,1,1,63,4,0
5,39,500.145406695083,0,0,1030314.24623307,1030315.29329917,1,0,65,16,0
5,40,661.480620619841,0,0,1030316.90508644,1030317.95216563,1,0,95,4,8
5,41,590.689764590934,0,0,1030319.7168848,1030320.76395591,1,0,62,16,0
5,42,530.578880454414,0,0,1030322.46986151,1030323.51692684,1,0,97,0,16
5,43,725.400308612734,1,0,1030325.16400426,1030326.21108537,1,1,77,0,0
5,44,619.956036680378,1,0,1030328.04639868,1030329.09346709,1,1,90,0,8
5,45,580.487914150581,0,0,1030330.7758435,1030331.82292076,1,0,84,4,8
5,46,524.460695916787,0,0,1030333.48176605,1030334.52882753,1,0,86,8,4
5,47,648.507436271757,1,0,1030336.23474045,1030337.28181155,1,1,93,8,8
5,48,595.546817057766,0,0,1030339.14065368,1030340.18772517,1,0,78,16,16
5,49,643.666552263312,0,0,1030341.94069418,1030342.98776335,1,0,81,0,8
5,50,672.148273908533,1,0,1030344.77601635,1030345.82309168,1,1,66,8,4
5,51,690.163291990757,0,0,1030347.63488119,1030348.68194921,1,0,82,8,16
5,52,686.950022936799,1,0,1030350.4231465,1030351.4702176,1,1,89,0,16
5,53,730.126859270968,0,0,1030353.32906628,1030354.37613699,1,0,63,4,0
5,54,610.319693922065,1,0,1030356.24674623,1030357.29382002,1,1,84,0,4
5,55,692.715968121774,0,0,1030358.96444165,1030360.01150967,1,0,96,8,8
5,56,638.250536518171,0,0,1030361.75269811,1030362.79976998,1,0,71,0,4
5,57,621.662183664739,1,0,1030364.51743807,1030365.56450994,1,1,78,16,8
5,58,799.805563176051,0,0,1030367.1880647,1030368.23513118,1,0,82,4,8
5,59,440.176958101802,0,0,1030370.1527992,1030371.19987569,1,0,65,0,4
5,60,621.740715811029,1,0,1030372.74112772,1030373.78814531,1,1,98,16,4
5,61,559.450567583553,0,0,1030375.56463582,1030376.61173195,1,0,98,4,0
5,62,583.991443854757,1,0,1030378.24707383,1030379.29409796,1,1,62,0,16
5,63,571.367034106515,1,0,1030381.08235943,1030382.12942244,1,1,72,8,4
5,64,714.515152503736,1,0,1030383.88237991,1030384.92945332,1,1,68,16,4
5,65,719.470754847862,0,0,1030386.69418674,1030387.74125437,1,0,98,8,8
5,66,501.056994311512,0,0,1030389.57656884,1030390.62363687,1,0,99,8,4
5,67,635.64358081203,1,0,1030392.24718739,1030393.29426581,1,1,67,16,8
5,68,617.183932801709,0,0,1030395.02369561,1030396.07077133,1,0,98,8,0
5,69,762.288422789425,1,0,1030397.83549975,1030398.88257123,1,1,77,8,16
5,70,621.731091756374,0,0,1030400.71789148,1030401.76495334,1,0,71,16,16
5,71,841.961868107319,1,0,1030403.58850841,1030404.63557527,1,1,95,4,4
5,72,687.9262838047,1,0,1030406.57680328,1030407.62385899,1,1,90,8,16
5,73,827.320262906142,1,0,1030409.41211237,1030410.45917846,1,1,92,8,0
5,74,713.679402251728,0,0,1030412.37686804,1030413.42392258,1,0,92,16,0
5,75,665.262477123179,1,0,1030415.21217866,1030416.25927825,1,1,61,4,8
5,76,684.679908095859,0,0,1030418.03574912,1030419.08281137,1,0,75,16,16
5,77,772.088373894803,1,0,1030420.95342445,1030422.00049671,1,1,90,8,0
5,78,647.684774827212,0,0,1030423.88287304,1030424.92994145,1,0,72,8,16
5,79,669.842357747257,1,0,1030426.60056,1030427.64763572,1,1,71,8,16
5,80,865.501845837571,0,0,1030429.33000212,1030430.37707245,1,0,81,16,8
5,81,940.961893415079,0,0,1030443.13016696,1030444.17724268,2,0,70,0,0
5,82,531.521264929324,0,0,1030446.20079382,1030447.24787108,2,0,64,0,8
5,83,488.1022881018,1,0,1030448.89494542,1030449.94202075,2,1,85,0,4
5,84,700.916791451164,1,0,1030451.58909624,1030452.63616542,2,1,93,4,16
5,85,705.598301719874,0,0,1030454.41265978,1030455.45973088,2,0,89,16,8
5,86,540.821151807904,1,0,1030457.18916415,1030458.23628568,2,1,66,16,8
5,87,467.263196362183,0,0,1030459.96566814,1030461.01274155,2,0,76,16,16
5,88,984.792008646764,1,0,1030462.49511572,1030463.54218259,2,1,90,16,4
5,89,626.613551634364,0,0,1030465.68339205,1030466.73046469,2,0,90,0,8
5,90,674.752149847336,1,0,1030468.49520773,1030469.54230231,2,1,75,8,0
5,91,682.339730323292,1,0,1030471.3305145,1030472.37758252,2,1,72,0,0
5,92,725.961196701974,0,0,1030474.2129097,1030475.25997271,2,0,98,4,0
5,93,935.502762091346,0,0,1030477.09529181,1030478.14236175,2,0,92,4,8
5,94,939.22263989225,1,0,1030480.13062853,1030481.17769308,2,1,75,4,0
5,95,707.908067503013,1,0,1030483.16595524,1030484.21303635,2,1,69,4,0
5,96,671.262478688732,1,0,1030486.08364212,1030487.13071245,2,1,99,4,4
5,97,719.498087186366,0,0,1030488.90720026,1030489.9542706,2,0,100,16,0
5,98,852.657623472624,0,0,1030491.86017767,1030492.90724915,2,0,76,4,4
5,99,637.619585497305,0,0,1030494.86021655,1030495.90728688,2,0,70,16,16
5,100,640.602647908963,1,0,1030497.71907716,1030498.76614325,2,1,89,8,16
5,101,853.272021166049,0,0,1030500.44852351,1030501.49558615,2,0,94,8,4
5,102,719.116205931641,0,0,1030503.49561656,1030504.54268997,2,0,99,4,0
5,103,596.17160866037,1,0,1030506.40153864,1030507.44860898,2,1,74,0,4
5,104,485.232019098476,1,0,1030509.16627399,1030510.21334701,2,1,74,16,16
5,105,439.814324956387,0,0,1030511.89577077,1030512.94279799,2,0,87,0,16
5,106,337.48515706975,0,0,1030514.57810984,1030515.62517748,2,0,84,0,16
5,107,624.069729587063,0,0,1030517.16639756,1030518.21344017,2,0,69,16,8
5,108,498.304138542153,0,0,1030519.97817321,1030521.02523969,2,0,98,0,4
5,109,516.383060021326,1,0,1030522.57820339,1030523.6252741,2,1,86,8,8
5,110,729.922445025295,1,0,1030525.21352294,1030526.26061252,2,1,90,0,8
5,111,704.861101461574,1,0,1030528.06063146,1030529.10771565,2,1,73,16,0
5,112,810.94479362946,0,0,1030530.97830794,1030532.02537327,2,0,62,0,4
5,113,555.801907554269,1,0,1030534.02540253,1030535.07252637,2,1,65,16,4
5,114,711.920900619589,0,0,1030536.73131892,1030537.77839348,2,0,91,0,4
5,115,916.855253279209,0,0,1030539.6842967,1030540.73137281,2,0,86,8,4
5,116,666.719169472344,0,0,1030542.82560471,1030543.87258111,2,0,65,4,8
5,117,809.797224937938,1,0,1030545.62555359,1030546.67261622,2,1,61,8,16
5,118,839.655567076989,0,0,1030548.57852714,1030549.62559285,2,0,98,4,16
5,119,690.753052127548,0,0,1030551.53153188,1030552.5785845,2,0,83,16,8
5,120,655.671944725327,1,0,1030554.37858958,1030555.42565799,2,1,77,8,0
5,121,593.441080651246,0,0,1030557.13156283,1030558.17864009,2,0,86,8,0
5,122,606.262205401435,1,0,1030559.8727809,1030560.91985124,2,1,99,4,4
5,123,734.088492579758,1,0,1030562.71987403,1030563.76694128,2,1,94,4,4
5,124,686.563522089273,0,0,1030565.63755821,1030566.68462315,2,0,73,8,4
5,125,645.503585925326,1,0,1030568.43759024,1030569.48465826,2,1,94,4,8
5,126,678.079367382452,1,0,1030571.17883103,1030572.22587018,2,1,61,8,8
5,127,586.371272569522,1,0,1030574.08471577,1030575.13178995,2,1,74,8,0
5,128,574.634197866544,1,0,1030576.86124401,1030577.90829817,2,1,67,8,0
5,129,567.72376364097,1,0,1030579.66125679,1030580.7083225,2,1,93,16,16
5,130,784.243901260197,0,0,1030582.39069968,1030583.43776501,2,0,81,8,4
5,131,500.568863819353,1,0,1030585.36720667,1030586.41427931,2,1,82,4,4
5,132,922.124598757364,0,0,1030588.09665264,1030589.14373029,2,0,71,4,16
5,133,677.09348234348,1,0,1030591.14373914,1030592.19081448,2,1,66,4,8
5,134,508.599919266999,0,0,1030593.9790871,1030595.02614435,2,0,75,8,16
5,135,680.031504482031,0,0,1030596.60267959,1030597.64973183,2,0,61,16,4
5,136,713.155855308287,1,0,1030599.46150247,1030600.5085651,2,1,88,16,4
5,137,540.339180617593,1,0,1030602.32035538,1030603.36743226,2,1,64,4,8
5,138,579.733390710317,0,0,1030605.04984177,1030606.09689671,2,0,87,16,16
5,139,646.856338717043,0,0,1030607.84982645,1030608.8969091,2,0,85,16,0
5,140,506.014906568453,1,0,1030610.61458027,1030611.66164329,2,1,88,0,0
5,141,603.401560452767,0,0,1030613.23813927,1030614.28520421,2,0,98,8,16
5,142,571.243846672587,1,0,1030616.03817861,1030617.08524201,2,1,95,4,16
5,143,740.551217109896,0,0,1030618.7558571,1030619.80292088,2,0,62,8,8
5,144,375.493122613989,1,0,1030621.75588905,1030622.80296015,2,1,87,0,16
5,145,625.28813094832,0,0,1030624.39120398,1030625.43827739,2,0,98,0,0
5,146,1056.06060125865,1,0,1030627.19125641,1030628.23832482,2,1,100,8,8
5,147,646.506024291739,0,0,1030630.46187935,1030631.50894853,2,0,87,16,4
5,148,447.591691161506,1,0,1030633.27366077,1030634.32075459,2,1,89,4,0
5,149,664.072562940419,0,0,1030635.79135435,1030636.83843315,2,0,81,8,8
5,150,606.775358319283,0,0,1030638.5913883,1030639.63850367,2,0,92,8,4
5,151,824.561632587574,0,0,1030641.33259752,1030642.37967248,2,0,96,16,8
5,152,441.309898276813,1,0,1030644.262085,1030645.30911414,2,1,65,4,16
5,153,467.86412037909,0,0,1030646.89737606,1030647.94445101,2,0,67,0,0
5,154,701.604716712609,0,0,1030649.43858652,1030650.48565338,2,0,90,8,16
5,155,754.424055339769,1,0,1030652.37979258,1030653.42686715,2,1,85,16,0
5,156,664.440585533157,1,0,1030655.379828,1030656.42690064,2,1,92,0,16
5,157,718.049864051864,1,0,1030658.16809716,1030659.21516634,2,1,79,16,0
5,158,935.414990992285,0,0,1030661.03873026,1030662.08579482,2,0,88,0,8
5,159,684.341527405195,1,0,1030664.14464265,1030665.1917176,2,1,61,0,8
5,160,779.201682657003,1,0,1030666.94467621,1030667.99174424,2,1,69,0,16
5,161,975.636867107823,0,0,1030698.05096548,1030699.09800924,3,0,99,4,0
5,162,549.16094604414,1,0,1030701.18039628,1030702.22746045,3,1,89,16,4
5,163,474.983588326722,0,0,1030703.86277731,1030704.90985149,3,0,97,8,0
5,164,596.901109674945,0,0,1030706.47457806,1030707.52164569,3,0,90,16,0
5,165,541.543338564225,0,0,1030709.14519583,1030710.19228195,3,0,66,4,16
5,166,766.31626940798,1,0,1030711.88640467,1030712.93347039,3,1,94,0,4
5,167,872.958539635874,1,0,1030714.82761921,1030715.8747265,3,1,75,0,16
5,168,478.950611082837,0,0,1030717.88647358,1030718.9335443,3,0,89,4,8
5,169,633.394638891332,1,0,1030720.60416169,1030721.6512274,3,1,62,4,4
5,170,766.558024799451,1,0,1030723.47479479,1030724.52185434,3,1,95,8,16
5,171,589.859788771719,0,0,1030726.43952621,1030727.48663195,3,0,72,4,8
5,172,556.576064089313,0,0,1030729.16896486,1030730.21604058,3,0,89,0,0
5,173,457.262295531109,0,0,1030731.81606499,1030732.86313224,3,0,69,0,8
5,174,654.481260571629,0,0,1030734.33373431,1030735.38080734,3,0,83,0,16
5,175,551.561177708209,0,0,1030737.08670525,1030738.13378174,3,0,82,8,4
5,176,576.137855299748,1,0,1030739.76909552,1030740.81616932,3,1,77,0,16
5,177,658.521425793879,0,0,1030742.43972254,1030743.4867921,3,0,72,0,8
5,178,589.488686411642,1,0,1030745.2397588,1030746.28682182,3,1,63,16,8
5,179,510.25448157452,1,0,1030747.93390116,1030748.9809788,3,1,74,16,4
5,180,619.137994712219,1,0,1030750.5339348,1030751.58100321,3,1,88,8,8
5,181,539.381782757118,1,0,1030753.29870672,1030754.34574163,3,1,87,4,0
5,182,777.900899527594,0,0,1030755.92223453,1030756.96933912,3,0,100,16,8
5,183,887.698694947176,1,0,1030758.76938732,1030759.81639914,3,1,91,4,16
5,184,584.822959615849,1,0,1030761.76941119,1030762.81643378,3,1,72,0,0
5,185,611.245525069535,0,0,1030764.54587783,1030765.59295817,3,0,61,16,4
5,186,713.84262572974,0,0,1030767.33413891,1030768.38121886,3,0,91,4,0
5,187,627.40156671498,1,0,1030770.26358673,1030771.3106559,3,1,90,0,16
5,188,552.935488289222,0,0,1030772.99303193,1030774.0401038,3,0,75,16,4
5,189,826.582292676903,1,0,1030775.62835726,1030776.67543067,3,1,93,16,16
5,190,581.124254618771,1,0,1030778.51074167,1030779.55781932,3,1,97,0,0
5,191,672.39965335466,0,0,1030781.3225485,1030782.36961537,3,0,94,0,8
5,192,515.141176059842,0,0,1030784.06375811,1030785.11082498,3,0,85,4,8
5,193,713.126598275267,1,0,1030786.67555001,1030787.72262149,3,1,71,16,16
5,194,825.398537795991,0,0,1030789.53441061,1030790.5814771,3,0,70,0,4
5,195,676.019826321863,1,0,1030792.52268201,1030793.56975503,3,1,90,4,16
5,196,615.491259493865,0,0,1030795.25212567,1030796.29919331,3,0,87,4,4
5,197,716.96889353916,1,0,1030798.12274799,1030799.16981871,3,1,91,8,16
5,198,504.855019156821,1,0,1030800.91103063,1030801.95808517,3,1,72,0,4
5,199,874.347478849813,0,0,1030803.59340819,1030804.64047814,3,0,100,8,4
5,200,637.593408115208,0,0,1030806.5699402,1030807.61698205,3,0,96,8,0
5,201,726.97171929758,0,0,1030809.33465168,1030810.38171623,3,0,63,8,0
5,202,636.505508446135,1,0,1030812.15821252,1030813.20528632,3,1,61,16,16
5,203,424.502117792144,1,0,1030814.87589678,1030815.92296711,3,1,65,8,4
5,204,499.679988832213,1,0,1030817.52298382,1030818.57005607,3,1,63,16,8
5,205,440.836781286635,1,0,1030820.14655051,1030821.19362354,3,1,63,16,16
5,206,737.962739658542,1,0,1030822.65246236,1030823.69953731,3,1,89,8,4
5,207,586.434021242894,0,0,1030825.62897319,1030826.67603275,3,0,88,8,0
5,208,936.020919587463,1,0,1030828.26429352,1030829.31136154,3,1,90,0,4
5,209,628.648840240203,1,0,1030831.28785043,1030832.33492269,3,1,96,0,4
5,210,750.570981064811,0,0,1030834.09966496,1030835.1467299,3,0,82,4,4
5,211,1096.38911159709,0,0,1030837.04086872,1030838.08793944,3,0,79,16,16
5,212,776.142782764509,0,0,1030840.27620267,1030841.323273,3,0,97,8,4
5,213,744.308821042068,0,0,1030843.1350602,1030844.18213245,3,0,95,16,0
5,214,487.614157493226,0,0,1030846.11158451,1030847.15864291,3,0,94,8,0
5,215,416.142305359244,0,0,1030848.73513157,1030849.78219651,3,0,83,8,16
5,216,472.749660024419,0,0,1030851.27634125,1030852.32339465,3,0,72,0,0
5,217,551.749423495494,1,0,1030853.82931419,1030854.87638491,3,1,81,0,0
5,218,623.16545622889,0,0,1030856.54698382,1030857.59406185,3,0,69,4,0
5,219,429.443861590698,1,0,1030859.31173033,1030860.3588022,3,1,68,16,0
5,220,697.485249489546,1,0,1030861.97058139,1030863.01765904,3,1,61,8,8
5,221,641.577754053287,1,0,1030864.73538487,1030865.78240016,3,1,96,8,16
5,222,586.860942887142,1,0,1030867.48835581,1030868.5353734,3,1,99,4,16
5,223,1220.90742923319,0,0,1030870.14721457,1030871.19422716,3,0,85,4,4
5,224,671.228987164795,1,0,1030873.47660526,1030874.52368214,3,1,70,16,0
5,225,540.018123225309,1,0,1030876.26488135,1030877.3119486,3,1,73,8,8
5,226,635.268243844621,1,0,1030878.97079158,1030880.01786114,3,1,90,4,16
5,227,649.591486318968,0,0,1030881.79435858,1030882.84142237,3,0,62,0,8
5,228,613.895981223322,1,0,1030884.66498283,1030885.71205816,3,1,92,8,8
5,229,518.774822470732,1,0,1030887.41795761,1030888.46503141,3,1,63,4,0
5,230,638.599696103483,1,1,1030890.00621954,1030891.05329064,3,0,82,0,16
5,231,803.842263878323,0,0,1030892.86508785,1030893.91214894,3,0,85,4,4
5,232,817.273936700076,1,0,1030895.74746341,1030896.79454567,3,1,81,16,0
5,233,643.315852736123,0,0,1030898.79456223,1030899.84163217,3,0,61,0,8
5,234,590.941144153476,1,0,1030901.68871875,1030902.73578562,3,1,63,16,8
5,235,755.777193116955,0,0,1030904.52404131,1030905.57111741,3,0,87,16,4
5,236,777.490916196257,0,0,1030907.47707222,1030908.52410444,3,0,81,4,8
5,237,796.830199891701,0,0,1030910.34764334,1030911.39471752,3,0,80,8,8
5,238,649.293526541442,0,0,1030913.32415533,1030914.37122836,3,0,86,8,16
5,239,522.016963688657,1,0,1030916.11241564,1030917.15948674,3,1,75,16,8
5,240,542.587352683768,1,0,1030918.79485826,1030919.84187893,3,1,63,4,8
5,241,631.885207025334,1,0,1030954.54818336,1030955.59525292,4,1,77,16,0
5,242,1201.87765394803,1,0,1030957.24236691,1030958.28940837,4,1,83,8,8
5,243,548.017996945418,1,0,1030960.70118841,1030961.74832726,4,1,95,0,8
5,244,605.981568805873,1,0,1030963.45417628,1030964.5012443,4,1,72,8,4
5,245,637.119136168621,0,0,1030966.12482024,1030967.17187671,4,0,87,0,8
5,246,560.874538146891,0,0,1030968.90135848,1030969.94836876,4,0,95,8,4
5,247,556.39898206573,0,0,1030971.58368215,1030972.63074979,4,0,88,4,16
5,248,513.573614880443,1,0,1030974.24253976,1030975.28960739,4,1,67,0,8
5,249,628.681561909616,1,0,1030977.00727857,1030978.05434543,4,1,90,16,0
5,250,525.366893969476,1,0,1030979.74848702,1030980.79556082,4,1,70,0,0
5,251,698.7787183607,1,0,1030982.51322313,1030983.56030155,4,1,72,16,16
5,252,566.749042482115,0,0,1030985.3720899,1030986.41916524,4,0,73,4,8
5,253,617.419528891332,1,0,1030988.16035252,1030989.20741977,4,1,95,0,16
5,254,679.215772193857,0,0,1030990.8427374,1030991.88980927,4,0,63,16,16
5,255,673.425189335831,1,0,1030993.76042158,1030994.80749653,4,1,80,16,8
5,256,601.208822918125,1,0,1030996.60751855,1030997.65458696,4,1,87,8,4
5,257,611.239365651272,1,0,1030999.40754865,1031000.45461668,4,1,89,16,16
5,258,675.809637643397,0,0,1031002.24292279,1031003.28996156,4,0,90,8,0
5,259,624.737251899205,1,0,1031005.04291633,1031006.09001053,4,1,100,0,4
5,260,558.774576056749,1,0,1031007.90177231,1031008.94885035,4,1,76,8,4
5,261,662.794107571244,0,0,1031010.59597896,1031011.64299771,4,0,99,4,8
5,262,497.444135602564,0,0,1031013.44301742,1031014.49008467,4,0,88,16,4
5,263,588.972068857402,1,0,1031016.01951609,1031017.06658488,4,1,95,4,0
5,264,625.368202803656,1,0,1031018.84308425,1031019.89016305,4,1,99,4,4
5,265,1414.44693738595,0,0,1031021.5489914,1031022.59606789,4,0,100,4,0
5,266,659.803730784915,0,0,1031025.16081486,1031026.20787364,4,0,90,8,16
5,267,700.411337777041,1,0,1031027.99613626,1031029.04319927,4,1,74,4,8
5,268,648.467400344089,0,0,1031030.80793385,1031031.85500841,4,0,69,16,4
5,269,574.66537959408,1,0,1031033.6667933,1031034.71385978,4,1,67,4,0
5,270,509.361757081933,0,0,1031036.31388188,1031037.36104191,4,0,67,8,0
5,271,676.103362813592,1,0,1031038.99626021,1031040.04333478,4,1,86,4,16
5,272,516.438109450974,1,0,1031041.866891,1031042.91395402,4,1,64,16,8
5,273,583.163392846473,1,0,1031044.50221325,1031045.54928705,4,1,75,8,0
5,274,797.628224012442,0,0,1031047.13759055,1031048.18460544,4,0,62,8,8
5,275,579.339960590005,1,0,1031050.12580766,1031051.17287876,4,1,92,16,4
5,276,599.001841736026,0,0,1031052.96113483,1031054.00819747,4,0,93,16,16
5,277,438.657132326625,1,0,1031055.64352664,1031056.69059005,4,1,93,8,16
5,278,504.869262687862,0,0,1031058.25536858,1031059.3024008,4,0,74,0,0
5,279,562.034810543992,0,0,1031060.97300588,1031062.02007043,4,0,85,8,8
5,280,663.279158296064,0,0,1031063.67890995,1031064.72598644,4,0,71,0,4
5,281,608.504602918401,1,0,1031066.49071293,1031067.53778903,4,1,67,0,4
5,282,612.51628107857,0,0,1031069.23192561,1031070.29076151,4,0,88,0,4
5,283,459.329535835423,1,0,1031071.93783931,1031072.98491349,4,1,77,4,0
5,284,711.463951971382,0,0,1031074.54963428,1031075.59671039,4,0,65,16,16
5,285,558.237170684151,0,0,1031077.50261207,1031078.54968317,4,0,84,0,0
5,286,708.217961131595,1,0,1031080.25558339,1031081.30265488,4,1,72,8,0
5,287,682.479471201077,0,0,1031083.02032451,1031084.06739753,4,0,97,4,16
5,288,488.736703642644,1,0,1031085.87921437,1031086.92625198,4,1,85,4,16
5,289,565.487525309436,1,0,1031088.46745743,1031089.51452199,4,1,72,0,0
5,290,674.29250641726,1,0,1031091.16160133,1031092.2086682,4,1,97,0,8
5,291,1363.51159773767,0,0,1031093.97339815,1031095.0204758,4,0,79,8,16
5,292,560.778297949582,0,0,1031097.549918,1031098.59699179,4,0,76,4,0
5,293,511.53755642008,1,0,1031100.2441077,1031101.29114069,4,1,87,4,4
5,294,817.714332020842,0,0,1031102.85591346,1031103.90293182,4,0,71,4,4
5,295,696.212183567695,0,0,1031105.83236462,1031106.87945998,4,0,64,8,8
5,296,680.413000751287,1,0,1031108.69122562,1031109.73829941,4,1,83,16,4
5,297,718.676965334453,1,0,1031111.56185448,1031112.60895214,4,1,79,16,0
5,298,705.664899898693,1,0,1031114.40894144,1031115.45600715,4,1,95,16,0
5,299,571.169164264575,1,0,1031117.33839234,1031118.38545882,4,1,86,16,4
5,300,943.65969998762,0,0,1031120.06787142,1031121.11490634,4,0,68,8,8
5,301,652.45328610763,1,0,1031123.10316811,1031124.15023266,4,1,90,0,4
5,302,711.343844071962,1,0,1031125.95026354,1031126.99732963,4,1,91,0,16
5,303,635.978881735355,0,0,1031128.79735165,1031129.84442699,4,0,97,8,0
5,304,660.163669264875,0,0,1031131.59739177,1031132.64446441,4,0,100,16,8
5,305,587.99080341123,0,0,1031134.44447834,1031135.49155368,4,0,75,0,16
5,306,680.096562951803,0,0,1031137.15039435,1031138.19747122,4,0,62,16,8
5,307,642.150575993583,1,0,1031139.91513315,1031140.96220118,4,1,90,0,8
5,308,590.48342553433,1,0,1031142.67987543,1031143.72694383,4,1,96,4,4
5,309,616.868649725802,0,0,1031145.45637633,1031146.50346437,4,0,96,4,8
5,310,583.321996731684,0,0,1031148.27993679,1031149.32701636,4,0,72,0,16
5,311,765.191798331216,1,0,1031150.97408762,1031152.02115987,4,1,96,8,16
5,312,727.800925145857,0,0,1031153.96240713,1031155.00943281,4,0,89,4,4
5,313,640.685029677115,0,0,1031156.80948986,1031157.85652708,4,0,73,0,0
5,314,1043.79805491772,0,0,1031159.56244039,1031160.60949763,4,0,69,16,0
5,315,737.776418565772,0,0,1031162.72717366,1031163.7743102,4,0,70,8,16
5,316,979.252035613172,0,0,1031165.59781253,1031166.64486977,4,0,70,16,8
5,317,607.094491017051,0,0,1031168.78607807,1031169.8331434,4,0,66,8,4
5,318,924.719235626981,1,0,1031171.48024237,1031172.52735081,4,1,98,4,16
5,319,735.360018676147,0,0,1031174.56266598,1031175.60968781,4,0,92,4,8
5,320,559.997597127222,0,0,1031177.55088964,1031178.59795997,4,0,76,0,16
5,321,837.957119219936,0,0,1031213.28073635,1031214.32782247,5,0,69,4,8
5,322,744.439707836136,0,0,1031216.36312685,1031217.41019796,5,0,82,4,0
5,323,564.1632595798,0,0,1031219.30433793,1031220.35140287,5,0,79,16,8
5,324,555.771495681256,1,0,1031222.09260747,1031223.13972477,5,1,68,0,0
5,325,530.73017008137,1,0,1031224.73971645,1031225.78682374,5,1,62,0,4
5,326,648.06742593646,1,0,1031227.35152413,1031228.39856097,5,1,83,8,8
5,327,470.89299315121,1,0,1031230.09270179,1031231.13977481,5,1,65,4,0
5,328,678.814257960767,1,0,1031232.70448945,1031233.75156979,5,1,88,0,16
5,329,620.876863365993,0,0,1031235.50459192,1031236.55160451,5,0,98,0,16
5,330,520.752366865054,0,0,1031238.19868193,1031239.24575264,5,0,62,8,4
5,331,553.216509753838,0,0,1031240.92812713,1031241.97519669,5,0,73,4,4
5,332,469.15951394476,0,0,1031243.57521532,1031244.62229181,5,0,66,16,8
5,333,560.518064303324,0,0,1031246.29289381,1031247.33996953,5,0,62,16,4
5,334,679.279675707221,1,0,1031249.03410457,1031250.08117259,5,1,82,0,4
5,335,988.824474741705,0,0,1031251.77531418,1031252.82238759,5,0,100,16,0
5,336,666.245282627642,0,0,1031254.95182648,1031255.9988972,5,0,81,8,16
5,337,680.567755131051,0,0,1031257.82251886,1031258.86952183,5,0,90,0,0
5,338,571.069074328989,1,0,1031260.58718414,1031261.63425601,5,1,74,8,16
5,339,477.183255250566,1,0,1031263.23427927,1031264.29311477,5,1,81,4,4
5,340,628.342026262544,1,0,1031265.85783826,1031266.90490859,5,1,73,8,8
5,341,698.654375853948,0,0,1031268.63434802,1031269.68141373,5,0,70,0,4
5,342,644.213196821511,1,0,1031271.51672435,1031272.56380354,5,1,98,4,8
5,343,836.919264518656,1,0,1031274.29323835,1031275.34030444,5,1,62,0,0
5,344,570.940882316791,1,0,1031277.35209965,1031278.39919385,5,1,68,8,8
5,345,540.656388504431,1,0,1031279.99918592,1031281.04628243,5,1,95,0,8
5,346,644.129275344312,1,0,1031282.7168644,1031283.7639355,5,1,66,0,8
5,347,804.344637785107,0,0,1031285.4345502,1031286.48161861,5,0,98,4,16
5,348,660.667968099006,1,0,1031288.44634964,1031289.49341843,5,1,96,8,0
5,349,905.309119028971,0,0,1031291.18755193,1031292.23462919,5,0,72,8,0
5,350,865.652365726419,1,0,1031294.30523989,1031295.35231061,5,1,91,8,16
5,351,530.349828768522,0,0,1031297.34057084,1031298.38764617,5,0,90,0,0
5,352,632.635110872798,0,0,1031300.05825433,1031301.10532042,5,0,65,4,0
5,353,650.69747925736,1,0,1031302.8229939,1031303.87006962,5,1,83,0,8
5,354,909.664952312596,1,0,1031305.71714504,1031306.76421383,5,1,96,0,8
5,355,612.922030035406,1,0,1031308.78776959,1031309.83487611,5,1,93,4,0
5,356,558.929330436513,0,0,1031311.58784974,1031312.63488196,5,0,63,16,16
5,357,858.082493301481,0,0,1031314.30548318,1031315.3525566,5,0,94,4,0
5,358,1443.04843095597,0,0,1031317.23492331,1031318.28180188,5,0,74,16,8
5,359,961.862963973545,1,0,1031320.7996799,1031321.84675369,5,1,99,16,8
5,360,861.750016338192,1,0,1031323.9408959,1031324.98799125,5,1,91,16,4
5,361,904.708964866586,1,0,1031327.05858193,1031328.1057023,5,1,90,4,8
5,362,614.481121883728,1,0,1031330.14096973,1031331.18804353,5,1,88,4,8
5,363,963.059037690982,0,0,1031332.823355,1031333.87042456,5,0,63,4,16
5,364,860.100843710825,1,0,1031336.02344077,1031337.0704572,5,1,91,4,8
5,365,873.452059691772,0,0,1031339.10578892,1031340.15286041,5,0,67,16,8
5,366,762.144832406193,0,0,1031342.08229398,1031343.12935585,5,0,96,8,8
5,367,671.94424464833,1,0,1031345.035271,1031346.08233979,5,1,83,0,8
5,368,676.571860327385,1,0,1031347.87058971,1031348.91766312,5,1,100,16,0
5,369,1054.42297738045,0,0,1031350.764747,1031351.81182272,5,0,70,8,16
5,370,751.526839099824,0,0,1031354.07066624,1031355.11774196,5,0,95,8,4
5,371,655.672714696266,1,0,1031356.92951953,1031357.97660757,5,1,76,16,4
5,372,1175.62023678329,0,0,1031359.82368606,1031360.87075601,5,0,71,4,16
5,373,706.511044176295,0,0,1031363.22372787,1031364.27079512,5,0,79,16,16
5,374,577.916759997606,1,0,1031366.09434557,1031367.14141552,5,1,98,16,0
5,375,759.855084586889,0,0,1031368.80029776,1031369.84733576,5,0,69,4,16
5,376,1185.37168297917,1,0,1031371.72970477,1031372.77677896,5,1,90,8,4
5,377,1051.62277142517,0,0,1031375.15328848,1031376.20035497,5,0,68,8,8
5,378,912.886690581217,1,0,1031378.27094872,1031379.31803214,5,1,66,8,0
5,379,1008.91443248838,0,0,1031381.37688305,1031382.42395608,5,0,98,16,16
5,380,741.190252359957,1,0,1031384.5298673,1031385.57693571,5,1,85,8,0
5,381,1029.37703230418,0,0,1031387.44754648,1031388.4946095,5,0,67,8,4
5,382,763.085292070173,1,0,1031390.63581742,1031391.68288967,5,1,62,4,4
5,383,704.002253594808,0,0,1031393.53003399,1031394.5770435,5,0,87,0,16
5,384,786.828529206105,0,0,1031396.48293787,1031397.53002822,5,0,82,0,4
5,385,1151.80077741388,1,0,1031399.4829883,1031400.53006556,5,1,82,16,4
5,386,706.066029262729,1,0,1031402.75361624,1031403.80068503,5,1,65,8,16
5,387,931.448353338055,1,0,1031405.62424087,1031406.67131005,5,1,92,16,16
5,388,1643.42364191543,0,0,1031408.73016211,1031409.77725477,5,0,82,16,0
5,389,811.693542636931,0,0,1031412.58901925,1031413.6361019,5,0,65,0,4
5,390,1003.48263327032,0,0,1031415.54199511,1031416.5890974,5,0,65,0,16
5,391,935.337613918819,0,0,1031418.63615195,1031419.6832319,5,0,88,8,4
5,392,1066.30710733589,1,0,1031421.73031186,1031422.77738026,5,1,71,8,0
5,393,959.392284508795,0,0,1031425.03623956,1031426.08330412,5,0,87,0,0
5,394,928.545362665318,0,0,1031428.04804208,1031429.0951128,5,0,83,16,0
5,395,1002.70231743343,1,0,1031431.07166598,1031432.11867972,5,1,88,4,4
5,396,1502.11332715116,1,0,1031434.28340914,1031435.33047139,5,1,72,4,16
5,397,948.841659352183,1,0,1031437.88345125,1031438.93051312,5,1,80,4,4
5,398,1026.26693272032,1,0,1031440.95408004,1031442.00114729,5,1,98,16,16
5,399,693.254528567195,0,0,1031444.15411653,1031445.20118148,5,0,99,0,16
5,400,774.753458797932,0,0,1031446.93061898,1031447.97768739,5,0,97,16,4
5,401,714.832745259628,0,0,1031474.81331522,1031475.86037939,6,0,66,8,0
5,402,531.187118729576,0,0,1031477.68393561,1031478.73100325,6,0,70,8,8
5,403,607.165323919617,0,0,1031480.44867442,1031481.49573744,6,0,91,4,4
5,404,617.14659165591,1,0,1031483.18988634,1031484.23696514,6,1,73,16,0
5,405,755.746396258473,0,0,1031485.91932422,1031486.9663961,6,0,82,16,8
5,406,676.805531606078,1,0,1031488.78994424,1031489.83700956,6,1,90,0,8
5,407,571.122198947705,0,0,1031491.64880407,1031492.69588056,6,0,77,8,0
5,408,563.300562207587,0,0,1031494.31942686,1031495.36649834,6,0,89,0,4
5,409,603.26258954592,0,0,1031497.0135773,1031498.06064763,6,0,75,16,0
5,410,613.967583980411,0,0,1031499.7547896,1031500.8018607,6,0,62,16,4
5,411,579.238715930842,0,0,1031502.56658681,1031503.61366137,6,0,80,4,16
5,412,802.056814893149,1,0,1031505.31957006,1031506.36662499,6,1,84,16,4
5,413,584.542708005756,1,0,1031508.34312313,1031509.39020039,6,1,82,8,8
5,414,1071.8582442496,0,0,1031511.15492957,1031512.20199066,6,0,88,8,0
5,415,1168.89804846141,1,0,1031514.36672585,1031515.41379773,6,1,80,4,4
5,416,509.277065633796,1,0,1031517.74323923,1031518.79030764,6,1,66,0,4
5,417,650.86878684815,1,0,1031520.37856379,1031521.42563912,6,1,83,16,16
5,418,596.832586685196,1,0,1031523.27277536,1031524.31979449,6,1,62,16,4
5,419,651.219871244393,1,0,1031526.09628731,1031527.14337651,6,1,81,16,16
5,420,779.25249747932,1,0,1031528.89631203,1031529.94338582,6,1,70,16,8
5,421,711.577900336124,1,0,1031531.87282402,1031532.91989089,6,1,100,16,16
5,422,628.976826905273,1,0,1031534.74344095,1031535.79051282,6,1,96,8,8
5,423,804.331549210474,1,0,1031537.50818707,1031538.5552574,6,1,76,4,16
5,424,1517.94022717513,0,0,1031540.55527396,1031541.6023516,6,0,86,0,0
5,425,724.769742577337,1,0,1031544.23767231,1031545.28474611,6,1,81,0,8
5,426,1210.27711732313,0,0,1031547.01417899,1031548.06125394,6,0,89,16,8
5,427,649.174958700314,0,0,1031550.47304168,1031551.52011239,6,0,73,16,8
5,428,642.213324550539,0,0,1031553.32015982,1031554.36720321,6,0,73,0,0
5,429,707.207053666934,0,0,1031556.13194124,1031557.17900619,6,0,91,4,8
5,430,661.407093168236,1,0,1031558.8966762,1031559.94373383,6,1,75,0,16
5,431,614.399510202929,1,0,1031561.79082503,1031562.83789921,6,1,94,16,16
5,432,979.098821058869,1,0,1031564.63791969,1031565.68499464,6,1,70,4,4
5,433,615.667956648394,0,0,1031567.72030826,1031568.76739784,6,0,78,0,16
5,434,637.102197972126,1,0,1031570.43799445,1031571.485059,6,1,99,0,16
5,435,699.186776997522,0,0,1031573.29685698,1031574.34391884,6,0,100,8,4
5,436,631.728142965585,0,0,1031576.08511459,1031577.1322419,6,0,62,0,4
5,437,716.848400887102,0,0,1031578.93221118,1031579.97929344,6,0,71,8,16
5,438,703.808233258314,1,0,1031581.77931931,1031582.82637887,6,1,87,0,8
5,439,786.574839963578,1,0,1031584.72051653,1031585.76758493,6,1,81,0,16
5,440,676.526434952393,1,0,1031587.67348816,1031588.72056657,6,1,82,4,0
5,441,610.944100655615,1,0,1031590.60294906,1031591.65008368,6,1,73,4,0
5,442,552.852336782962,0,0,1031593.40297493,1031594.45006105,6,0,72,0,4
5,443,627.685667830519,1,0,1031596.09714039,1031597.14420187,6,1,72,4,0
5,444,893.611695384607,0,0,1031598.83834037,1031599.88540223,6,0,88,16,0
5,445,1690.92705461662,0,0,1031601.92072779,1031602.96779851,6,0,61,8,16
5,446,716.231693397276,0,0,1031605.82665796,1031606.87372598,6,0,87,16,4
5,447,1018.11230462044,1,0,1031608.68551164,1031609.73258505,6,1,78,8,4
5,448,1063.11924546026,1,0,1031611.8855516,1031612.93262347,6,1,85,4,8
5,449,1198.66207509767,1,0,1031615.16798514,1031616.21501197,6,1,81,4,0
5,450,883.945710607804,0,0,1031618.53268637,1031619.57980675,6,0,79,8,8
5,451,1314.47989004664,1,0,1031621.50920491,1031622.55627871,6,1,92,8,16
5,452,885.514041525312,0,0,1031624.96806644,1031626.01513369,6,0,72,4,4
5,453,848.655184265226,0,0,1031628.08572937,1031629.13283551,6,0,89,0,0
5,454,1501.55705853831,1,0,1031631.07401424,1031632.12108804,6,1,88,4,8
5,455,1389.08955885563,1,0,1031634.75641837,1031635.80348947,6,1,61,4,8
5,456,844.742441200651,0,0,1031638.25064665,1031639.29765385,6,0,92,8,0
5,457,2500,-1,-1,1031641.34472726,1031642.39180414,6,1,61,16,4
5,458,721.978775574826,1,0,1031646.56835455,1031647.61539639,6,1,69,8,4
5,459,672.699152957648,0,0,1031649.46252647,1031650.50955022,6,0,62,8,4
5,460,542.956915218383,0,0,1031652.21544582,1031653.26252578,6,0,80,8,16
5,461,638.768308912404,1,0,1031654.96842099,1031656.01549979,6,1,72,8,8
5,462,675.598294124939,1,0,1031657.81552605,1031658.86258868,6,1,71,16,0
5,463,819.812369300053,0,0,1031660.62731786,1031661.6743905,6,0,90,8,4
5,464,743.410707102157,0,0,1031663.60382139,1031664.65089287,6,0,93,4,16
5,465,582.401170162484,0,0,1031666.46268353,1031667.5097504,6,0,95,0,16
5,466,506.063411594369,1,0,1031669.14505994,1031670.1921399,6,1,93,4,16
5,467,498.123591765761,1,0,1031671.80392332,1031672.85099404,6,1,74,8,0
5,468,694.319330621511,0,0,1031674.52160681,1031675.56867252,6,0,99,0,0
5,469,699.465103796683,1,0,1031677.2745789,1031678.32163923,6,1,81,0,4
5,470,576.074721640907,0,0,1031680.06284306,1031681.10991763,6,0,86,4,8
5,471,575.956923654303,0,0,1031682.86287663,1031683.90995081,6,0,80,4,16
5,472,693.223731592298,0,0,1031685.52173308,1031686.56879764,6,0,70,16,8
5,473,612.649862654507,0,0,1031688.29826324,1031689.34530355,6,0,100,0,0
5,474,418.354291236028,0,0,1031691.02768573,1031692.07475067,6,0,66,4,0
5,475,693.905112566426,1,0,1031693.61594689,1031694.66306418,6,1,67,4,4
5,476,552.619820227847,1,0,1031696.5101931,1031697.55718067,6,1,85,0,8
5,477,940.173493465409,0,0,1031699.13366009,1031700.18073389,6,0,89,16,0
5,478,534.188659396023,1,0,1031702.14545684,1031703.19253679,6,1,85,0,8
5,479,742.385171237402,0,0,1031704.89844009,1031705.94550811,6,0,84,16,16
5,480,702.831972273998,1,0,1031707.82788753,1031708.87496094,6,1,69,8,16
5,481,1006.79098779801,1,0,1031743.75773301,1031744.8048045,7,1,78,4,4
5,482,2100.15710955486,1,0,1031746.93423761,1031747.98130833,7,1,74,0,0
5,483,1080.62034077011,0,0,1031751.15783718,1031752.20491021,7,0,77,16,4
5,484,591.980923665687,1,0,1031754.33433947,1031755.38140249,7,1,82,16,4
5,485,586.848624167033,0,0,1031757.08730117,1031758.13437612,7,0,69,8,8
5,486,991.580025292933,0,1,1031759.92261179,1031760.96970484,7,1,93,0,16
5,487,682.104134233668,0,0,1031763.15803813,1031764.20506573,7,0,62,4,4
5,488,590.534240473062,0,0,1031766.07564263,1031767.1227145,7,0,70,16,16
5,489,611.197789898142,1,0,1031768.81693,1031769.86394451,7,1,68,4,0
5,490,748.301251209341,1,0,1031771.51100306,1031772.55807262,7,1,72,4,0
5,491,576.585949864239,1,0,1031774.38162461,1031775.42869648,7,1,70,0,4
5,492,701.736373477615,1,0,1031777.05226087,1031778.09932504,7,1,80,0,0
5,493,615.216397331096,1,0,1031779.875799,1031780.92288357,7,1,80,0,16
5,494,768.888963502832,1,0,1031782.61701438,1031783.6640901,7,1,87,4,8
5,495,634.396307403222,0,0,1031785.49939572,1031786.54649762,7,0,69,4,8
5,496,744.344237493351,1,0,1031788.28767528,1031789.33474407,7,1,76,0,4
5,497,1047.13335656561,0,0,1031791.18182141,1031792.22891676,7,0,67,0,8
5,498,833.781447727233,0,0,1031794.42892746,1031795.47605631,7,0,90,8,16
5,499,769.715089700185,1,0,1031797.37014585,1031798.4172104,7,1,79,16,4
5,500,753.733435296454,1,0,1031800.38193913,1031801.42902255,7,1,93,0,0
5,501,558.490859926678,1,0,1031803.37020359,1031804.41727931,7,1,86,4,8
5,502,618.610598146915,0,0,1031806.07612498,1031807.12319878,7,0,83,16,0
5,503,850.763230584562,1,0,1031808.84092847,1031809.88793104,7,1,70,8,4
5,504,701.469980296679,1,0,1031811.87619166,1031812.92326661,7,1,72,8,0
5,505,734.494626289234,0,0,1031814.78211451,1031815.82918331,7,0,93,16,8
5,506,564.077798393555,0,0,1031817.71155233,1031818.75862997,7,0,83,0,4
5,507,685.859043500386,1,0,1031820.49991888,1031821.54690606,7,1,93,4,4
5,508,663.013150217012,0,0,1031823.31163294,1031824.35869711,7,0,67,4,16
5,509,780.362339806743,1,0,1031826.18224987,1031827.22932097,7,1,80,0,4
5,510,815.177439246327,0,0,1031829.12345747,1031830.17053012,7,0,85,16,16
5,511,542.009141296148,0,0,1031832.02937917,1031833.07644643,7,0,67,8,4
5,512,505.754287936725,0,0,1031834.81768914,1031835.86471982,7,0,67,8,16
5,513,875.097767799161,0,0,1031837.53533568,1031838.58239407,7,0,79,8,0
5,514,847.163845552132,1,0,1031840.53544385,1031841.58244335,7,1,99,16,8
5,515,728.35526894778,0,0,1031843.54716129,1031844.59423085,7,0,81,4,4
5,516,809.188601677306,0,0,1031846.45307645,1031847.50015024,7,0,100,16,0
5,517,845.086596207693,1,0,1031849.34722797,1031850.39429984,7,1,62,0,8
5,518,727.988401195034,1,0,1031852.39433102,1031853.44139712,7,1,61,0,16
5,519,598.820525105111,1,0,1031855.33559945,1031856.38260819,7,1,63,0,8
5,520,892.23622973077,0,0,1031858.01792274,1031859.06499769,7,0,70,4,0
5,521,679.649623227306,1,0,1031861.02972371,1031862.0767979,7,1,68,4,8
5,522,671.342550660484,1,0,1031863.87681761,1031864.92388293,7,1,61,16,4
5,523,561.136696604081,0,0,1031866.6180249,1031867.665091,7,0,84,0,0
5,524,579.588645370677,1,0,1031869.34747357,1031870.39454544,7,1,91,4,0
5,525,535.683077876456,0,0,1031872.14752215,1031873.19457362,7,0,77,8,4
5,526,613.063695724122,0,0,1031874.81812877,1031875.86519294,7,0,66,8,8
5,527,777.731901616789,0,0,1031877.60637945,1031878.65345941,7,0,69,8,16
5,528,739.1903802054,1,0,1031880.44171971,1031881.48878774,7,1,89,16,8
5,529,559.431704459712,0,0,1031883.25352308,1031884.30060188,7,0,94,0,8
5,530,540.17942189239,0,0,1031886.04178839,1031887.0888618,7,0,67,8,0
5,531,719.020350603387,1,0,1031888.68887812,1031889.73595231,7,1,97,8,0
5,532,839.214786654338,1,0,1031891.65361686,1031892.70069527,7,1,72,0,0
5,533,561.301074922085,1,0,1031894.70071644,1031895.74778293,7,1,93,16,8
5,534,589.682706748135,0,0,1031897.43016242,1031898.4772366,7,0,85,8,4
5,535,583.548738854006,0,0,1031900.12431478,1031901.17138242,7,0,73,4,8
5,536,521.99810068123,0,0,1031902.79499492,1031903.84200251,7,0,74,0,16
5,537,627.148262341507,0,0,1031905.40672792,1031906.45378439,7,0,62,8,16
5,538,919.64121570345,0,0,1031908.19500131,1031909.2420778,7,0,97,4,16
5,539,826.512999716215,0,0,1031911.18326809,1031912.23033765,7,0,93,8,8
5,540,602.826813817956,1,0,1031914.10101386,1031915.14801798,7,1,89,16,0
5,541,958.091116393916,1,0,1031916.87745433,1031917.92452543,7,1,86,16,0
5,542,765.119040734135,0,0,1031920.07749698,1031921.1245627,7,0,63,0,4
5,543,594.120151712559,1,0,1031922.93641264,1031923.98342138,7,1,67,8,8
5,544,516.602872754447,1,0,1031925.60697037,1031926.65403993,7,1,67,8,0
5,545,730.837497278117,1,0,1031928.26588071,1031929.31289368,7,1,80,4,4
5,546,742.461778456345,0,0,1031931.14821123,1031932.19528041,7,0,98,16,16
5,547,626.40721257776,1,0,1031933.99530705,1031935.04238123,7,1,80,4,16
5,548,599.379873252474,0,0,1031936.85416342,1031937.9012376,7,0,71,0,16
5,549,696.18793099653,0,0,1031939.60714321,1031940.65422432,7,0,91,8,8
5,550,604.23731082119,0,0,1031942.40717832,1031943.45423787,7,0,95,4,0
5,551,628.986835828982,0,0,1031945.14838331,1031946.19545865,7,0,91,4,16
5,552,681.490121525712,1,0,1031948.01900717,1031949.06607519,7,1,83,8,4
5,553,475.942526129074,1,0,1031950.85433204,1031951.9013989,7,1,85,8,16
5,554,682.183821103536,0,0,1031953.41906938,1031954.4661451,7,0,83,16,8
5,555,845.112003618851,0,0,1031956.2661652,1031957.31323437,7,0,80,0,8
5,556,1041.34046414401,1,0,1031959.23090431,1031960.27796925,7,1,84,16,16
5,557,706.054865382612,0,0,1031962.51329974,1031963.56035891,7,0,81,16,16
5,558,671.454189228825,1,0,1031965.28979526,1031966.33687444,7,1,76,16,0
5,559,614.874552004039,0,0,1031968.17219084,1031969.21926078,7,0,87,16,4
5,560,762.080928776413,1,0,1031970.87810992,1031971.92516986,7,1,63,4,16
5,561,582.396165584214,1,0,1032006.84324593,1032007.89031164,8,1,63,0,16
5,562,672.08090564236,1,0,1032009.52562927,1032010.57269883,8,1,76,8,8
5,563,756.811198196374,1,0,1032012.31394116,1032013.36097146,8,1,65,4,8
5,564,522.200975101441,1,0,1032015.13746197,1032016.18453384,8,1,72,0,0
5,565,1434.65353827924,0,0,1032017.81987995,1032018.866978,8,0,72,0,0
5,566,688.785901642405,0,0,1032021.37284365,1032022.41990359,8,0,68,4,0
5,567,604.532575816847,0,0,1032024.16109896,1032025.20817275,8,0,67,8,16
5,568,616.589553072117,1,0,1032026.9611179,1032028.00820748,8,1,98,8,4
5,569,639.040091424249,1,0,1032029.74940015,1032030.79648049,8,1,85,8,4
5,570,855.444355867803,0,0,1032032.57300334,1032033.62003748,8,0,89,16,16
5,571,1878.15281795338,0,0,1032035.56123623,1032036.60830195,8,0,62,16,4
5,572,641.167000634596,1,0,1032039.56128281,1032040.60835392,8,1,96,8,0
5,573,696.159058948979,0,0,1032042.45543087,1032043.50250736,8,0,83,4,8
5,574,517.341997823678,0,0,1032045.37312121,1032046.420185,8,0,88,0,8
5,575,593.859533197246,0,0,1032048.008445,1032049.05556383,8,0,69,16,16
5,576,617.645886028185,0,0,1032050.84377333,1032051.89084443,8,0,85,8,8
5,577,563.705156091601,1,0,1032053.54968471,1032054.59675312,8,1,94,4,0
5,578,745.894860243425,1,0,1032056.20854693,1032057.25560071,8,1,73,8,4
5,579,917.550877551548,0,0,1032059.14975339,1032060.19682487,8,0,100,4,16
5,580,716.776798130013,0,0,1032062.16156129,1032063.2086247,8,0,73,0,16
5,581,864.026675466448,1,0,1032065.12629579,1032066.17339884,8,1,90,0,4
5,582,584.811795735732,1,0,1032068.17338961,1032069.22049381,8,1,96,16,8
5,583,857.79646737501,0,0,1032070.97347399,1032072.02049274,8,0,98,16,0
5,584,1007.0677746553,0,0,1032073.94992978,1032074.9969951,8,0,63,8,4
5,585,614.467263338156,0,0,1032077.17350124,1032078.22057273,8,0,77,16,8
5,586,871.085319668055,0,0,1032079.99705862,1032081.04413511,8,0,99,8,16
5,587,800.097748637199,0,0,1032083.00886845,1032084.0559384,8,0,83,16,8
5,588,722.741768229753,1,0,1032085.93833167,1032086.98538276,8,1,83,4,4
5,589,855.490936199203,0,0,1032088.78539977,1032089.83247588,8,0,88,8,16
5,590,689.421472256072,1,0,1032091.72660815,1032092.7736831,8,1,95,8,16
5,591,647.727120434865,1,0,1032094.55018439,1032095.59724895,8,1,79,0,8
5,592,852.768877171911,0,0,1032097.35020833,1032098.39728482,8,0,89,4,8
5,593,654.747268534265,1,0,1032100.36204781,1032101.40908773,8,1,100,0,4
5,594,918.00821130164,1,0,1032103.22087877,1032104.26800493,8,1,84,16,4
5,595,564.353430294432,1,0,1032106.35032459,1032107.39738645,8,1,87,16,0
5,596,916.388295474462,1,0,1032108.99740239,1032110.04448889,8,1,90,16,4
5,597,639.948984258808,1,0,1032112.03274489,1032113.07980675,8,1,82,16,4
5,598,728.255948983133,0,0,1032114.89159895,1032115.93866697,8,0,63,16,16
5,599,976.86296782922,1,0,1032117.83289048,1032118.87989152,8,1,79,4,16
5,600,790.26854026597,1,0,1032121.00931655,1032122.05638188,8,1,94,16,16
5,601,761.609736713581,1,0,1032124.032957,1032125.07995111,8,1,90,4,8
5,602,1478.47941878717,0,0,1032126.97409378,1032128.02116141,8,0,98,4,8
5,603,998.949332977645,1,0,1032130.64476506,1032131.69180267,8,1,77,0,8
5,604,625.585320871323,1,0,1032133.73888109,1032134.78595719,8,1,80,4,0
5,605,561.309159151278,1,0,1032136.52714871,1032137.57422251,8,1,89,0,4
5,606,774.542500148527,0,0,1032139.24483412,1032140.29189599,8,0,71,16,0
5,607,616.146078100428,0,0,1032142.1742831,1032143.22135228,8,0,97,8,0
5,608,721.849428722635,1,0,1032145.00961374,1032146.05672565,8,1,78,0,16
5,609,1202.75305525865,0,0,1032147.96258383,1032149.0096557,8,0,83,8,0
5,610,633.277995628305,0,0,1032151.39791501,1032152.44498842,8,0,73,8,0
5,611,560.971933300607,1,0,1032154.23324757,1032155.28031598,8,1,84,16,8
5,612,678.656808915548,0,0,1032157.02151481,1032158.0685809,8,0,63,8,8
5,613,573.781894287094,1,0,1032159.92743304,1032160.97450414,8,1,62,4,16
5,614,560.926892911084,0,0,1032162.73922909,1032163.78630173,8,0,78,4,4
5,615,609.359601279721,0,0,1032165.51573847,1032166.56280187,8,0,95,0,8
5,616,702.470493852161,0,0,1032168.36283005,1032169.40989576,8,0,80,0,16
5,617,893.134343670681,1,0,1032171.20991855,1032172.25699466,8,1,93,4,4
5,618,789.047444239259,0,0,1032174.30407076,1032175.35114764,8,0,68,4,16
5,619,704.260947415605,0,0,1032177.22176072,1032178.26882836,8,0,88,0,0
5,620,611.421067267656,0,0,1032179.98653571,1032181.03359334,8,0,73,0,0
5,621,701.615495607257,1,0,1032182.75123949,1032183.79835756,8,1,67,4,0
5,622,779.394548037089,0,0,1032185.53950557,1032186.58662402,8,0,70,16,8
5,623,617.417989065871,0,0,1032188.49249068,1032189.53954792,8,0,72,8,16
5,624,793.288559070788,1,0,1032191.29251731,1032192.33958264,8,1,90,4,0
5,625,903.540223487653,1,0,1032194.24547432,1032195.29257044,8,1,63,16,16
5,626,665.016102138907,1,0,1032197.37494015,1032198.4220074,8,1,83,8,4
5,627,871.771705104038,0,0,1032200.11619596,1032201.16322279,8,0,94,0,4
5,628,617.794095887803,0,0,1032203.1161794,1032204.16325782,8,0,85,16,0
5,629,752.604344859719,0,0,1032205.96327714,1032207.01035017,8,0,100,0,0
5,630,654.612532234751,1,0,1032208.92802396,1032209.97508621,8,1,80,16,0
5,631,684.915504185483,0,1,1032211.69274737,1032212.7398254,8,1,91,0,4
5,632,615.780365187675,1,0,1032214.5869447,1032215.63404275,8,1,61,4,16
5,633,842.257903073914,1,0,1032217.26929916,1032218.31637142,8,1,98,8,8
5,634,821.285614860244,1,0,1032220.31644379,1032221.36346177,8,1,99,4,4
5,635,721.751263714395,1,0,1032223.38701753,1032224.43408517,8,1,99,4,4
5,636,661.119912285358,0,0,1032226.21058145,1032227.25765679,8,0,86,0,8
5,637,725.576620665379,0,0,1032228.98708274,1032230.03415192,8,0,63,0,16
5,638,724.263518932275,0,0,1032231.92829651,1032232.97536222,8,0,100,8,8
5,639,880.90143923182,0,0,1032234.81072712,1032235.85776165,8,0,61,16,4
5,640,575.321353040636,1,0,1032237.83428096,1032238.88133474,8,1,64,8,0
5,641,1480.85732269101,1,0,1032273.5523625,1032274.59945708,9,1,95,0,0
5,642,1215.13647946995,0,0,1032277.17590148,1032278.22297142,9,0,84,4,8
5,643,609.356136643328,0,0,1032280.58770538,1032281.63477071,9,0,88,16,4
5,644,560.189692652784,1,0,1032283.38773933,1032284.43480735,9,1,76,16,8
5,645,587.768680881709,0,0,1032286.07012729,1032287.11722342,9,0,98,16,8
5,646,593.024167814292,1,1,1032288.88192411,1032289.92899714,9,0,81,4,0
5,647,638.377188704908,1,0,1032291.70548303,1032292.75257569,9,1,80,0,8
5,648,769.121864810586,1,0,1032294.49375412,1032295.54082098,9,1,91,16,16
5,649,596.494205994532,1,0,1032297.36436951,1032298.41144561,9,1,81,0,16
5,650,722.234774613753,0,0,1032300.15264945,1032301.19970977,9,0,89,8,4
5,651,619.183804956265,0,0,1032303.10562069,1032304.15269526,9,0,70,0,16
5,652,562.760076951236,0,0,1032305.94100908,1032306.98802089,9,0,84,8,16
5,653,590.692074270919,0,0,1032308.72922357,1032309.77629006,9,0,70,16,4
5,654,704.521180945449,1,0,1032311.48218296,1032312.52929179,9,1,80,16,8
5,655,653.325992636383,1,0,1032314.27046021,1032315.31753131,9,1,68,8,8
5,656,700.593424262479,1,0,1032317.14108368,1032318.18814939,9,1,97,16,4
5,657,623.006852343678,1,0,1032320.05876363,1032321.10587207,9,1,92,16,0
5,658,741.62679805886,0,0,1032322.94115536,1032323.98822531,9,0,62,4,4
5,659,486.939320922829,0,0,1032325.81176575,1032326.85884801,9,0,66,4,0
5,660,514.3828028813,1,0,1032328.43533937,1032329.48240431,9,1,66,4,16
5,661,666.435068240389,1,0,1032331.1530167,1032332.20008665,9,1,90,0,0
5,662,669.04279391747,0,0,1032333.97658024,1032335.02365442,9,0,100,0,8
5,663,502.618395956233,1,0,1032336.70601774,1032337.75309154,9,1,88,0,16
5,664,665.840303641744,0,0,1032339.32958405,1032340.37669172,9,0,61,8,16
5,665,625.825151568279,0,0,1032342.12961954,1032343.17669257,9,0,98,4,16
5,666,695.035742828622,1,0,1032344.98848092,1032346.03554856,9,1,83,16,16
5,667,575.601604650728,1,0,1032347.92969584,1032348.97675732,9,1,89,0,8
5,668,834.806213737465,0,0,1032350.72972479,1032351.7767855,9,0,81,8,16
5,669,727.859439211898,0,0,1032353.74156504,1032354.78860072,9,0,93,0,4
5,670,681.982101756148,1,0,1032356.55331759,1032357.60038753,9,1,69,4,16
5,671,885.141784208827,0,0,1032359.36511749,1032360.41219167,9,0,62,4,4
5,672,580.449803033844,1,0,1032362.43574281,1032363.48281853,9,1,76,0,8
5,673,920.678300550208,0,0,1032365.15344401,1032366.20049894,9,0,91,8,0
5,674,714.556728256866,0,0,1032368.24757659,1032369.29465154,9,0,65,8,8
5,675,713.499625446275,0,0,1032371.04761401,1032372.0946828,9,0,81,4,0
5,676,806.546999607235,1,0,1032373.94176668,1032374.98883663,9,1,69,16,8
5,677,756.227597361431,0,0,1032376.93003499,1032377.97710917,9,0,98,8,4
5,678,735.702633857727,0,0,1032379.91830369,1032380.96537556,9,0,82,8,16
5,679,630.948981968686,0,0,1032382.83599134,1032383.88305436,9,0,92,4,16
5,680,727.430207771249,0,0,1032385.61249417,1032386.65956142,9,0,99,4,0
5,681,614.375642617233,1,0,1032388.45958806,1032389.50665108,9,1,75,16,0
5,682,580.524485441856,1,0,1032391.27138758,1032392.31845714,9,1,79,0,0
5,683,705.930522992276,0,0,1032394.09494303,1032395.14200913,9,0,96,0,0
5,684,707.112353178672,1,0,1032397.0479212,1032398.09499346,9,1,78,8,16
5,685,717.908968334086,0,0,1032399.98913997,1032401.03620261,9,0,75,8,8
5,686,543.035062262788,1,0,1032402.90682108,1032403.95388487,9,1,65,4,8
5,687,742.755118641071,0,0,1032405.68332044,1032406.73039501,9,0,96,16,16
5,688,718.21308741346,1,0,1032408.51865339,1032409.56571718,9,1,68,4,8
5,689,679.10374852363,0,0,1032411.41280376,1032412.45987255,9,0,64,16,0
5,690,661.690039443783,0,0,1032414.29519395,1032415.34225158,9,0,84,4,4
5,691,546.369209187105,0,0,1032417.14228668,1032418.18935009,9,0,64,16,16
5,692,539.189302246086,0,0,1032419.78937565,1032420.8364429,9,0,74,8,8
5,693,866.302564740181,1,0,1032422.43646577,1032423.48352994,9,1,90,4,8
5,694,734.43534236867,1,0,1032425.35414494,1032426.40121451,9,1,93,8,0
5,695,553.372803959064,1,0,1032428.30712235,1032429.35419422,9,1,65,4,16
5,696,606.101676705293,1,0,1032431.03656601,1032432.0836425,9,1,88,8,8
5,697,1073.84002336767,1,0,1032433.8248856,1032434.87190473,9,1,88,4,4
5,698,559.261936694384,1,0,1032437.10722406,1032438.15429824,9,1,77,0,4
5,699,635.285567143001,1,0,1032439.86019923,1032440.9072711,9,1,85,16,4
5,700,550.737361190841,1,0,1032442.68376777,1032443.73084233,9,1,83,0,4
5,701,744.463190436363,0,0,1032445.4720427,1032446.51910457,9,0,77,8,4
5,702,750.524400733411,1,0,1032448.43677951,1032449.48384869,9,1,62,0,8
5,703,562.10140872281,1,0,1032451.26034497,1032452.30740799,9,1,63,16,0
5,704,696.475496864878,0,0,1032453.93096429,1032454.97803039,9,0,77,4,8
5,705,718.265442177653,0,0,1032456.68393215,1032457.73100902,9,0,97,4,4
5,706,766.217334312387,1,0,1032459.62514514,1032460.67221393,9,1,61,8,0
5,707,594.303778139874,0,0,1032462.53106954,1032463.57813217,9,0,75,8,4
5,708,774.853933486156,1,0,1032465.31933293,1032466.36645407,9,1,89,16,4
5,709,707.85802253522,1,0,1032468.27230378,1032469.31942224,9,1,61,0,16
5,710,846.391228958964,1,0,1032471.2017593,1032472.24882848,9,1,89,8,4
5,711,576.676030643284,0,0,1032474.21362149,1032475.26062099,9,0,80,0,4
5,712,803.393399342895,1,0,1032476.89594401,1032477.94301626,9,1,78,16,0
5,713,515.493800281547,0,0,1032479.81362626,1032480.86069121,9,0,68,0,4
5,714,587.814876111224,1,0,1032482.43718372,1032483.48426752,9,1,88,0,16
5,715,570.456216577441,0,0,1032485.21369271,1032486.26076034,9,0,89,0,0
5,716,744.885877589695,0,0,1032487.84901419,1032488.89608875,9,0,80,16,8
5,717,727.025998756289,0,0,1032490.70786979,1032491.75494666,9,0,83,4,0
5,718,627.825408708304,1,0,1032493.64908894,1032494.69616775,9,1,98,8,0
5,719,813.327316893265,1,0,1032496.53147991,1032497.57854215,9,1,81,8,0
5,720,545.154657331295,0,0,1032499.47268058,1032500.51975631,9,0,77,16,16
