sub_id,Trial,RT,Resp,Error,Fix_onset,Disp_onset,block,tid,tloc,fish_setsize,bird_setsize
26,1,818.745168857276,0,0,1709302.33479574,1709303.38186838,1,0,91,8,0
26,2,646.781952818856,0,0,1709305.27601297,1709306.32308022,1,0,81,16,16
26,3,624.408021802083,0,0,1709308.02898429,1709309.07606117,1,0,100,0,4
26,4,452.371662948281,0,0,1709310.72314128,1709311.77020507,1,0,94,4,0
26,5,763.140253024176,0,0,1709313.31140051,1709314.35847353,1,0,68,16,4
26,6,487.115544499829,0,0,1709316.21731759,1709317.26439062,1,0,78,4,16
26,7,704.915292328224,0,0,1709318.91147188,1709319.9585426,1,0,90,8,4
26,8,583.473967853934,1,0,1709321.74680021,1709322.79386785,1,1,87,0,8
26,9,544.872007565573,0,0,1709324.55859741,1709325.60568584,1,0,99,8,4
26,10,615.047695813701,1,0,1709327.17039547,1709328.21747042,1,1,68,4,0
26,11,657.508119940758,1,0,1709329.95866655,1709331.0057365,1,1,83,4,0
26,12,483.733662636951,1,0,1709332.86461559,1709333.91164704,1,1,67,16,16
26,13,711.108929244801,1,0,1709335.48813993,1709336.53520911,1,1,81,0,0
26,14,678.75373060815,1,0,1709338.32347288,1709339.37055168,1,1,94,16,8
26,15,604.992900509387,0,0,1709341.19409751,1709342.24116708,1,0,84,8,4
26,16,538.500903407112,0,0,1709343.92353694,1709344.97060381,1,0,74,0,16
26,17,413.680776488036,0,0,1709346.53535501,1709347.58240648,1,0,74,16,0
26,18,507.77447456494,1,0,1709349.02948089,1709350.07655276,1,1,86,8,16
26,19,660.159346181899,1,0,1709351.66481122,1709352.71187925,1,1,99,16,16
26,20,600.801830645651,1,0,1709354.5001357,1709355.5472095,1,1,88,8,8
26,21,572.644246043637,1,0,1709357.24134531,1709358.28841564,1,1,84,4,16
26,22,419.568369397894,0,0,1709359.88843505,1709360.93551808,1,0,85,16,4
26,23,667.524034390226,0,0,1709362.4414076,1709363.48848063,1,0,80,8,8
26,24,561.43533764407,1,0,1709365.18263107,1709366.22968792,1,1,72,8,16
26,25,519.225138239563,0,0,1709367.87676765,1709368.92384106,1,0,63,0,0
26,26,765.50853275694,0,0,1709370.54740544,1709371.59445691,1,0,74,4,16
26,27,494.044456630945,1,0,1709373.47684056,1709374.52390704,1,1,71,4,4
26,28,688.435113755986,0,0,1709376.05333577,1709377.10040571,1,0,100,4,4
26,29,562.119028298184,1,0,1709378.82984591,1709379.87691239,1,1,62,16,0
26,30,459.048425778747,0,0,1709381.48869351,1709382.53576923,1,0,73,0,16
26,31,679.093651007861,1,0,1709384.04166414,1709385.08874448,1,1,85,0,0
26,32,544.093616306782,1,0,1709386.94758699,1709387.99465386,1,1,77,16,16
26,33,596.92565863952,0,0,1709389.58292271,1709390.63002384,1,0,67,4,16
26,34,518.572244560346,1,0,1709392.27706315,1709393.32413733,1,1,67,16,4
26,35,458.246167283505,1,0,1709395.05356982,1709396.10064285,1,1,76,0,16
26,36,619.019723264501,0,0,1709397.60653853,1709398.65361348,1,0,69,8,0
26,37,625.2930467017,0,0,1709400.37128042,1709401.41836653,1,0,80,16,4
26,38,581.549932947382,1,0,1709403.13601999,1709404.18308648,1,1,83,16,8
26,39,416.302360594273,0,0,1709405.81839217,1709406.86547328,1,0,65,16,0
26,40,509.952198481187,0,0,1709408.46549961,1709409.51256417,1,0,74,4,0
26,41,528.728284407407,0,0,1709411.15964543,1709412.20671538,1,0,80,0,0
26,42,688.264576019719,0,0,1709413.93615211,1709414.98321821,1,0,93,0,4
26,43,664.89436593838,1,0,1709416.81853961,1709417.8656315,1,1,93,4,8
26,44,465.750981122255,0,0,1709419.66563966,1709420.71274618,1,0,95,8,4
26,45,465.245912084356,1,0,1709422.34801491,1709423.39509064,1,1,84,4,4
26,46,681.977008702233,1,0,1709424.87745365,1709425.92458442,1,1,97,16,8
26,47,626.878701150417,0,0,1709427.7833715,1709428.83044992,1,0,84,4,4
26,48,521.593803074211,1,0,1709430.57164913,1709431.61870945,1,1,87,8,4
26,49,675.384167116135,1,0,1709433.26579418,1709434.31286721,1,1,70,16,8
26,50,558.193196542561,0,0,1709436.10112482,1709437.14818899,1,0,100,0,8
26,51,548.082196852192,1,1,1709438.9011557,1709439.94822641,1,0,93,8,16
26,52,640.36927302368,0,0,1709441.61882879,1709442.66590028,1,0,85,4,16
26,53,723.822650033981,1,0,1709444.33651459,1709445.38358954,1,1,80,8,16
26,54,669.75719272159,1,0,1709447.25419107,1709448.30133108,1,1,62,16,8
26,55,531.640514032915,0,0,1709449.9954157,1709451.04248025,1,0,89,4,8
26,56,479.145697783679,1,0,1709452.66603925,1709453.71309842,1,1,69,0,4
26,57,409.521273337305,0,0,1709455.24253099,1709456.28960402,1,0,66,4,8
26,58,451.291462406516,1,0,1709457.73667266,1709458.78374376,1,1,70,0,8
26,59,642.597042024136,1,0,1709460.40730121,1709461.45436423,1,1,78,16,0
26,60,617.005222477019,1,0,1709463.1720354,1709464.21910997,1,1,87,16,16
26,61,475.901631638408,0,0,1709465.86621394,1709466.91329082,1,0,88,4,4
26,62,592.660676222295,0,0,1709468.5603359,1709469.60740508,1,0,94,8,0
26,63,549.110427498817,1,0,1709471.39565229,1709472.44274072,1,1,89,16,0
26,64,562.333836453035,1,0,1709474.16040958,1709475.20747183,1,1,82,4,8
26,65,460.271831834689,0,0,1709476.94870915,1709477.99574792,1,0,67,0,4
26,66,690.843814285472,0,0,1709479.53694182,1709480.58402601,1,0,91,4,0
26,67,510.919605614617,1,0,1709482.33702389,1709483.38404996,1,1,82,8,0
26,68,564.608570886776,0,0,1709485.03112545,1709486.07819578,1,0,76,8,8
26,69,673.066317336634,0,0,1709487.80764367,1709488.8546963,1,0,94,0,8
26,70,604.207580210641,1,0,1709490.6194251,1709491.66649812,1,1,72,8,8
26,71,550.297647248954,1,0,1709493.27829887,1709494.32535611,1,1,75,0,0
26,72,538.246059324592,0,0,1709495.97243237,1709497.01949962,1,0,71,0,16
26,73,539.52027997002,0,0,1709498.59599291,1709499.64306093,1,0,92,0,8
26,74,473.106045043096,0,0,1709501.27837779,1709502.32544273,1,0,71,0,16
26,75,484.223717590794,1,0,1709503.92547291,1709504.97253593,1,1,75,8,16
26,76,388.224847847596,0,1,1709506.5843232,1709507.63139122,1,1,94,8,0
26,77,649.574074661359,1,0,1709509.05495453,1709510.102011,1,1,73,16,4
26,78,501.808349508792,1,0,1709511.92556492,1709512.97269992,1,1,96,8,8
26,79,544.328057439998,1,0,1709514.49030034,1709515.5373672,1,1,71,4,8
26,80,539.207306690514,1,0,1709517.19621364,1709518.24328321,1,1,95,0,4
26,81,867.470062570646,1,1,1709549.89073211,1709550.93779705,2,0,74,0,4
26,82,1299.27961807698,0,0,1709552.98488663,1709554.03195042,2,0,79,4,4
26,83,670.001643011346,0,0,1709556.43198029,1709557.47905486,2,0,74,16,8
26,84,803.577322047204,1,0,1709559.30260569,1709560.34967371,2,1,71,16,8
26,85,665.109558962286,1,0,1709562.18498549,1709563.23206737,2,1,97,0,8
26,86,711.978556122631,1,0,1709565.03208015,1709566.07919283,2,1,81,0,16
26,87,622.019338887185,1,0,1709567.98506756,1709569.03214867,2,1,68,0,8
26,88,763.888616813347,0,0,1709570.83215722,1709571.87921985,2,0,91,0,4
26,89,562.353854533285,1,0,1709573.82042245,1709574.86749586,2,1,79,4,0
26,90,736.239950638264,0,0,1709576.45575663,1709577.5028235,2,0,63,0,0
26,91,651.693669613451,0,0,1709579.43225477,1709580.4793301,2,0,83,4,16
26,92,678.315644850954,1,0,1709582.17345552,1709583.22053625,2,1,61,0,0
26,93,829.765831353143,1,0,1709584.90291651,1709585.94998953,2,1,70,4,16
26,94,670.287284068763,1,0,1709587.82059492,1709588.86766294,2,1,100,8,4
26,95,637.681475607678,0,0,1709590.59709698,1709591.64416384,2,0,77,4,4
26,96,1206.97598857805,1,0,1709593.37361597,1709594.42066667,2,1,63,16,16
26,97,1036.41249029897,1,0,1709596.644252,1709597.69129962,2,1,79,8,16
26,98,620.194623945281,0,0,1709599.78544644,1709600.83250676,2,0,88,8,4
26,99,628.319995012134,1,0,1709602.64430166,1709603.69136853,2,1,100,8,8
26,100,544.332292163745,1,0,1709605.44439913,1709606.49140325,2,1,77,0,4
26,101,643.913993611932,0,0,1709608.07966286,1709609.126769,2,0,91,8,8
26,102,698.161152424291,0,0,1709610.84439397,1709611.89146546,2,0,78,4,0
26,103,659.896802855656,1,0,1709613.69149133,1709614.73855781,2,1,76,16,8
26,104,581.542233703658,1,0,1709616.52683814,1709617.57388537,2,1,67,16,0
26,105,697.530971141532,0,0,1709619.27978982,1709620.32685977,2,0,61,8,0
26,106,471.621250733733,1,0,1709622.12688718,1709623.17395867,2,1,64,4,0
26,107,566.760502522811,1,0,1709624.79750842,1709625.84459531,2,1,91,0,16
26,108,599.612686084583,0,0,1709627.53871803,1709628.58577604,2,0,98,16,4
26,109,475.933198351413,1,0,1709630.25639151,1709631.30346993,2,1,85,8,8
26,110,483.913054224104,1,0,1709632.80936714,1709633.85643632,2,1,94,8,0
26,111,625.579842831939,1,0,1709635.39764139,1709636.44470363,2,1,99,4,8
26,112,593.108000932261,1,0,1709638.08001895,1709639.12708428,2,1,91,16,0
26,113,650.937606114894,0,0,1709640.77417016,1709641.82124127,2,0,81,0,0
26,114,661.263413960114,0,0,1709643.63302808,1709644.68008647,2,0,94,8,0
26,115,879.446968203411,0,0,1709646.5036477,1709647.55071303,2,0,91,4,0
26,116,687.090444844216,0,0,1709649.58603281,1709650.63310353,2,0,100,4,4
26,117,545.472931582481,0,0,1709652.3507697,1709653.39784041,2,0,75,16,16
26,118,622.132517397404,0,0,1709655.13904617,1709656.18611265,2,0,62,0,8
26,119,704.377501970157,1,0,1709657.91554015,1709658.96262126,2,1,63,4,8
26,120,613.934003748,0,0,1709660.84499182,1709661.89205714,2,0,75,16,4
26,121,605.973011115566,0,0,1709663.69208301,1709664.73920493,2,0,63,4,4
26,122,640.688020735979,0,0,1709666.52741327,1709667.5744836,2,0,95,4,16
26,123,573.970436584204,0,0,1709669.35097565,1709670.39804906,2,0,64,8,8
26,124,710.199651541188,0,0,1709672.00982902,1709673.05689781,2,0,76,16,0
26,125,725.994984619319,1,0,1709674.95104741,1709675.99811427,2,1,100,16,8
26,126,713.06106634438,0,0,1709677.85695871,1709678.90402096,2,0,63,16,0
26,127,674.069525673985,0,0,1709680.7746402,1709681.82170822,2,0,100,8,0
26,128,612.950043519959,1,0,1709683.65702731,1709684.70410072,2,1,84,0,0
26,129,639.968528645113,1,0,1709686.51588715,1709687.56299598,2,1,62,4,8
26,130,620.70431234315,0,0,1709689.41004637,1709690.45710515,2,0,90,0,16
26,131,565.678762504831,1,0,1709692.1041791,1709693.15126522,2,1,95,8,4
26,132,839.613902615383,1,0,1709694.90422422,1709695.95129263,2,1,63,8,16
26,133,616.965956520289,1,0,1709697.92778191,1709698.97486725,2,1,86,8,16
26,134,538.500518538058,1,0,1709700.71605761,1709701.76312602,2,1,67,8,16
26,135,513.700563460588,1,1,1709703.37492292,1709704.42197977,2,0,86,0,8
26,136,666.307172738016,1,0,1709706.10435426,1709707.15142575,2,1,68,16,16
26,137,724.332723300904,0,0,1709708.85733059,1709709.90440477,2,0,95,16,16
26,138,903.606348205358,0,0,1709711.83383796,1709712.88090867,2,0,63,4,8
26,139,584.850203245878,1,0,1709714.93986044,1709715.9868149,2,1,62,0,16
26,140,724.390467628837,1,0,1709717.72802258,1709718.7750883,2,1,73,0,4
26,141,571.194483200088,1,0,1709720.66923404,1709721.71630514,2,1,94,0,4
26,142,729.718711925671,0,0,1709723.39873814,1709724.44575111,2,0,62,8,0
26,143,672.075427602977,0,0,1709726.26930618,1709727.31636997,2,0,85,0,0
26,144,769.48979892768,0,0,1709729.1399081,1709730.18701192,2,0,91,16,0
26,145,716.420235577971,0,0,1709732.0458348,1709733.09291553,2,0,88,4,4
26,146,545.39247462526,1,0,1709734.93999595,1709735.98706859,2,1,91,4,0
26,147,741.375329904258,0,0,1709737.55178938,1709738.59886125,2,0,80,4,16
26,148,717.112010577694,1,0,1709740.38711578,1709741.4341865,2,1,94,16,4
26,149,590.394795872271,1,0,1709743.24600257,1709744.29304942,2,1,99,4,8
26,150,495.330611243844,1,0,1709745.95188701,1709746.99895888,2,1,75,0,16
26,151,565.307660028338,0,0,1709748.70487026,1709749.75192635,2,0,72,16,4
26,152,759.646732127294,0,0,1709751.37548111,1709752.42255298,2,0,92,8,8
26,153,522.556975483894,1,0,1709754.37551961,1709755.42258994,2,1,83,16,16
26,154,787.268450949341,1,0,1709757.0579041,1709758.10496981,2,1,91,4,16
26,155,542.356287594885,0,0,1709760.02264861,1709761.06971932,2,0,84,8,4
26,156,512.838250957429,1,0,1709762.79914528,1709763.84622485,2,1,93,8,4
26,157,580.511308275163,1,0,1709765.43447638,1709766.48154632,2,1,90,0,8
26,158,660.167815163732,0,0,1709768.26980124,1709769.31687119,2,0,92,16,8
26,159,932.025321060792,0,0,1709771.02277256,1709772.06985136,2,0,98,16,4
26,160,905.287087662146,0,0,1709774.03457624,1709775.08165003,2,0,90,8,16
26,161,1928.96026186645,1,0,1709810.1526557,1709811.19976645,3,1,95,0,4
26,162,478.443144122139,1,0,1709814.34098014,1709815.38801813,3,1,97,16,8
26,163,477.947314269841,0,0,1709816.91744647,1709817.96451796,3,0,62,16,4
26,164,435.921896016225,1,1,1709819.56453082,1709820.61160461,3,0,70,0,8
26,165,494.785121642053,0,0,1709822.10578285,1709823.15280468,3,0,78,0,0
26,166,486.102712107822,1,0,1709824.72930219,1709825.77637214,3,1,76,4,0
26,167,555.234771454707,1,0,1709827.34109986,1709828.38816134,3,1,84,16,16
26,168,621.169345220551,1,0,1709829.98818305,1709831.03525454,3,1,70,8,16
26,169,539.624604629353,1,0,1709832.70586808,1709833.75293456,3,1,64,16,0
26,170,540.3679641895,1,0,1709835.30590057,1709836.35297398,3,1,76,16,0
26,171,536.852115765214,1,0,1709837.97651604,1709839.02358291,3,1,70,8,8
26,172,520.857757655904,0,0,1709840.63545641,1709841.68246207,3,0,73,4,16
26,173,645.237104268745,1,0,1709843.30599065,1709844.35305944,3,1,81,16,0
26,174,436.878524022177,1,0,1709846.04721296,1709847.09427021,3,1,88,0,4
26,175,550.637952517718,0,0,1709848.5884265,1709849.63547258,3,0,93,16,16
26,176,483.699400909245,0,0,1709851.29431902,1709852.34139667,3,0,66,0,4
26,177,598.440095083788,1,0,1709853.97670544,1709855.02376923,3,1,73,16,4
26,178,1073.98929959163,0,0,1709856.70614949,1709857.75321212,3,0,71,16,8
26,179,664.947875542566,0,0,1709859.90618829,1709860.9532644,3,0,96,8,4
26,180,621.344117214903,0,0,1709862.77680715,1709863.8238794,3,0,100,16,4
26,181,464.726984966546,1,0,1709865.55332268,1709866.60038031,3,1,67,4,4
26,182,507.215511286631,1,0,1709868.23569447,1709869.28276827,3,1,67,4,0
26,183,486.568514956161,0,0,1709870.9533745,1709872.00044714,3,0,67,0,16
26,184,550.655660685152,1,0,1709873.51815842,1709874.56526263,3,1,62,4,8
26,185,847.03710488975,0,0,1709876.12991105,1709877.17697791,3,0,92,8,16
26,186,757.3296520859,0,0,1709879.20055831,1709880.247599,3,0,81,4,16
26,187,629.124178318307,1,0,1709882.18880122,1709883.23587117,3,1,80,8,0
26,188,517.517836298794,1,0,1709885.01236938,1709886.05944202,3,1,64,4,4
26,189,625.504390569404,0,0,1709887.71827499,1709888.7653484,3,0,99,8,4
26,190,603.060396621004,0,0,1709890.44772288,1709891.49480091,3,0,88,0,8
26,191,538.043184904382,1,0,1709893.14193376,1709894.18895944,3,1,96,4,0
26,192,660.492337308824,1,0,1709895.88308101,1709896.93015865,3,1,79,8,0
26,193,841.027094284073,0,0,1709898.65958384,1709899.70665071,3,0,80,8,0
26,194,556.38157017529,1,0,1709901.73020955,1709902.77727564,3,1,83,0,8
26,195,629.524152725935,0,0,1709904.53024581,1709905.57731383,3,0,97,8,8
26,196,505.375397624448,1,0,1709907.38910064,1709908.43617444,3,1,88,0,4
26,197,546.98390327394,1,0,1709910.07148514,1709911.1185547,3,1,98,4,16
26,198,671.996510587633,0,0,1709912.67153996,1709913.7185818,3,0,83,8,0
26,199,573.014193447307,1,0,1709915.57743702,1709916.62450273,3,1,94,0,16
26,200,616.452033398673,0,0,1709918.29511473,1709919.34218083,3,0,64,4,8
26,201,619.818517006934,1,0,1709921.11868328,1709922.16575938,3,1,89,16,4
26,202,664.689566707239,1,0,1709923.96577524,1709925.01283403,3,1,84,4,4
26,203,737.219291273505,1,0,1709926.69520736,1709927.74228962,3,1,81,8,8
26,204,828.140141209587,1,0,1709929.60114676,1709930.648199,3,1,79,8,16
26,205,648.700598161668,1,0,1709932.57768455,1709933.62470368,3,1,74,4,4
26,206,781.522908480838,0,0,1709935.36590944,1709936.41297746,3,0,97,4,0
26,207,859.42206881009,1,0,1709938.22476697,1709939.27183422,3,1,64,8,8
26,208,912.302231416106,1,0,1709941.2718885,1709942.31892765,3,1,97,8,0
26,209,696.608219994232,0,0,1709944.38957222,1709945.43660406,3,0,94,0,16
26,210,864.505093311891,1,0,1709947.33074441,1709948.37781859,3,1,97,16,16
26,211,608.264298876747,0,0,1709950.27196549,1709951.3190312,3,0,87,4,4
26,212,658.220682526007,0,0,1709953.11905245,1709954.16612895,3,0,65,4,0
26,213,699.881157837808,0,0,1709956.01320898,1709957.06027815,3,0,100,0,4
26,214,665.20772408694,0,0,1709958.77795164,1709959.82501465,3,0,65,0,16
26,215,812.975374050438,1,0,1709961.51915162,1709962.56622426,3,1,68,0,8
26,216,746.927237138152,0,0,1709964.51924016,1709965.56626699,3,0,98,16,16
26,217,944.695926271379,1,0,1709967.47223681,1709968.51926441,3,1,61,8,4
26,218,564.495777245611,0,0,1709970.55455763,1709971.60162219,3,0,64,16,8
26,219,759.583598468453,0,0,1709973.31929259,1709974.3663687,3,0,65,4,16
26,220,666.481944965199,0,0,1709976.31933686,1709977.36639026,3,0,94,16,8
26,221,826.248058117926,1,0,1709979.20172321,1709980.2487893,3,1,90,0,0
26,222,638.223500456661,0,0,1709982.21351379,1709983.26058489,3,0,63,0,16
26,223,940.663075307384,1,0,1709984.9900632,1709986.03716702,3,1,80,16,0
26,224,689.032573020086,1,0,1709988.15476259,1709989.20183561,3,1,69,4,16
26,225,687.357607996091,0,0,1709990.91950217,1709991.96657096,3,0,80,4,8
26,226,806.565774139017,0,0,1709993.68427177,1709994.73131092,3,0,72,8,16
26,227,675.339126726612,1,0,1709996.62545243,1709997.67251814,3,1,94,16,4
26,228,644.722026539966,0,0,1709999.40196334,1710000.44902713,3,0,66,8,4
26,229,770.213910378516,1,0,1710002.22551918,1710003.2725872,3,1,92,0,0
26,230,618.393776472658,0,0,1710005.0843821,1710006.13144473,3,0,70,8,8
26,231,553.129035048187,1,0,1710007.931481,1710008.97854902,3,1,85,8,4
26,232,641.633869614452,1,0,1710010.60210031,1710011.64915794,3,1,74,4,8
26,233,630.287915468216,0,0,1710013.49623643,1710014.54331062,3,0,85,8,16
26,234,743.001790018752,0,0,1710016.19038957,1710017.2374626,3,0,79,0,8
26,235,660.144717665389,0,0,1710019.19042614,1710020.23749878,3,0,62,0,0
26,236,723.588978638873,0,0,1710022.07287061,1710023.11988397,3,0,98,16,16
26,237,641.745508415625,1,0,1710024.88466204,1710025.93168618,3,1,90,4,8
26,238,580.449714325368,0,0,1710027.61404604,1710028.66112522,3,0,97,16,8
26,239,592.677229549736,0,0,1710030.39061162,1710031.43763383,3,0,72,0,0
26,240,931.442490313202,0,0,1710033.17883112,1710034.22589606,3,0,65,16,0
26,241,670.932093635201,0,0,1710053.32024152,1710054.36736998,4,0,61,8,8
26,242,509.360128547996,0,0,1710056.24969319,1710057.29676198,4,0,77,0,8
26,243,621.265585301444,1,0,1710058.83795781,1710059.88502699,4,1,80,4,4
26,244,651.023837504908,1,0,1710061.59093067,1710062.63800062,4,1,92,8,0
26,245,630.549303721637,1,0,1710064.41449844,1710065.46156454,4,1,99,16,0
26,246,569.799769436941,1,0,1710067.28511114,1710068.33222382,4,1,62,8,16
26,247,527.33087609522,1,0,1710070.01455673,1710071.06162821,4,1,79,4,16
26,248,637.154849013314,0,0,1710072.75577288,1710073.80283898,4,0,93,16,16
26,249,633.711758069694,0,0,1710075.57933141,1710076.62640097,4,0,96,4,0
26,250,529.094382189214,0,0,1710078.30877931,1710079.35584541,4,0,75,4,16
26,251,642.418035306036,0,0,1710080.9676296,1710082.0147034,4,0,80,16,8
26,252,473.156090127304,1,0,1710083.7676624,1710084.81473927,4,1,75,16,0
26,253,618.51542419754,1,0,1710086.37946315,1710087.42653232,4,1,91,0,0
26,254,729.555488564074,1,0,1710089.19125766,1710090.23832529,4,1,99,8,8
26,255,622.411614051089,0,0,1710091.99129277,1710093.03836079,4,0,85,4,0
26,256,531.040359986946,1,0,1710094.76779944,1710095.81486285,4,1,96,4,16
26,257,734.454117016867,1,0,1710097.49724965,1710098.54432499,4,1,70,8,0
26,258,632.626938167959,0,0,1710100.30903685,1710101.35610525,4,0,70,8,16
26,259,682.680332334712,0,0,1710103.12083636,1710104.16791093,4,0,91,0,0
26,260,584.754347801209,1,0,1710105.96797183,1710107.01499635,4,1,72,8,16
26,261,760.448605986312,0,0,1710108.80325589,1710109.85032353,4,0,89,8,8
26,262,659.034105250612,0,0,1710111.74447658,1710112.79154384,4,0,88,4,0
26,263,734.698952175677,0,0,1710114.57979875,1710115.6268891,4,0,89,16,0
26,264,806.207760237157,0,0,1710117.49747485,1710118.54454595,4,0,68,0,16
26,265,702.803781721741,1,0,1710120.3916845,1710121.43870479,4,1,64,0,4
26,266,730.76734575443,1,0,1710123.29753922,1710124.34461494,4,1,86,4,4
26,267,1029.93975649588,0,0,1710126.15639559,1710127.20347054,4,0,63,8,8
26,268,585.73561348021,0,0,1710129.40349664,1710130.45061009,4,0,73,4,8
26,269,668.651969870552,1,0,1710132.19177119,1710133.23883729,4,1,96,8,4
26,270,605.928355595097,0,0,1710134.90944352,1710135.95655581,4,0,93,16,16
26,271,527.914861915633,1,0,1710137.61535606,1710138.66242793,4,1,94,8,4
26,272,517.197933746502,0,0,1710140.33303647,1710141.38011296,4,0,65,0,4
26,273,594.133921666071,1,0,1710143.08601241,1710144.13308159,4,1,90,0,4
26,274,618.417259072885,0,0,1710145.85075083,1710146.89782039,4,0,61,16,8
26,275,523.366548120975,1,0,1710148.60376373,1710149.65079326,4,1,65,8,4
26,276,776.844477979466,1,0,1710151.22728538,1710152.2744023,4,1,89,4,0
26,277,650.213494664058,1,0,1710154.19202796,1710155.23909907,4,1,78,4,16
26,278,537.556209368631,1,0,1710157.06265067,1710158.10971831,4,1,73,0,16
26,279,841.579513158649,1,0,1710159.72150365,1710160.76856937,4,1,78,8,4
26,280,473.571078153327,0,0,1710162.67448221,1710163.72154523,4,0,65,16,16
26,281,707.611173857003,0,0,1710165.33340642,1710166.38040669,4,0,69,16,4
26,282,608.193465974182,1,0,1710168.21572693,1710169.26279457,4,1,99,16,4
26,283,605.107618728653,0,0,1710171.00399032,1710172.05106527,4,0,73,4,8
26,284,571.928988443688,0,0,1710173.70990979,1710174.75697858,4,0,78,4,8
26,285,519.593160832301,1,0,1710176.48640492,1710177.53346909,4,1,65,16,4
26,286,548.027532175183,1,0,1710179.16880096,1710180.21586167,4,1,82,0,0
26,287,603.299457347021,1,0,1710181.88651948,1710182.93355555,4,1,89,0,4
26,288,503.457907121629,0,0,1710184.59238967,1710185.63945962,4,0,96,0,8
26,289,612.600883934647,0,0,1710187.14535992,1710188.19242909,4,0,69,8,0
26,290,485.592638840899,1,0,1710189.91014068,1710190.95716174,4,1,86,0,0
26,291,746.677012415603,0,0,1710192.55718576,1710193.60425686,4,0,81,8,0
26,292,710.662374505773,1,0,1710195.46310361,1710196.51017318,4,1,91,16,16
26,293,582.588942721486,0,0,1710198.4160814,1710199.46315481,4,0,63,0,8
26,294,626.466793008149,0,0,1710201.110233,1710202.15729871,4,0,86,0,4
26,295,1028.38489925489,0,0,1710203.8514376,1710204.89850832,4,0,73,16,8
26,296,609.689809381962,1,0,1710206.93385389,1710207.98090305,4,1,62,16,4
26,297,600.103511475027,1,0,1710209.745623,1710210.79270103,4,1,76,4,0
26,298,661.421248223633,0,0,1710212.5691927,1710213.61624647,4,0,81,8,8
26,299,836.920715868473,0,0,1710215.34569668,1710216.39276817,4,0,94,8,0
26,300,629.496050765738,1,0,1710218.38102724,1710219.42809411,4,1,78,4,4
26,301,489.582374226302,0,0,1710221.1810585,1710222.22812421,4,0,76,16,8
26,302,675.06849928759,0,0,1710223.91050101,1710224.95757249,4,0,69,4,16
26,303,594.619742361829,1,0,1710226.79288774,1710227.83995999,4,1,77,0,0
26,304,497.252721572295,0,0,1710229.58115382,1710230.62822338,4,0,78,0,16
26,305,562.98827030696,0,0,1710232.27530464,1710233.32237728,4,0,65,16,4
26,306,546.314841136336,0,0,1710234.93415994,1710235.9812295,4,0,77,4,8
26,307,485.378215787932,0,0,1710237.54595491,1710238.59302024,4,0,77,16,0
26,308,483.100401703268,0,0,1710240.28717107,1710241.33423254,4,0,67,4,4
26,309,657.090052263811,1,0,1710242.99308553,1710244.04015086,4,1,94,0,8
26,310,674.318595090881,1,0,1710245.746053,1710246.79312064,4,1,88,4,8
26,311,769.963685888797,1,0,1710248.58137171,1710249.62845821,4,1,83,8,16
26,312,619.202964473516,0,0,1710251.4990632,1710252.54613353,4,0,64,8,4
26,313,674.75514113903,0,0,1710254.27556719,1710255.3226406,4,0,79,0,16
26,314,566.342819947749,1,0,1710257.11089706,1710258.15796431,4,1,86,16,16
26,315,610.948631539941,1,0,1710259.74621314,1710260.79332236,4,1,74,16,8
26,316,635.663895169273,1,0,1710262.58155187,1710263.62861873,4,1,88,4,4
26,317,517.668355954811,1,0,1710265.28746056,1710266.33453166,4,1,95,16,0
26,318,566.772821359336,1,0,1710268.05220321,1710269.09927201,4,1,100,0,16
26,319,599.630779121071,0,0,1710270.74634826,1710271.79342476,4,0,93,8,16
26,320,651.969301514328,1,0,1710273.41697259,1710274.46404253,4,1,62,0,8
26,321,581.923729972914,1,0,1710286.12306144,1710287.17008057,5,1,88,0,8
26,322,617.129179881886,1,0,1710288.94658186,1710289.99363718,5,1,82,8,8
26,323,496.512441663072,0,0,1710291.80542052,1710292.85249509,5,0,62,16,4
26,324,521.062556887046,1,0,1710294.39368707,1710295.44076086,5,1,82,4,16
26,325,512.831321684644,0,0,1710296.98197017,1710298.02903126,5,0,73,4,16
26,326,529.284553136677,1,0,1710299.60551607,1710300.65258255,5,1,61,4,8
26,327,612.02113260515,1,0,1710302.29966574,1710303.34674262,5,1,99,0,0
26,328,593.489112099633,1,0,1710305.02911095,1710306.07617589,5,1,69,0,0
26,329,884.113464970142,1,0,1710307.75855807,1710308.80562378,5,1,88,16,16
26,330,761.390990111977,0,0,1710310.78211383,1710311.82918763,5,0,100,4,4
26,331,604.126738384366,1,0,1710313.66459988,1710314.71157436,5,1,73,16,8
26,332,532.048187917098,1,0,1710316.37042157,1710317.41750306,5,1,97,8,8
26,333,572.666958672926,0,0,1710319.00575536,1710320.05286034,5,0,90,4,0
26,334,506.951812887564,0,0,1710321.77048955,1710322.81755603,5,0,72,0,4
26,335,545.833254931495,1,0,1710324.35880999,1710325.40582219,5,1,76,8,16
26,336,533.703135093674,1,0,1710327.00584583,1710328.05291077,5,1,68,0,16
26,337,641.725105466321,0,0,1710329.66475848,1710330.711773,5,0,99,16,8
26,338,579.144311835989,0,0,1710332.3941394,1710333.44120973,5,0,94,0,8
26,339,597.761793760583,1,0,1710335.17070267,1710336.21772103,5,1,96,4,8
26,340,484.073197934777,0,0,1710337.99420846,1710339.0412811,5,0,66,4,16
26,341,717.265225015581,1,0,1710340.54717909,1710341.59424288,5,1,98,16,0
26,342,496.413506567478,1,0,1710343.46486366,1710344.51192937,5,1,78,0,4
26,343,684.670580318198,0,0,1710346.07666017,1710347.12374551,5,0,61,8,4
26,344,647.467183182016,0,0,1710348.87669374,1710349.92376022,5,0,92,0,16
26,345,832.256143679842,0,0,1710351.71201745,1710352.75908816,5,0,65,8,16
26,346,674.205801682547,1,0,1710354.7708645,1710355.81797449,5,1,69,4,4
26,347,649.911685381085,0,0,1710357.55914983,1710358.60621401,5,0,89,16,16
26,348,628.150227013975,0,0,1710360.32388633,1710361.37095397,5,0,91,4,16
26,349,573.679405963048,0,0,1710363.14745295,1710364.19452097,5,0,66,8,4
26,350,609.103898750618,1,0,1710365.92394769,1710366.97102188,5,1,64,0,4
26,351,656.81403526105,0,0,1710368.61810083,1710369.66522891,5,0,99,16,8
26,352,689.718573354185,1,0,1710371.41813401,1710372.46523514,5,1,92,16,16
26,353,677.307432284579,0,0,1710374.34760647,1710375.39467603,5,0,95,4,8
26,354,561.703270534053,1,0,1710377.21820646,1710378.26527102,5,1,62,0,0
26,355,728.267409140244,1,0,1710379.90058672,1710380.94765475,5,1,99,16,0
26,356,602.440609363839,0,0,1710382.80650419,1710383.85357491,5,0,61,0,8
26,357,584.101069252938,1,0,1710385.50064963,1710386.54772535,5,1,64,0,16
26,358,608.156894566491,1,0,1710388.20656794,1710389.25364135,5,1,78,16,0
26,359,540.085402783006,1,0,1710391.0536676,1710392.10073216,5,1,64,16,4
26,360,597.872662590817,1,0,1710393.74781227,1710394.79487991,5,1,93,4,0
26,361,533.550690626726,0,0,1710396.47725555,1710397.52432588,5,0,62,0,0
26,362,585.443813120946,0,0,1710399.17141292,1710400.21847709,5,0,83,4,0
26,363,547.382337739691,1,0,1710401.98319819,1710403.03027353,5,1,76,16,4
26,364,564.565070206299,1,0,1710404.64206234,1710405.68912382,5,1,72,4,16
26,365,739.035922335461,1,0,1710407.31267896,1710408.3597389,5,1,83,16,16
26,366,600.328713422641,0,0,1710410.28918595,1710411.33625205,5,0,93,16,16
26,367,679.404314374551,0,0,1710412.98333601,1710414.03040326,5,0,66,8,16
26,368,607.918603811413,0,0,1710415.77160478,1710416.81867396,5,0,89,4,4
26,369,596.557250944898,1,0,1710418.55988626,1710419.60694351,5,1,65,16,4
26,370,612.960052443668,0,0,1710421.2304948,1710422.2775609,5,0,81,4,0
26,371,551.490641199052,0,0,1710423.91287776,1710424.95994732,5,0,95,8,0
26,372,569.467548280954,0,0,1710426.65409006,1710427.70115577,5,0,96,0,16
26,373,633.475776994601,1,0,1710429.46588496,1710430.51295259,5,1,63,16,8
26,374,566.251199459657,1,0,1710432.20708918,1710433.25416567,5,1,84,0,4
26,375,413.617257960141,0,0,1710434.97183453,1710436.01890101,5,0,84,16,4
26,376,545.305473497137,0,0,1710437.51304036,1710438.56010916,5,0,98,8,0
26,377,417.094995267689,0,0,1710440.20717541,1710441.2542492,5,0,75,16,0
26,378,646.119819721207,1,0,1710442.80722022,1710443.85429093,5,1,93,4,8
26,379,454.806155990809,0,0,1710445.70137751,1710446.74849558,5,0,67,8,8
26,380,591.022282140329,0,0,1710448.31317056,1710449.36024089,5,0,68,8,0
26,381,620.56264677085,1,0,1710451.04261615,1710452.08968417,5,1,100,0,8
26,382,533.664638875052,1,0,1710453.88969579,1710454.93677421,5,1,63,8,0
26,383,578.606136376038,0,0,1710456.50149731,1710457.54856418,5,0,99,8,8
26,384,577.120571862906,0,0,1710459.21918118,1710460.26625383,5,0,71,8,4
26,385,470.847094198689,0,0,1710462.01920282,1710463.06633359,5,0,85,16,8
26,386,475.61406577006,0,0,1710464.60747668,1710465.65455009,5,0,81,8,0
26,387,759.608236141503,1,0,1710467.2545718,1710468.30163597,5,1,64,16,0
26,388,644.173072185367,0,0,1710470.24284089,1710471.28990621,5,0,89,8,8
26,389,504.253621445969,0,0,1710473.05464117,1710474.1017065,5,0,84,0,4
26,390,547.885481733829,1,0,1710475.67820479,1710476.72531977,5,1,89,4,0
26,391,609.814921393991,0,0,1710478.47822719,1710479.52530368,5,0,72,4,4
26,392,569.958373438567,1,0,1710481.29003363,1710482.33713245,5,1,81,4,8
26,393,626.286631217226,0,0,1710484.06653031,1710485.11360757,5,0,98,0,8
26,394,592.156377388164,1,0,1710486.85480139,1710487.90187211,5,1,86,8,16
26,395,707.779786782339,1,0,1710489.53718396,1710490.58425814,5,1,84,0,0
26,396,612.747554201633,0,0,1710492.3372233,1710493.38428401,5,0,61,8,4
26,397,664.878582349047,1,0,1710495.10203795,1710496.14903398,5,1,63,4,4
26,398,614.402886480093,1,0,1710497.98434614,1710499.03141224,5,1,66,8,4
26,399,471.966945799068,0,0,1710500.77261069,1710501.8196891,5,0,76,0,16
26,400,637.981360079721,1,0,1710503.3138223,1710504.36091996,5,1,63,8,16
26,401,2500,-1,-1,1710509.63177041,1710510.67841088,6,0,71,16,0
26,402,2500,-1,-1,1710514.69022347,1710515.7372861,6,0,84,16,4
26,403,2500,-1,-1,1710519.87852212,1710520.92558706,6,1,69,0,16
26,404,2500,-1,-1,1710525.06681153,1710526.11388032,6,0,88,0,8
26,405,2500,-1,-1,1710530.29040834,1710531.33747829,6,1,97,4,0
26,406,2500,-1,-1,1710535.49048561,1710536.53753981,6,1,88,16,16
26,407,998.5934603028,0,0,1710540.72582306,1710541.77289679,6,0,85,16,16
26,408,640.744144562632,1,0,1710543.891124,1710544.93763737,6,1,84,8,8
26,409,523.58358586207,1,1,1710546.67883813,1710547.72591231,6,0,79,16,4
26,410,602.224565809593,1,0,1710549.37298818,1710550.42005928,6,1,100,0,8
26,411,611.785151762888,0,0,1710552.22056781,1710553.26764815,6,0,82,4,16
26,412,680.459877476096,0,0,1710555.06766633,1710556.11473088,6,0,99,16,0
26,413,477.472577011213,0,0,1710557.83191708,1710558.87898279,6,0,62,0,16
26,414,962.314354022965,1,0,1710560.43194624,1710561.47900643,6,1,99,16,8
26,415,527.733465190977,0,0,1710563.56194773,1710564.60846495,6,0,78,16,8
26,416,555.244700051844,1,0,1710566.24378181,1710567.29085099,6,1,85,8,16
26,417,455.245781457052,0,0,1710568.96195027,1710570.0090206,6,0,67,16,16
26,418,549.771790392697,0,0,1710571.55024992,1710572.59727983,6,0,86,16,4
26,419,550.338372588158,1,0,1710574.14975356,1710575.19682928,6,1,73,0,8
26,420,817.011994309723,0,1,1710576.93802079,1710577.9850842,6,1,61,8,4
26,421,691.160171991214,1,0,1710579.84393826,1710580.89101167,6,1,77,16,8
26,422,619.303358951584,0,0,1710582.60866948,1710583.65574509,6,0,62,0,16
26,423,672.33712063171,1,0,1710585.36164563,1710586.40872257,6,1,90,4,16
26,424,918.943962780759,1,0,1710588.12687871,1710589.1739552,6,1,61,16,8
26,425,606.409556930885,0,0,1710591.29162622,1710592.3386977,6,0,73,8,0
26,426,510.493758367375,1,0,1710594.03234547,1710595.07941156,6,1,96,8,16
26,427,573.257408337668,1,0,1710596.66765975,1710597.71473997,6,1,94,16,4
26,428,743.342015193775,1,0,1710599.38534742,1710600.43241961,6,1,72,0,0
26,429,420.603914419189,0,0,1710602.37411527,1710603.42117713,6,0,77,8,4
26,430,1017.63640437275,0,0,1710604.86824962,1710605.91532303,6,0,67,8,0
26,431,832.98132987693,1,0,1710608.11493191,1710609.16193103,6,1,81,0,4
26,432,567.48222396709,0,1,1710611.05662795,1710612.10314171,6,1,88,8,0
26,433,702.284773811698,0,0,1710613.84489173,1710614.89141318,6,0,88,4,8
26,434,750.412593130022,1,0,1710616.60963554,1710617.65615199,6,1,98,8,0
26,435,1005.59359020554,1,0,1710619.42088772,1710620.46795574,6,1,82,4,8
26,436,908.28315843828,0,0,1710622.65621808,1710623.70328584,6,0,62,4,4
26,437,597.035757498816,1,0,1710625.71556756,1710626.76269948,6,1,86,0,8
26,438,609.383380273357,0,0,1710628.44500121,1710629.49208694,6,0,69,0,16
26,439,692.434777738526,1,0,1710631.26807433,1710632.31515434,6,1,83,0,4
26,440,689.579137135297,1,0,1710634.06811104,1710635.1151779,6,1,86,8,0
26,441,705.174675676972,0,0,1710636.85638142,1710637.90344668,6,0,99,8,4
26,442,647.558418801054,1,0,1710639.70395906,1710640.75103824,6,1,76,16,4
26,443,581.078740768135,0,0,1710642.43340696,1710643.48047883,6,0,97,4,0
26,444,1539.28575851023,1,0,1710645.17411921,1710646.22119846,6,1,71,4,8
26,445,599.426669767126,1,0,1710648.84475361,1710649.89183202,6,1,84,4,0
26,446,594.934640685096,1,0,1710651.59822453,1710652.64529678,6,1,76,8,16
26,447,643.439336679876,1,0,1710654.42178614,1710655.46886571,6,1,69,0,4
26,448,600.296681281179,1,0,1710657.24485033,1710658.29193196,6,1,77,4,4
26,449,712.973680114374,1,0,1710659.90420536,1710660.95127569,6,1,80,4,4
26,450,578.181909397244,0,0,1710662.82188684,1710663.86895795,6,0,63,8,4
26,451,657.089587068185,0,0,1710665.53907497,1710666.58614761,6,0,72,4,16
26,452,789.039961062372,1,0,1710668.44498216,1710669.49206315,6,1,68,8,4
26,453,633.618982741609,0,0,1710671.39846328,1710672.44553438,6,0,88,0,0
26,454,778.92942680046,1,0,1710674.22202181,1710675.26909253,6,1,89,16,0
26,455,663.173975422978,0,0,1710677.1749996,1710678.22207032,6,0,64,16,0
26,456,728.307060198858,1,0,1710679.93973494,1710680.98680643,6,1,96,4,8
26,457,589.366565225646,0,0,1710682.84565318,1710683.8927239,6,0,70,8,8
26,458,556.706477189437,0,0,1710685.66920902,1710686.7162805,6,0,85,4,0
26,459,502.105074003339,0,0,1710688.31581635,1710689.36288373,6,0,95,0,4
26,460,911.683903541416,1,0,1710690.89230694,1710691.93938971,6,1,62,16,16
26,461,408.477948512882,0,0,1710694.03407656,1710695.08060186,6,0,72,4,4
26,462,820.760744158179,0,0,1710696.51591533,1710697.56304995,6,0,89,16,8
26,463,891.693265875801,1,0,1710699.45767605,1710700.5041952,6,1,72,8,8
26,464,915.676333708689,1,0,1710702.55183019,1710703.59834741,6,1,63,4,0
26,465,532.181688817218,0,0,1710705.69248884,1710706.73955879,6,0,61,0,0
26,466,587.703533936292,0,0,1710708.4341969,1710709.48126646,6,0,82,16,0
26,467,650.972637813538,1,0,1710711.16363709,1710712.21070819,6,1,83,8,8
26,468,734.532568370923,0,0,1710714.06961307,1710715.11613453,6,0,80,4,16
26,469,698.065601754934,1,0,1710716.95144669,1710717.99851548,6,1,65,4,4
26,470,781.488262116909,1,0,1710719.78726808,1710720.83433956,6,1,88,8,16
26,471,576.766023179516,0,0,1710722.71671436,1710723.76379008,6,0,61,0,16
26,472,604.551350232214,0,0,1710725.55203691,1710726.5991211,6,0,98,0,4
26,473,778.899784432724,1,0,1710728.37560545,1710729.42268964,6,1,95,16,16
26,474,560.217321151868,0,0,1710731.23446067,1710732.2815337,6,0,97,0,8
26,475,649.622964439914,0,0,1710734.01096004,1710735.05804115,6,0,69,8,16
26,476,523.548169294372,0,0,1710736.83403437,1710737.88110585,6,0,62,0,0
26,477,587.620301870629,0,0,1710739.59932705,1710740.64584505,6,0,95,8,8
26,478,689.90720435977,0,0,1710742.24635827,1710743.29342668,6,0,88,4,16
26,479,573.560453020036,1,0,1710745.02286572,1710746.06993606,6,1,65,0,0
26,480,651.688584825024,0,0,1710747.7523679,1710748.79888358,6,0,90,4,8
26,481,895.271943183616,1,0,1710754.51708553,1710755.56416087,7,1,86,16,16
26,482,465.004926547408,1,0,1710757.65830538,1710758.70540228,7,1,86,0,4
26,483,507.306666346267,1,0,1710760.24657501,1710761.29314882,7,1,72,0,0
26,484,573.23554600589,0,0,1710762.82307252,1710763.87014363,7,0,62,8,16
26,485,431.966037256643,0,0,1710765.47016149,1710766.5172349,7,0,62,0,0
26,486,603.861804818735,1,0,1710768.03495889,1710769.08148111,7,1,92,16,0
26,487,420.729796634987,0,0,1710770.71727909,1710771.76435712,7,0,78,8,16
26,488,439.444673713297,1,0,1710773.29378431,1710774.34085464,7,1,85,0,16
26,489,371.433925349265,0,0,1710775.97622655,1710777.02274762,7,0,65,4,16
26,490,440.899296663702,0,0,1710778.50567452,1710779.55218219,7,0,86,0,16
26,491,677.924059098586,0,0,1710781.10514088,1710782.15222231,7,0,89,8,4
26,492,439.8041467648,0,0,1710783.9993008,1710785.04637306,7,0,86,16,16
26,493,408.08952297084,0,0,1710786.66991287,1710787.71699469,7,0,95,4,0
26,494,413.755314191803,0,0,1710789.15230681,1710790.19936662,7,0,77,4,4
26,495,576.236701803282,1,0,1710791.65870844,1710792.70577954,7,1,73,8,8
26,496,481.030081398785,0,0,1710794.29403992,1710795.34109794,7,0,85,8,0
26,497,511.690216837451,1,0,1710796.96471583,1710798.01123652,7,1,67,0,8
26,498,474.387884838507,1,1,1710799.600035,1710800.64655222,7,0,69,16,16
26,499,836.279675131664,1,0,1710802.29418197,1710803.34070767,7,1,92,4,4
26,500,510.943857952952,0,0,1710805.3059383,1710806.35299323,7,0,84,4,16
26,501,488.91254211776,0,0,1710807.96477627,1710809.01185622,7,0,87,4,4
26,502,630.036070477217,1,0,1710810.54078431,1710811.58786454,7,1,72,8,4
26,503,413.024722598493,0,0,1710813.24726139,1710814.29377708,7,0,83,16,16
26,504,474.446479231119,0,0,1710815.80016388,1710816.84723537,7,0,85,8,0
26,505,524.435199797153,0,0,1710818.35313567,1710819.40021639,7,0,91,0,16
26,506,575.083663221449,0,0,1710821.01205255,1710822.05857055,7,0,64,16,8
26,507,497.66262457706,0,0,1710823.64682901,1710824.69390011,7,0,87,0,8
26,508,493.504741461948,1,0,1710826.36499516,1710827.41207742,7,1,76,4,16
26,509,1277.20210677944,1,0,1710829.09444536,1710830.14151647,7,1,81,4,4
26,510,716.582223773003,1,0,1710832.54105636,1710833.58812323,7,1,79,8,0
26,511,472.576723899692,1,0,1710835.32981858,1710836.37688814,7,1,95,0,8
26,512,611.049106344581,0,0,1710838.05925801,1710839.10633103,7,0,79,8,4
26,513,608.133331639692,0,0,1710840.78875826,1710841.83528357,7,0,62,8,8
26,514,480.042191455141,1,0,1710843.48291486,1710844.52943093,7,1,78,0,4
26,515,478.324110619724,1,0,1710846.20003754,1710847.24711134,7,1,85,4,0
26,516,633.883755188435,1,0,1710848.83536633,1710849.88243782,7,1,94,4,4
26,517,679.920081747696,1,0,1710851.57657479,1710852.62364319,7,1,62,16,0
26,518,837.777557782829,0,0,1710854.3883621,1710855.43543578,7,0,90,16,4
26,519,634.300363250077,1,0,1710857.43597157,1710858.48302919,7,1,79,8,8
26,520,528.155462583527,1,0,1710860.23599282,1710861.28306199,7,1,98,0,4
26,521,620.599522255361,1,0,1710862.82376675,1710863.87083741,7,1,73,16,8
26,522,518.464759923518,1,0,1710865.68262345,1710866.72969339,7,1,93,16,4
26,523,484.717237763107,1,0,1710868.42431918,1710869.47139721,7,1,63,4,8
26,524,524.908317020163,1,0,1710871.02435706,1710872.07141777,7,1,78,8,4
26,525,456.506833201274,1,0,1710873.69503643,1710874.74155635,7,1,66,0,16
26,526,749.025193974376,0,0,1710876.22392244,1710877.27099509,7,0,73,0,8
26,527,561.630432493985,0,0,1710879.09454387,1710880.14161933,7,0,95,8,4
26,528,688.508176011965,0,0,1710881.80046468,1710882.8475311,7,0,92,8,16
26,529,678.447606042027,1,0,1710884.55343517,1710885.60050204,7,1,99,8,8
26,530,589.783012634143,1,0,1710887.41284581,1710888.45936264,7,1,83,16,4
26,531,515.187282580882,1,0,1710890.07164143,1710891.11870945,7,1,79,0,0
26,532,500.273510115221,1,0,1710892.67167007,1710893.71874079,7,1,92,4,8
26,533,875.259667402133,1,0,1710895.30650702,1710896.35357114,7,1,78,16,8
26,534,496.68328370899,1,0,1710898.4247411,1710899.47125794,7,1,73,4,8
26,535,494.460214627907,0,0,1710901.08353673,1710902.13060667,7,0,94,0,0
26,536,639.14702180773,0,0,1710903.68356806,1710904.73063647,7,0,92,4,0
26,537,846.768706804141,0,0,1710906.54192644,1710907.5890071,7,0,74,16,8
26,538,504.931922769174,1,0,1710909.62481147,1710910.67188604,7,1,64,0,4
26,539,635.574199492112,0,0,1710912.36602647,1710913.41309718,7,0,83,8,0
26,540,834.31059983559,0,0,1710915.17732715,1710916.22439672,7,0,62,16,16
26,541,691.3835296873,0,0,1710918.21315462,1710919.26022341,7,0,96,8,16
26,542,510.64859284088,1,0,1710920.97788111,1710922.0249526,7,1,88,4,16
26,543,694.380755303428,1,0,1710923.74268767,1710924.78920066,7,1,72,16,8
26,544,825.547814136371,0,0,1710926.67207698,1710927.71913691,7,0,70,16,0
26,545,557.690437650308,1,0,1710929.73093674,1710930.77799745,7,1,71,0,0
26,546,682.26641882211,1,0,1710932.43635757,1710933.48342694,7,1,87,16,0
26,547,540.569298667833,0,0,1710935.3780615,1710936.42512914,7,0,86,8,8
26,548,614.611535100266,0,0,1710938.14279146,1710939.18987372,7,0,77,4,8
26,549,644.707013154402,1,0,1710941.00165014,1710942.04872933,7,1,72,16,4
26,550,728.212744696066,0,0,1710943.77815874,1710944.82523524,7,0,82,16,4
26,551,529.373094206676,1,0,1710946.7428944,1710947.78997089,7,1,65,4,0
26,552,506.829780293629,1,0,1710949.50764244,1710950.5547043,7,1,77,4,8
26,553,630.844488507137,0,0,1710952.1900843,1710953.2366019,7,0,71,0,8
26,554,701.643428765237,1,0,1710954.9895577,1710956.03663008,7,1,63,4,0
26,555,888.867652509362,0,0,1710957.90724419,1710958.95431773,7,0,99,4,16
26,556,713.125659385696,0,0,1710960.87198921,1710961.91906031,7,0,80,0,16
26,557,746.094101108611,0,0,1710963.81319682,1710964.86027023,7,0,70,16,0
26,558,776.886358391494,1,0,1710966.75440045,1710967.80148284,7,1,86,8,16
26,559,644.678140990436,0,0,1710969.71963698,1710970.7667077,7,0,62,0,4
26,560,683.232366340235,0,0,1710972.60203064,1710973.64910097,7,0,66,8,0
26,561,703.605574788526,1,0,1710986.01346352,1710987.06053462,8,1,61,4,4
26,562,579.77210287936,0,0,1710988.87232143,1710989.91939099,8,0,65,0,4
26,563,491.440580924973,1,0,1710991.54343496,1710992.59050683,8,1,77,0,8
26,564,626.805173465982,0,0,1710994.16699164,1710995.21406043,8,0,92,0,8
26,565,507.759637199342,1,0,1710996.94355799,1710997.99007688,8,1,75,8,16
26,566,488.544134655967,0,0,1710999.50822373,1711000.55529445,8,0,96,8,0
26,567,593.776677967981,0,0,1711002.07247391,1711003.12004334,8,0,78,4,0
26,568,759.246677393094,1,0,1711004.87250544,1711005.91958116,8,1,79,16,16
26,569,577.331065200269,0,0,1711007.87253688,1711008.91961003,8,0,99,16,16
26,570,714.283317327499,0,0,1711010.50836155,1711011.55543342,8,0,91,8,0
26,571,454.873139271513,0,0,1711013.37898618,1711014.42605998,8,0,66,0,8
26,572,1429.20655664057,1,0,1711016.02558561,1711017.07265473,8,1,65,8,16
26,573,522.595776012167,1,0,1711019.6491462,1711020.69621565,8,1,68,4,8
26,574,637.644053902477,0,0,1711022.36738654,1711023.41390491,8,0,91,0,16
26,575,695.654286537319,0,0,1711025.13205798,1711026.17913023,8,0,93,0,0
26,576,495.613172650337,1,0,1711027.93210117,1711028.97916726,8,1,82,0,0
26,577,446.409692056477,1,0,1711030.64934345,1711031.69635693,8,1,75,4,8
26,578,793.793924385682,0,0,1711033.35568911,1711034.40275482,8,0,61,0,0
26,579,868.390889372677,0,0,1711036.37925488,1711037.42632714,8,0,79,8,0
26,580,766.879683360457,1,0,1711039.48523617,1711040.53175032,8,1,88,4,16
26,581,577.413912396878,0,0,1711042.43815083,1711043.48522386,8,0,77,4,0
26,582,413.383971666917,1,0,1711045.14406491,1711046.19113639,8,1,86,16,8
26,583,922.407376114279,1,0,1711047.73183532,1711048.77891489,8,1,61,16,8
26,584,888.170103309676,1,0,1711050.76716061,1711051.81423968,8,1,94,4,4
26,585,763.667568797246,0,0,1711053.83834662,1711054.88486346,8,0,88,0,8
26,586,594.403779366985,0,0,1711056.8618558,1711057.9089269,8,0,74,4,16
26,587,746.829841751605,0,0,1711059.68543089,1711060.73248005,8,0,74,4,8
26,588,694.284515222535,1,0,1711062.59084067,1711063.63791485,8,1,90,4,8
26,589,834.913914324716,0,0,1711065.43842685,1711066.48548755,8,0,89,8,4
26,590,595.986738801003,1,0,1711068.35610756,1711069.40317559,8,1,99,16,4
26,591,553.30488178879,1,0,1711071.09737954,1711072.14389291,8,1,75,8,4
26,592,891.824617981911,0,0,1711073.74439728,1711074.79147801,8,0,94,0,16
26,593,662.981879897416,1,0,1711076.75620404,1711077.80327783,8,1,90,4,4
26,594,608.182221651077,1,0,1711079.54397078,1711080.59105201,8,1,99,0,0
26,595,654.34212051332,0,0,1711082.2028339,1711083.24991077,8,0,80,8,8
26,596,655.521255917847,0,0,1711085.0734584,1711086.12052886,8,0,61,4,0
26,597,662.129495758563,0,0,1711087.86172423,1711088.90879648,8,0,95,4,8
26,598,806.982301874086,1,0,1711090.76814283,1711091.81520931,8,1,80,16,4
26,599,516.078467248008,1,0,1711093.7799338,1711094.82706765,8,1,77,8,8
26,600,505.951299332082,1,0,1711096.47409964,1711097.52114803,8,1,87,4,0
26,601,489.085774635896,0,0,1711099.14470394,1711100.19177581,8,0,75,0,4
26,602,486.907838843763,1,0,1711101.8030608,1711102.85013549,8,1,74,0,16
26,603,590.825486928225,1,0,1711104.35659223,1711105.40310714,8,1,88,4,0
26,604,646.824298426509,0,0,1711107.1800961,1711108.22716835,8,0,94,16,4
26,605,701.27356168814,1,0,1711109.90953745,1711110.9566074,8,1,70,8,0
26,606,680.012857541442,1,0,1711112.73260806,1711113.7796775,8,1,86,16,0
26,607,739.359529688954,0,0,1711115.65028577,1711116.69735289,8,0,61,16,4
26,608,784.41273001954,0,0,1711118.60326478,1711119.650336,8,0,77,16,16
26,609,542.690738104284,1,0,1711121.62738185,1711122.67390062,8,1,75,8,8
26,610,584.712387062609,1,0,1711124.40381809,1711125.45090112,8,1,82,16,8
26,611,606.645922875032,0,0,1711127.05091552,1711128.09797931,8,0,78,16,8
26,612,828.332541277632,1,0,1711129.90982733,1711130.95635109,8,1,65,16,4
26,613,733.362287282944,0,0,1711132.92108359,1711133.9681513,8,0,81,16,8
26,614,595.583219313994,1,0,1711135.83875514,1711136.88583587,8,1,87,0,4
26,615,521.492093103006,0,0,1711138.5799645,1711139.62704201,8,0,98,0,4
26,616,780.25245689787,1,0,1711141.3211714,1711142.36824816,8,1,80,8,8
26,617,527.09250501357,1,0,1711144.32176866,1711145.3682855,8,1,72,0,16
26,618,624.136928701773,0,0,1711147.02712809,1711148.07419996,8,0,91,16,16
26,619,639.337962726131,0,0,1711149.81589377,1711150.86296218,8,0,92,0,8
26,620,846.813057549298,0,0,1711152.59239391,1711153.63950658,8,0,69,8,8
26,621,700.761948479339,0,0,1711155.54536977,1711156.59246974,8,0,75,16,0
26,622,734.901056624949,1,0,1711158.43952398,1711159.48658739,8,1,92,0,4
26,623,506.660317070782,1,0,1711161.36846765,1711162.41554716,8,1,85,8,4
26,624,591.576240956783,0,0,1711164.03959266,1711165.08666222,8,0,76,16,16
26,625,679.115593666211,0,0,1711166.72197215,1711167.76904325,8,0,80,4,16
26,626,1623.93366917968,1,0,1711169.62795121,1711170.67446689,8,1,97,8,4
26,627,592.703021829948,0,0,1711173.35733867,1711174.40440669,8,0,71,4,4
26,628,528.878034325317,1,0,1711176.01620205,1711177.06327392,8,1,99,0,0
26,629,578.902476001531,1,0,1711178.69808398,1711179.7451619,8,1,96,8,0
26,630,688.191433204338,0,0,1711181.38096642,1711182.4280379,8,0,99,16,0
26,631,814.101769821718,0,0,1711184.13394082,1711185.18101192,8,0,93,4,16
26,632,701.257008593529,0,0,1711187.03986059,1711188.08693016,8,0,96,16,0
26,633,680.467191617936,1,0,1711189.86341412,1711190.91048561,8,1,80,8,16
26,634,541.649418883026,0,0,1711192.6511987,1711193.69827365,8,0,85,8,16
26,635,639.23286809586,1,0,1711195.35760352,1711196.40467424,8,1,61,4,16
26,636,673.183345235884,0,0,1711198.14587076,1711199.19294186,8,0,73,4,4
26,637,565.182932652533,1,0,1711201.06355263,1711202.11062527,8,1,70,0,16
26,638,677.19887313433,1,0,1711203.86358736,1711204.91065769,8,1,82,8,16
26,639,731.167239835486,0,0,1711206.78077309,1711207.82784574,8,0,71,16,0
26,640,751.459382241592,1,0,1711209.72248146,1711210.76955102,8,1,80,8,4
26,641,618.32555802539,1,0,1711220.6632934,1711221.71036912,9,1,73,4,16
26,642,628.836147021502,0,0,1711223.4874112,1711224.5339265,9,0,80,16,4
26,643,612.036835867912,0,0,1711226.29865261,1711227.34572987,9,0,62,4,16
26,644,440.888662124053,1,0,1711229.16976221,1711230.2168437,9,1,61,0,0
26,645,429.751741699874,1,0,1711231.66390965,1711232.71099191,9,1,77,8,8
26,646,595.953551819548,0,0,1711234.31051422,1711235.35758859,9,0,83,16,8
26,647,622.847309568897,1,0,1711237.11053655,1711238.15761908,9,1,89,0,16
26,648,440.784337930381,0,0,1711239.82872375,1711240.87579254,9,0,73,4,0
26,649,519.027268281206,1,0,1711242.48761716,1711243.53464668,9,1,99,4,8
26,650,632.041717180982,1,0,1711245.07589448,1711246.12242094,9,1,80,0,4
26,651,483.879867009819,0,0,1711247.81710794,1711248.86362555,9,0,94,16,8
26,652,618.892301106825,1,0,1711250.54649116,1711251.59355687,9,1,89,4,4
26,653,447.381798876449,1,0,1711253.41711387,1711254.46418497,9,1,75,0,8
26,654,475.139328511432,1,0,1711255.9936699,1711257.04019328,9,1,99,8,0
26,655,744.755591731519,1,0,1711258.61723659,1711259.66375536,9,1,69,0,8
26,656,595.037425169721,0,0,1711261.61720888,1711262.6642819,9,0,82,4,8
26,657,451.572868740186,1,0,1711264.29960261,1711265.34667063,9,1,89,4,0
26,658,598.624795908108,1,0,1711266.87615941,1711267.92267856,9,1,91,0,8
26,659,681.490337476134,1,0,1711269.56975366,1711270.61682592,9,1,76,4,4
26,660,815.797522896901,0,0,1711272.46439054,1711273.51146241,9,0,71,16,4
26,661,750.461178598925,0,0,1711275.35855322,1711276.40561393,9,0,68,8,4
26,662,499.088904820383,0,0,1711278.15809278,1711279.20515406,9,0,83,8,8
26,663,665.431691100821,0,0,1711280.82871465,1711281.87578261,9,0,77,4,16
26,664,634.026190964505,1,0,1711283.56992138,1711284.61699684,9,1,79,16,16
26,665,658.982247347012,1,0,1711286.31168422,1711287.35819356,9,1,82,4,8
26,666,595.590614015237,1,0,1711289.22929141,1711290.27636521,9,1,65,0,16
26,667,631.102107698098,0,0,1711291.94698376,1711292.9940564,9,0,86,4,16
26,668,726.544628385454,0,0,1711294.80534169,1711295.85242203,9,0,98,16,8
26,669,478.981559630483,0,0,1711297.67596183,1711298.72303363,9,0,77,0,0
26,670,445.023062638938,0,0,1711300.33481661,1711301.38189387,9,0,95,0,0
26,671,571.017705602571,0,0,1711302.9819152,1711304.02898437,9,0,83,4,4
26,672,491.111294366419,1,0,1711305.79425781,1711306.84077587,9,1,95,4,8
26,673,471.897828625515,0,0,1711308.53491226,1711309.58198785,9,0,70,0,16
26,674,459.22781759873,1,0,1711311.07661975,1711312.12368931,9,1,67,0,0
26,675,626.001375028864,0,0,1711313.67665224,1711314.72372218,9,0,62,16,16
26,676,579.742845613509,1,0,1711316.4885068,1711317.53502672,9,1,93,8,16
26,677,431.524872081354,0,0,1711319.15906299,1711320.20613255,9,0,74,0,4
26,678,991.949884220958,1,0,1711321.67674578,1711322.7238242,9,1,97,8,0
26,679,1090.77351703309,1,0,1711324.74743001,1711325.7939453,9,1,84,0,0
26,680,509.092500200495,0,0,1711327.91162209,1711328.95869012,9,0,88,8,4
26,681,399.61622771807,0,0,1711330.51213417,1711331.55921374,9,0,88,8,8
26,682,565.195636358112,1,0,1711333.00629084,1711334.05336002,9,1,66,0,16
26,683,397.300222422928,0,0,1711335.68817234,1711336.73525185,9,0,87,0,4
26,684,554.268823936582,0,0,1711338.28821598,1711339.33528164,9,0,73,8,8
26,685,559.2144979164,1,0,1711341.06520912,1711342.11227907,9,1,88,16,8
26,686,681.700221495703,0,0,1711343.73583113,1711344.78290108,9,0,94,4,0
26,687,568.317974219099,1,0,1711346.50007732,1711347.54714683,9,1,64,16,0
26,688,543.103801319376,1,0,1711349.13540337,1711350.18246946,9,1,98,0,8
26,689,1096.61999950185,1,0,1711351.88885542,1711352.93593846,9,1,67,16,8
26,690,540.490766521543,0,0,1711355.14771973,1711356.19480161,9,0,65,4,0
26,691,803.931871196255,0,0,1711357.77128604,1711358.81835829,9,0,91,16,4
26,692,504.403756232932,0,0,1711360.70073771,1711361.74779687,9,0,87,8,16
26,693,558.301290264353,0,0,1711363.37086307,1711364.41793199,9,0,78,8,16
26,694,495.900721754879,0,1,1711366.10086074,1711367.14737174,9,1,96,16,0
26,695,1339.74810945801,0,0,1711368.70033473,1711369.74739935,9,0,83,16,0
26,696,600.923782680184,1,0,1711372.14798535,1711373.19450873,9,1,95,16,0
26,697,452.48214667663,1,0,1711375.00678552,1711376.05385508,9,1,65,4,16
26,698,684.003058122471,0,0,1711377.54799251,1711378.59506207,9,0,93,8,8
26,699,691.146313445643,0,0,1711380.476937,1711381.52401376,9,0,70,4,8
26,700,529.956614365801,0,0,1711383.26576685,1711384.31228253,9,0,78,0,16
26,701,885.488930391148,0,0,1711386.0304356,1711387.07750824,9,0,61,16,4
26,702,534.995064139366,1,0,1711389.14812509,1711390.1952012,9,1,81,4,4
26,703,711.824491387233,0,0,1711391.77119411,1711392.81826483,9,0,94,0,4
26,704,466.388010885566,1,0,1711394.56001677,1711395.60657133,9,1,76,8,16
26,705,506.017817184329,1,1,1711397.19479014,1711398.24185932,9,0,98,16,16
26,706,1122.78853845783,0,0,1711399.93599397,1711400.98306572,9,0,100,8,4
26,707,835.334596224129,0,0,1711403.15956429,1711404.20663423,9,0,61,4,4
26,708,935.180076165125,1,0,1711406.12479723,1711407.17186756,9,1,95,16,0
26,709,743.383671389893,1,0,1711409.1483757,1711410.19543294,9,1,93,8,0
26,710,572.43983168155,1,0,1711411.99545458,1711413.04252529,9,1,78,8,4
26,711,648.874985519797,1,0,1711414.61901973,1711415.66609006,9,1,98,0,8
26,712,660.651630721986,0,0,1711417.336199,1711418.38327203,9,0,61,16,4
26,713,555.400304729119,1,0,1711420.2073163,1711421.25438894,9,1,74,8,4
26,714,688.003957271576,1,0,1711422.99558392,1711424.0426558,9,1,82,16,16
26,715,719.103268813342,0,0,1711425.83042317,1711426.87748459,9,0,83,8,0
26,716,686.357864178717,0,0,1711428.80741886,1711429.8544888,9,0,74,16,16
26,717,540.955799398944,1,0,1711431.65450851,1711432.70158231,9,1,86,0,4
26,718,497.753555653617,1,0,1711434.39571658,1711435.44279269,9,1,95,8,16
26,719,761.809442890808,0,0,1711437.10163875,1711438.14870099,9,0,91,4,0
26,720,752.948266686872,1,0,1711440.03057953,1711441.07765621,9,1,82,8,0
