sub_id,Trial,RT,Resp,Error,Fix_onset,Disp_onset,block,tid,tloc,fish_setsize,bird_setsize
1,1,597.3158632,1,0,2290768.404,2290769.451,1,1,62,4,8
1,2,655.3235436,1,0,2290771.251,2290772.298,1,1,89,8,4
1,3,941.3198419,0,0,2290774.145,2290775.192,1,0,75,0,0
1,4,372.1690383,0,0,2290777.145,2290778.192,1,0,65,4,16
1,5,588.571826,1,0,2290779.616,2290780.663,1,1,72,8,0
1,6,651.3803732,0,0,2290782.392,2290783.439,1,0,81,16,16
1,7,595.4661183,1,0,2290785.11,2290786.157,1,1,91,8,0
1,8,399.1260333,1,0,2290787.886,2290788.934,1,1,61,0,16
1,9,566.7602392,0,0,2290790.475,2290791.522,1,0,78,8,4
1,10,600.2742993,0,0,2290793.145,2290794.192,1,0,87,16,16
1,11,376.5194989,1,0,2290795.91,2290796.957,1,1,83,0,8
1,12,378.1344164,0,0,2290798.533,2290799.581,1,0,74,8,0
1,13,414.5052829,1,0,2290801.145,2290802.192,1,1,83,16,0
1,14,487.6450673,0,0,2290803.804,2290804.851,1,0,89,0,16
1,15,529.1636516,0,0,2290806.392,2290807.439,1,0,63,8,0
1,16,446.9741704,0,0,2290809.027,2290810.075,1,0,70,0,4
1,17,639.4781047,1,0,2290811.557,2290812.604,1,1,69,0,8
1,18,483.1248382,1,0,2290814.427,2290815.475,1,1,86,16,8
1,19,502.4969182,1,0,2290817.004,2290818.051,1,1,72,8,8
1,20,622.8273241,0,0,2290819.569,2290820.616,1,0,71,16,4
1,21,607.0531029,1,0,2290822.333,2290823.38,1,1,61,16,16
1,22,576.9944657,0,0,2290825.18,2290826.227,1,0,88,16,16
1,23,672.3461975,0,0,2290827.898,2290828.945,1,0,81,16,8
1,24,397.1719639,1,0,2290830.686,2290831.733,1,1,75,4,16
1,25,647.1192241,1,0,2290833.274,2290834.321,1,1,91,8,16
1,26,583.4899368,1,0,2290836.051,2290837.098,1,1,79,8,16
1,27,548.7813381,0,0,2290838.71,2290839.757,1,0,88,8,0
1,28,581.9073562,1,0,2290841.474,2290842.521,1,1,62,4,0
1,29,615.1831248,0,0,2290844.18,2290845.227,1,0,61,16,8
1,30,544.7292235,1,0,2290846.968,2290848.015,1,1,71,16,8
1,31,403.3132698,1,0,2290849.639,2290850.686,1,1,62,4,8
1,32,647.5153505,0,0,2290852.298,2290853.345,1,0,87,8,16
1,33,761.4619238,0,0,2290855.051,2290856.098,1,0,70,8,8
1,34,559.8551678,0,0,2290857.921,2290858.968,1,0,95,0,4
1,35,533.4837004,0,0,2290860.639,2290861.686,1,0,74,4,0
1,36,657.8173307,0,0,2290863.415,2290864.462,1,0,90,4,4
1,37,619.0589266,1,0,2290866.227,2290867.274,1,1,80,8,8
1,38,434.7847197,1,0,2290869.003,2290870.051,1,1,84,0,8
1,39,649.7877836,0,0,2290871.556,2290872.603,1,0,80,16,0
1,40,863.5339458,1,0,2290874.345,2290875.392,1,1,63,8,4
1,41,393.3134852,0,0,2290877.333,2290878.38,1,0,66,0,4
1,42,497.8554263,0,0,2290879.956,2290881.003,1,0,72,0,16
1,43,573.7126605,1,0,2290882.662,2290883.709,1,1,69,0,8
1,44,495.4070649,0,0,2290885.333,2290886.38,1,0,88,4,0
1,45,460.4089749,0,0,2290887.992,2290889.039,1,0,84,0,16
1,46,419.3715933,1,0,2290890.58,2290891.627,1,1,96,4,0
1,47,414.1884586,0,0,2290893.074,2290894.121,1,0,94,0,0
1,48,485.3379871,0,0,2290895.733,2290896.78,1,0,82,0,0
1,49,445.03011,1,0,2290898.427,2290899.474,1,1,82,4,16
1,50,421.2028598,1,0,2290901.086,2290902.133,1,1,93,0,8
1,51,613.2101924,1,0,2290903.733,2290904.78,1,1,70,4,4
1,52,508.3040767,0,0,2290906.591,2290907.639,1,0,89,0,4
1,53,465.6510083,1,0,2290909.297,2290910.344,1,1,97,16,4
1,54,372.557465,1,0,2290911.838,2290912.885,1,1,67,0,16
1,55,371.752894,0,0,2290914.262,2290915.309,1,0,84,8,16
1,56,400.6966799,1,0,2290916.744,2290917.791,1,1,93,4,8
1,57,373.4575077,0,0,2290919.333,2290920.38,1,0,74,0,0
1,58,447.1755056,1,0,2290921.933,2290922.98,1,1,94,16,0
1,59,627.8222119,0,0,2290924.462,2290925.509,1,0,91,4,8
1,60,569.3710539,1,0,2290927.285,2290928.332,1,1,97,4,4
1,61,520.8507725,1,0,2290929.956,2290931.003,1,1,99,0,0
1,62,649.9972036,1,0,2290932.709,2290933.756,1,1,83,16,4
1,63,536.9945578,0,0,2290935.462,2290936.509,1,0,61,16,8
1,64,440.959902,1,0,2290938.168,2290939.215,1,1,83,4,16
1,65,578.6282462,0,0,2290940.756,2290941.803,1,0,100,8,4
1,66,412.6293613,0,0,2290943.591,2290944.638,1,0,86,0,4
1,67,423.2893558,1,0,2290946.073,2290947.121,1,1,82,8,8
1,68,438.9307648,1,0,2290948.756,2290949.803,1,1,66,4,8
1,69,926.3320994,1,0,2290951.332,2290952.379,1,1,80,16,16
1,70,546.1678281,0,0,2290954.426,2290955.473,1,0,92,16,0
1,71,705.1942735,1,0,2290957.026,2290958.073,1,1,70,4,16
1,72,528.25899,0,0,2290959.932,2290960.979,1,0,73,16,4
1,73,504.6611773,0,0,2290962.603,2290963.65,1,0,88,16,0
1,74,604.1916772,0,0,2290965.32,2290966.367,1,0,81,8,8
1,75,615.4141021,0,0,2290968.026,2290969.073,1,0,100,4,4
1,76,611.0066674,1,0,2290970.767,2290971.814,1,1,91,8,4
1,77,383.0388379,0,0,2290973.462,2290974.509,1,0,76,8,16
1,78,437.3643529,0,0,2290976.026,2290977.073,1,0,100,4,4
1,79,384.8639447,1,0,2290978.697,2290979.744,1,1,97,4,0
1,80,630.0665429,1,0,2290981.308,2290982.356,1,1,61,16,4
1,81,977.7442184,0,0,2291013.002,2291014.049,2,0,75,16,4
1,82,540.4388169,0,0,2291016.179,2291017.226,2,0,71,8,4
1,83,619.0673956,0,0,2291018.814,2291019.861,2,0,99,4,8
1,84,405.9183104,1,0,2291021.649,2291022.696,2,1,75,8,16
1,85,458.180042,0,0,2291024.167,2291025.214,2,0,83,16,8
1,86,367.4698016,1,0,2291026.732,2291027.779,2,1,64,4,8
1,87,391.2011962,1,0,2291029.226,2291030.273,2,1,62,0,0
1,88,380.2474751,0,0,2291031.861,2291032.908,2,0,74,0,8
1,89,371.979252,1,0,2291034.332,2291035.379,2,1,84,0,0
1,90,508.7760407,0,0,2291036.79,2291037.837,2,0,84,8,4
1,91,405.934094,1,1,2291039.555,2291040.602,2,0,82,0,0
1,92,488.014631,0,0,2291042.202,2291043.249,2,0,89,0,8
1,93,477.8177463,1,0,2291044.743,2291045.79,2,1,78,8,16
1,94,498.4286353,1,0,2291047.32,2291048.367,2,1,81,0,4
1,95,501.6138144,1,0,2291049.931,2291050.979,2,1,98,16,0
1,96,398.7383763,0,0,2291052.637,2291053.684,2,0,73,8,8
1,97,386.9361975,1,0,2291055.155,2291056.202,2,1,97,4,4
1,98,497.3376514,0,0,2291057.673,2291058.72,2,0,92,0,8
1,99,619.451588,1,0,2291060.32,2291061.367,2,1,90,16,16
1,100,465.2032964,1,0,2291063.108,2291064.155,2,1,73,4,4
1,101,398.2098228,1,0,2291065.661,2291066.708,2,1,81,0,16
1,102,398.2914346,0,0,2291068.19,2291069.237,2,0,72,8,8
1,103,522.5750194,0,0,2291070.673,2291071.72,2,0,71,16,0
1,104,479.7641165,0,0,2291073.284,2291074.331,2,0,94,16,8
1,105,387.392763,0,0,2291075.943,2291076.99,2,0,76,0,4
1,106,383.2047563,1,0,2291078.472,2291079.52,2,1,87,4,0
1,107,527.2719464,1,0,2291080.92,2291081.967,2,1,79,0,8
1,108,512.0178098,0,0,2291083.602,2291084.649,2,0,62,8,16
1,109,616.6178798,1,0,2291086.284,2291087.331,2,1,91,0,0
1,110,370.8578562,1,0,2291088.978,2291090.025,2,1,84,16,16
1,111,370.3504754,0,0,2291091.484,2291092.531,2,0,76,0,16
1,112,745.2507704,1,0,2291094.014,2291095.061,2,1,77,8,4
1,113,370.8035764,1,0,2291096.978,2291098.025,2,1,66,0,0
1,114,414.9268167,1,0,2291099.543,2291100.59,2,1,77,16,4
1,115,590.045847,0,0,2291102.049,2291103.096,2,0,93,8,0
1,116,370.5779882,1,0,2291104.837,2291105.884,2,1,96,0,4
1,117,550.5598644,0,0,2291107.272,2291108.319,2,0,61,4,16
1,118,473.3279292,0,0,2291110.013,2291111.06,2,0,83,0,16
1,119,441.6162628,1,0,2291112.719,2291113.766,2,1,66,16,0
1,120,477.6718454,1,0,2291115.237,2291116.284,2,1,94,4,0
1,121,502.5758361,0,0,2291117.907,2291118.955,2,0,61,8,4
1,122,535.5732762,1,0,2291120.531,2291121.578,2,1,79,0,16
1,123,380.2728825,0,0,2291123.178,2291124.225,2,0,66,0,4
1,124,511.1832111,1,0,2291125.707,2291126.754,2,1,93,4,8
1,125,807.7559671,1,0,2291128.342,2291129.39,2,1,77,4,0
1,126,405.5048609,0,0,2291131.331,2291132.378,2,0,65,16,4
1,127,456.685618,0,0,2291133.79,2291134.837,2,0,86,16,4
1,128,395.5593561,0,0,2291136.319,2291137.366,2,0,97,8,4
1,129,384.1787116,0,0,2291138.966,2291140.013,2,0,97,16,16
1,130,523.730292,0,0,2291141.59,2291142.637,2,0,93,4,0
1,131,568.1291656,0,0,2291144.201,2291145.248,2,0,69,16,16
1,132,410.8770117,1,0,2291146.837,2291147.884,2,1,73,0,8
1,133,631.4150658,1,0,2291149.46,2291150.507,2,1,79,16,0
1,134,441.5904703,1,0,2291152.284,2291153.331,2,1,66,4,8
1,135,463.4386287,0,0,2291154.813,2291155.86,2,0,87,4,4
1,136,597.6038147,0,0,2291157.531,2291158.578,2,0,62,4,16
1,137,374.5943015,1,0,2291160.272,2291161.319,2,1,76,4,0
1,138,549.6871546,0,0,2291162.825,2291163.872,2,0,71,8,0
1,139,1585.640722,0,0,2291165.625,2291166.672,2,0,71,4,8
1,140,503.9386027,1,0,2291169.342,2291170.389,2,1,71,4,4
1,141,474.0416496,1,0,2291171.954,2291173.001,2,1,63,16,8
1,142,583.5049506,0,0,2291174.613,2291175.66,2,0,77,8,0
1,143,712.4904664,0,0,2291177.389,2291178.437,2,0,76,4,4
1,144,495.4455611,1,0,2291180.272,2291181.319,2,1,85,16,16
1,145,650.777522,1,0,2291182.931,2291183.978,2,1,98,16,8
1,146,375.3623017,1,0,2291185.672,2291186.719,2,1,86,4,16
1,147,436.2999317,1,0,2291188.213,2291189.26,2,1,66,8,16
1,148,462.9551158,0,0,2291190.742,2291191.789,2,0,88,4,16
1,149,654.9855466,1,0,2291193.389,2291194.436,2,1,81,8,8
1,150,549.345308,1,0,2291196.26,2291197.307,2,1,70,4,16
1,151,619.8311611,0,0,2291199.036,2291200.083,2,0,98,16,4
1,152,445.5001489,0,0,2291201.719,2291202.766,2,0,96,16,8
1,153,447.4261161,1,0,2291204.366,2291205.413,2,1,78,8,8
1,154,375.5952041,1,0,2291206.942,2291207.989,2,1,67,8,16
1,155,493.6631015,1,0,2291209.472,2291210.518,2,1,63,8,0
1,156,648.1324453,0,0,2291212.213,2291213.26,2,0,64,0,16
1,157,685.8637691,0,0,2291214.942,2291215.989,2,0,85,0,4
1,158,605.1925798,0,0,2291217.754,2291218.801,2,0,65,8,8
1,159,828.2929435,1,0,2291220.46,2291221.507,2,1,82,16,0
1,160,487.6331333,0,0,2291223.518,2291224.566,2,0,93,8,0
1,161,584.2225202,1,0,2291236.907,2291237.954,3,1,69,4,16
1,162,423.5199485,0,0,2291239.624,2291240.671,3,0,68,0,8
1,163,502.2285995,0,0,2291242.259,2291243.307,3,0,87,16,16
1,164,373.7974293,1,0,2291244.848,2291245.895,3,1,96,16,0
1,165,395.7075668,0,1,2291247.377,2291248.424,3,1,100,0,0
1,166,719.4374986,0,0,2291249.918,2291250.965,3,0,98,8,8
1,167,531.8129631,0,0,2291252.883,2291253.93,3,0,92,8,0
1,168,501.5037153,0,0,2291255.671,2291256.718,3,0,66,4,8
1,169,543.8307207,0,0,2291258.377,2291259.424,3,0,61,16,0
1,170,590.5563072,1,0,2291261.118,2291262.165,3,1,90,0,16
1,171,409.1427559,1,0,2291263.895,2291264.942,3,1,63,0,16
1,172,561.0681842,1,0,2291266.436,2291267.483,3,1,91,4,16
1,173,476.7009704,1,0,2291269.224,2291270.271,3,1,64,4,8
1,174,614.422054,1,0,2291271.953,2291273,3,1,61,16,8
1,175,482.8911661,1,0,2291274.636,2291275.683,3,1,61,8,0
1,176,605.7153586,1,0,2291277.224,2291278.271,3,1,75,4,0
1,177,628.9867233,1,0,2291280.036,2291281.083,3,1,100,8,16
1,178,613.5959248,0,0,2291282.918,2291283.965,3,0,80,0,4
1,179,455.8271514,0,0,2291285.73,2291286.777,3,0,74,4,4
1,180,637.147157,1,0,2291288.247,2291289.294,3,1,82,8,0
1,181,400.6666527,1,0,2291290.977,2291292.024,3,1,65,16,8
1,182,409.3175288,1,0,2291293.506,2291294.553,3,1,95,16,16
1,183,489.8293442,1,0,2291296.036,2291297.083,3,1,79,0,8
1,184,520.9069774,0,0,2291298.73,2291299.777,3,0,80,8,8
1,185,582.2457382,0,0,2291301.447,2291302.494,3,0,100,0,4
1,186,565.7054419,1,0,2291304.283,2291305.33,3,1,97,16,8
1,187,403.229733,0,0,2291307.094,2291308.141,3,0,65,4,8
1,188,388.1915603,1,0,2291309.6,2291310.647,3,1,66,0,16
1,189,525.3421296,0,0,2291312.059,2291313.106,3,0,76,16,16
1,190,585.0109234,1,0,2291314.788,2291315.835,3,1,94,16,4
1,191,454.1933709,0,0,2291317.494,2291318.541,3,0,77,8,8
1,192,528.4025813,0,1,2291320.106,2291321.153,3,1,89,4,0
1,193,424.6625169,0,0,2291322.765,2291323.812,3,0,67,0,0
1,194,445.3673367,0,0,2291325.447,2291326.494,3,0,69,0,0
1,195,555.2344634,1,0,2291327.988,2291329.035,3,1,65,4,4
1,196,618.4760933,0,0,2291330.659,2291331.706,3,0,88,16,0
1,197,418.1986125,0,0,2291333.4,2291334.447,3,0,68,4,4
1,198,515.9809981,0,0,2291335.918,2291336.976,3,0,75,16,4
1,199,522.3528962,0,0,2291338.553,2291339.6,3,0,62,4,0
1,200,476.4322666,0,0,2291341.259,2291342.306,3,0,88,4,0
1,201,574.6669825,0,0,2291343.823,2291344.871,3,0,63,8,16
1,202,537.2755802,1,0,2291346.494,2291347.541,3,1,70,16,16
1,203,563.4857481,0,0,2291349.153,2291350.2,3,0,85,0,4
1,204,466.4105386,0,0,2291351.847,2291352.894,3,0,71,0,0
1,205,391.7174311,0,0,2291354.529,2291355.576,3,0,67,0,0
1,206,650.109997,1,0,2291357.035,2291358.082,3,1,90,8,8
1,207,404.4777812,1,0,2291359.753,2291360.8,3,1,66,0,4
1,208,472.4540645,1,0,2291362.306,2291363.353,3,1,74,16,4
1,209,621.4714865,0,0,2291364.906,2291365.953,3,0,90,16,0
1,210,450.1154637,0,0,2291367.635,2291368.682,3,0,69,16,16
1,211,609.6723871,1,0,2291370.223,2291371.27,3,1,95,8,16
1,212,531.0264849,1,0,2291373.035,2291374.082,3,1,73,4,0
1,213,378.5263081,0,0,2291375.764,2291376.811,3,0,66,0,8
1,214,618.7798288,1,0,2291378.364,2291379.411,3,1,100,8,4
1,215,678.5829742,0,0,2291381.117,2291382.164,3,0,82,16,4
1,216,769.7089743,0,0,2291383.964,2291385.011,3,0,71,16,8
1,217,444.9215503,1,0,2291386.882,2291387.929,3,1,61,0,16
1,218,649.4613355,0,0,2291389.447,2291390.494,3,0,80,4,8
1,219,631.4558722,0,0,2291392.305,2291393.353,3,0,61,8,0
1,220,613.4673469,0,0,2291395.058,2291396.105,3,0,61,8,4
1,221,619.2102171,0,0,2291397.847,2291398.894,3,0,100,8,4
1,222,512.7927391,0,0,2291400.564,2291401.611,3,0,84,4,16
1,223,598.2544012,1,0,2291403.141,2291404.188,3,1,99,4,8
1,224,457.4801801,0,0,2291405.811,2291406.858,3,0,74,4,16
1,225,589.1650533,1,0,2291408.435,2291409.482,3,1,91,0,4
1,226,465.0419974,0,0,2291411.235,2291412.282,3,0,85,4,4
1,227,384.7561548,1,0,2291413.858,2291414.905,3,1,95,0,16
1,228,374.131192,1,0,2291416.388,2291417.435,3,1,95,16,4
1,229,591.5733781,1,0,2291419.011,2291420.058,3,1,61,16,8
1,230,385.2689252,1,0,2291421.741,2291422.788,3,1,71,4,16
1,231,439.5201425,0,0,2291424.352,2291425.399,3,0,78,0,8
1,232,698.9786695,1,0,2291426.929,2291427.976,3,1,70,8,16
1,233,592.9630925,1,0,2291429.882,2291430.929,3,1,88,8,4
1,234,379.0733395,0,0,2291432.682,2291433.729,3,0,87,8,8
1,235,561.7934535,1,0,2291435.223,2291436.27,3,1,79,8,16
1,236,554.5503851,0,0,2291437.999,2291439.046,3,0,85,8,4
1,237,370.4039855,1,0,2291440.646,2291441.693,3,1,96,16,0
1,238,395.2683243,1,0,2291443.246,2291444.293,3,1,84,8,0
1,239,421.7333375,1,0,2291445.858,2291446.905,3,1,67,0,8
1,240,519.9684389,0,0,2291448.423,2291449.47,3,0,78,4,4
1,241,576.7018939,0,0,2291466.258,2291467.305,4,0,75,4,4
1,242,373.7831861,1,0,2291468.987,2291470.034,4,1,77,0,16
1,243,399.7127162,1,0,2291471.505,2291472.552,4,1,94,0,4
1,244,460.3635487,0,0,2291474.14,2291475.187,4,0,64,8,0
1,245,370.8366831,0,0,2291476.823,2291477.87,4,0,67,8,0
1,246,481.0695238,1,0,2291479.375,2291480.423,4,1,61,0,8
1,247,514.408811,0,0,2291481.999,2291483.046,4,0,89,0,0
1,248,444.5439023,0,0,2291484.658,2291485.705,4,0,97,16,8
1,249,372.8334834,0,0,2291487.258,2291488.305,4,0,66,0,16
1,250,471.4173605,0,0,2291489.74,2291490.787,4,0,80,8,0
1,251,379.9487441,0,0,2291492.422,2291493.47,4,0,99,0,16
1,252,564.6433304,1,0,2291494.905,2291495.952,4,1,62,16,8
1,253,418.685975,0,0,2291497.717,2291498.764,4,0,98,4,4
1,254,403.9449934,0,1,2291500.375,2291501.422,4,1,70,0,8
1,255,541.5833103,1,0,2291502.858,2291503.905,4,1,91,0,4
1,256,395.6729202,1,0,2291505.611,2291506.658,4,1,65,16,16
1,257,602.394287,1,0,2291508.14,2291509.187,4,1,96,16,4
1,258,547.7103721,1,0,2291510.916,2291511.963,4,1,84,16,4
1,259,436.2572008,1,0,2291513.681,2291514.728,4,1,78,8,8
1,260,669.6787933,0,0,2291516.352,2291517.399,4,0,71,16,4
1,261,426.9584329,1,0,2291519.222,2291520.269,4,1,84,8,4
1,262,600.0987566,1,0,2291521.881,2291522.928,4,1,87,16,16
1,263,468.1093781,1,0,2291524.728,2291525.775,4,1,80,0,16
1,264,561.2302534,0,0,2291527.434,2291528.481,4,0,96,4,8
1,265,439.123631,1,0,2291530.187,2291531.234,4,1,98,8,4
1,266,597.9310325,0,0,2291532.869,2291533.916,4,0,63,4,16
1,267,387.167945,0,0,2291535.528,2291536.575,4,0,75,0,8
1,268,398.4142379,0,0,2291537.999,2291539.046,4,0,86,4,0
1,269,562.1749512,1,0,2291540.54,2291541.587,4,1,92,4,4
1,270,566.1623925,0,0,2291543.175,2291544.222,4,0,81,8,8
1,271,554.5846466,0,0,2291545.904,2291546.951,4,0,92,8,16
1,272,436.4974173,1,0,2291548.693,2291549.74,4,1,65,0,0
1,273,512.9775209,0,0,2291551.222,2291552.269,4,0,79,8,8
1,274,500.5655615,0,0,2291553.893,2291554.94,4,0,94,8,0
1,275,558.5520696,0,0,2291556.493,2291557.54,4,0,69,8,4
1,276,408.3254808,1,0,2291559.245,2291560.293,4,1,87,8,16
1,277,379.5225904,1,0,2291561.904,2291562.951,4,1,74,0,4
1,278,418.3171811,0,0,2291564.493,2291565.54,4,0,84,8,16
1,279,591.6546052,1,0,2291567.104,2291568.151,4,1,89,4,0
1,280,411.56109,1,0,2291569.845,2291570.892,4,1,74,16,8
1,281,573.5671446,0,0,2291572.445,2291573.492,4,0,91,0,8
1,282,447.2875297,1,0,2291575.081,2291576.128,4,1,92,4,4
1,283,455.4749108,1,1,2291577.739,2291578.787,4,0,68,0,16
1,284,454.4389769,1,0,2291580.398,2291581.445,4,1,68,16,0
1,285,432.7471135,1,0,2291582.916,2291583.963,4,1,83,16,8
1,286,492.2203459,0,0,2291585.586,2291586.634,4,0,77,4,0
1,287,641.4625859,1,0,2291588.245,2291589.292,4,1,98,4,16
1,288,528.9769452,1,0,2291591.116,2291592.163,4,1,91,4,16
1,289,650.4452992,0,0,2291593.739,2291594.786,4,0,69,4,4
1,290,747.346506,0,0,2291596.633,2291597.681,4,0,71,16,0
1,291,411.027147,0,0,2291599.622,2291600.669,4,0,67,0,0
1,292,779.3180216,0,0,2291602.281,2291603.328,4,0,91,16,4
1,293,448.9332442,1,0,2291605.316,2291606.363,4,1,75,8,16
1,294,516.1384479,0,0,2291607.833,2291608.88,4,0,86,4,16
1,295,521.0170769,0,0,2291610.528,2291611.575,4,0,62,0,4
1,296,423.3956053,0,0,2291613.186,2291614.233,4,0,61,0,0
1,297,443.0448585,1,0,2291615.775,2291616.822,4,1,74,8,0
1,298,659.4353276,1,0,2291618.386,2291619.433,4,1,100,16,4
1,299,591.4363316,1,0,2291621.186,2291622.233,4,1,66,16,0
1,300,709.2128964,1,0,2291623.974,2291625.022,4,1,61,8,16
1,301,456.1228026,0,0,2291626.774,2291627.821,4,0,69,8,4
1,302,548.0083334,1,0,2291629.374,2291630.421,4,1,95,0,4
1,303,589.5226831,1,0,2291632.139,2291633.186,4,1,79,16,16
1,304,542.1137884,0,0,2291634.821,2291635.868,4,0,88,8,4
1,305,586.7682765,0,0,2291637.61,2291638.657,4,0,93,4,0
1,306,463.6599822,0,0,2291640.304,2291641.351,4,0,87,4,0
1,307,557.2112454,0,0,2291642.927,2291643.974,4,0,99,16,0
1,308,452.5422668,1,0,2291645.551,2291646.598,4,1,65,16,16
1,309,537.2401639,1,0,2291648.127,2291649.174,4,1,78,4,8
1,310,584.9281568,0,0,2291650.915,2291651.963,4,0,74,4,8
1,311,454.0798073,0,0,2291653.574,2291654.621,4,0,96,8,8
1,312,389.9978041,1,0,2291656.257,2291657.304,4,1,97,4,8
1,313,401.87582,1,0,2291658.715,2291659.763,4,1,76,8,8
1,314,458.8687401,0,0,2291661.315,2291662.362,4,0,64,16,16
1,315,430.8654168,1,0,2291664.01,2291665.057,4,1,64,16,8
1,316,474.4412405,1,0,2291666.633,2291667.68,4,1,73,4,16
1,317,446.3609247,0,0,2291669.292,2291670.339,4,0,87,0,0
1,318,486.5871905,1,0,2291671.798,2291672.845,4,1,98,16,0
1,319,397.0814976,0,0,2291674.515,2291675.562,4,0,87,0,8
1,320,620.3897418,1,0,2291677.033,2291678.08,4,1,61,4,8
1,321,505.3175385,1,0,2291709.633,2291710.68,5,1,97,0,16
1,322,540.066943,0,0,2291712.362,2291713.409,5,0,83,4,16
1,323,498.6157268,1,0,2291715.092,2291716.139,5,1,78,8,0
1,324,453.2448235,1,0,2291717.774,2291718.821,5,1,62,8,16
1,325,611.9144084,0,0,2291720.315,2291721.362,5,0,68,16,4
1,326,372.0624037,0,0,2291723.021,2291724.068,5,0,75,4,8
1,327,624.6601301,1,0,2291725.55,2291726.597,5,1,81,16,4
1,328,416.0166457,0,0,2291728.362,2291729.409,5,0,85,16,8
1,329,479.1651145,0,0,2291730.868,2291731.915,5,0,72,16,0
1,330,404.9585992,0,0,2291733.468,2291734.515,5,0,86,8,4
1,331,586.89185,0,0,2291736.103,2291737.15,5,0,67,16,8
1,332,430.4369534,0,0,2291738.833,2291739.88,5,0,96,0,0
1,333,392.9458461,0,0,2291741.468,2291742.515,5,0,96,8,8
1,334,455.913383,0,0,2291744.115,2291745.162,5,0,96,8,0
1,335,410.6198568,1,0,2291746.797,2291747.844,5,1,83,4,4
1,336,398.3022133,1,0,2291749.432,2291750.479,5,1,74,16,4
1,337,479.3803087,1,0,2291751.985,2291753.032,5,1,63,8,8
1,338,446.9094966,1,0,2291754.515,2291755.562,5,1,62,16,4
1,339,467.6443436,1,0,2291757.197,2291758.244,5,1,71,0,0
1,340,473.5796945,0,0,2291759.738,2291760.785,5,0,94,16,16
1,341,413.4289282,1,0,2291762.279,2291763.326,5,1,94,4,4
1,342,423.3940658,0,0,2291764.926,2291765.973,5,0,73,4,4
1,343,470.9092104,1,0,2291767.503,2291768.55,5,1,67,4,4
1,344,567.2218092,0,0,2291770.068,2291771.115,5,0,100,16,16
1,345,563.6886237,0,0,2291772.75,2291773.797,5,0,62,0,8
1,346,438.3282987,0,0,2291775.42,2291776.468,5,0,81,0,0
1,347,410.2733908,0,0,2291777.926,2291778.973,5,0,82,16,8
1,348,555.2825835,0,0,2291780.432,2291781.479,5,0,90,8,8
1,349,568.5772616,1,0,2291783.197,2291784.244,5,1,98,0,16
1,350,560.8021747,0,0,2291785.95,2291786.997,5,0,82,8,8
1,351,558.3022288,0,0,2291788.573,2291789.62,5,0,91,4,16
1,352,531.4972941,1,0,2291791.232,2291792.279,5,1,99,0,0
1,353,657.41004,0,0,2291793.879,2291794.926,5,0,93,16,8
1,354,504.3424284,1,0,2291796.62,2291797.667,5,1,91,8,16
1,355,460.7785381,1,0,2291799.303,2291800.35,5,1,76,8,4
1,356,385.8194211,1,0,2291801.973,2291803.02,5,1,67,0,16
1,357,539.2773855,1,0,2291804.479,2291805.526,5,1,99,16,16
1,358,493.6574111,0,0,2291807.15,2291808.197,5,0,86,4,0
1,359,438.488828,0,1,2291809.738,2291810.785,5,1,98,8,16
1,360,506.0712947,0,0,2291812.42,2291813.467,5,0,69,8,16
1,361,539.1957727,0,0,2291815.067,2291816.114,5,0,93,4,8
1,362,499.8191195,1,0,2291817.808,2291818.855,5,1,76,16,0
1,363,524.3100454,0,0,2291820.42,2291821.467,5,0,84,4,0
1,364,560.3575432,1,0,2291823.02,2291824.067,5,1,100,0,0
1,365,710.4917411,1,0,2291825.691,2291826.738,5,1,99,8,16
1,366,618.8010019,1,0,2291828.455,2291829.502,5,1,89,8,4
1,367,564.6783621,0,0,2291831.15,2291832.197,5,0,63,4,8
1,368,394.8895214,1,0,2291833.914,2291834.961,5,1,86,0,8
1,369,526.3911523,0,0,2291836.479,2291837.526,5,0,61,4,16
1,370,480.534811,0,0,2291839.244,2291840.291,5,0,77,8,4
1,371,674.8284358,1,0,2291841.844,2291842.891,5,1,91,8,8
1,372,644.0399098,0,0,2291844.667,2291845.714,5,0,81,4,4
1,373,423.943792,0,0,2291847.502,2291848.549,5,0,65,4,16
1,374,618.5322977,1,0,2291849.985,2291851.032,5,1,76,16,4
1,375,391.8614071,1,0,2291852.843,2291853.891,5,1,74,0,8
1,376,527.5849206,1,0,2291855.491,2291856.538,5,1,76,16,8
1,377,507.0394753,0,0,2291858.114,2291859.161,5,0,85,8,4
1,378,548.6935661,0,0,2291860.749,2291861.796,5,0,61,4,8
1,379,622.4000156,0,0,2291863.373,2291864.42,5,0,96,0,4
1,380,494.5616876,0,0,2291866.079,2291867.126,5,0,94,8,0
1,381,392.2906402,1,0,2291868.773,2291869.82,5,1,74,0,16
1,382,491.0770077,0,0,2291871.255,2291872.302,5,0,77,16,0
1,383,402.6599885,0,0,2291873.938,2291874.985,5,0,86,0,4
1,384,485.4388479,1,0,2291876.584,2291877.632,5,1,96,4,8
1,385,488.2663963,1,0,2291879.314,2291880.361,5,1,93,0,8
1,386,525.964614,1,0,2291881.902,2291882.949,5,1,89,0,8
1,387,530.2935163,1,0,2291884.573,2291885.62,5,1,87,8,0
1,388,497.118223,1,0,2291887.22,2291888.267,5,1,98,0,4
1,389,643.9971784,1,0,2291889.949,2291890.996,5,1,70,4,16
1,390,777.0147915,1,0,2291892.714,2291893.761,5,1,79,16,0
1,391,586.7143823,0,0,2291895.643,2291896.69,5,0,100,4,0
1,392,734.8625585,1,0,2291898.443,2291899.49,5,1,89,0,16
1,393,423.7420717,1,0,2291901.302,2291902.349,5,1,98,16,0
1,394,590.8380998,0,0,2291903.902,2291904.949,5,0,93,4,0
1,395,486.6410852,0,0,2291906.643,2291907.69,5,0,92,0,4
1,396,467.7409688,1,0,2291909.302,2291910.349,5,1,77,4,0
1,397,677.6556,1,0,2291911.831,2291912.878,5,1,71,16,16
1,398,632.4779475,1,0,2291914.584,2291915.631,5,1,92,0,4
1,399,746.2262651,0,0,2291917.314,2291918.361,5,0,76,8,0
1,400,558.1590231,0,0,2291920.22,2291921.267,5,0,63,16,16
1,401,583.9657504,0,0,2291943.455,2291944.502,6,0,69,4,0
1,402,531.6420402,1,1,2291946.29,2291947.337,6,0,73,4,16
1,403,567.1317279,0,0,2291948.913,2291949.96,6,0,100,16,0
1,404,417.2211927,0,0,2291951.643,2291952.713,6,0,68,8,8
1,405,455.5318849,0,0,2291954.184,2291955.231,6,0,87,16,8
1,406,383.0757942,1,0,2291956.866,2291957.913,6,1,67,0,4
1,407,489.1699036,0,0,2291959.313,2291960.36,6,0,100,4,4
1,408,406.7490594,0,0,2291961.984,2291963.031,6,0,77,16,4
1,409,414.7828408,0,0,2291964.643,2291965.69,6,0,99,0,16
1,410,682.6347043,1,0,2291967.278,2291968.325,6,1,81,16,4
1,411,458.7043608,1,0,2291970.031,2291971.078,6,1,77,4,8
1,412,495.5136995,0,0,2291972.725,2291973.772,6,0,63,4,4
1,413,591.2992852,1,0,2291975.372,2291976.419,6,1,91,4,16
1,414,409.1634764,1,0,2291978.196,2291979.254,6,1,64,16,0
1,415,559.9271557,0,0,2291980.701,2291981.748,6,0,62,4,0
1,416,524.7492879,0,0,2291983.348,2291984.396,6,0,93,0,16
1,417,500.1563467,1,0,2291986.066,2291987.113,6,1,61,8,0
1,418,407.0039047,0,0,2291988.643,2291989.69,6,0,80,0,0
1,419,493.7513415,1,0,2291991.137,2291992.184,6,1,92,8,16
1,420,565.2969969,0,0,2291993.772,2291994.819,6,0,71,0,4
1,421,551.9180121,1,0,2291996.454,2291997.501,6,1,77,16,4
1,422,653.3563854,1,0,2291999.125,2292000.172,6,1,91,8,4
1,423,454.7804384,0,0,2292002.031,2292003.078,6,0,74,8,16
1,424,567.9886541,1,0,2292004.69,2292005.737,6,1,91,16,8
1,425,404.6209869,0,0,2292007.337,2292008.384,6,0,62,4,0
1,426,439.5524794,1,0,2292009.984,2292011.031,6,1,67,4,16
1,427,684.5125509,0,0,2292012.478,2292013.525,6,0,61,16,0
1,428,660.4035078,0,0,2292015.266,2292016.313,6,0,73,8,4
1,429,559.2650203,1,0,2292018.007,2292019.054,6,1,91,8,4
1,430,528.6508822,1,0,2292020.689,2292021.736,6,1,89,16,0
1,431,411.5918875,1,0,2292023.384,2292024.431,6,1,83,0,0
1,432,466.0606082,0,0,2292025.854,2292026.901,6,0,94,4,8
1,433,581.3360717,0,0,2292028.56,2292029.607,6,0,93,4,4
1,434,472.5129637,1,0,2292031.325,2292032.372,6,1,79,0,16
1,435,411.4090297,0,0,2292033.972,2292035.019,6,0,98,0,8
1,436,595.4299322,1,0,2292036.478,2292037.525,6,1,100,16,8
1,437,640.7330818,0,0,2292039.242,2292040.289,6,0,81,8,8
1,438,559.8913538,0,0,2292041.948,2292042.995,6,0,81,16,8
1,439,653.6874529,1,0,2292044.736,2292045.783,6,1,90,8,4
1,440,497.8123102,1,0,2292047.642,2292048.689,6,1,88,8,8
1,441,478.9182385,1,0,2292050.23,2292051.277,6,1,74,8,0
1,442,833.25203,1,0,2292052.866,2292053.913,6,1,91,16,4
1,443,600.6042124,0,0,2292055.783,2292056.83,6,0,99,0,8
1,444,511.4977253,0,0,2292058.63,2292059.677,6,0,64,0,4
1,445,401.7972876,1,0,2292061.289,2292062.336,6,1,66,4,16
1,446,536.1102992,0,0,2292063.807,2292064.854,6,0,81,0,0
1,447,577.6038608,0,0,2292066.489,2292067.536,6,0,100,8,0
1,448,572.848035,1,0,2292069.195,2292070.242,6,1,80,4,0
1,449,561.5663258,1,0,2292071.877,2292072.924,6,1,81,0,16
1,450,479.4411329,1,0,2292074.666,2292075.713,6,1,78,4,4
1,451,498.8994445,1,0,2292077.395,2292078.442,6,1,69,0,16
1,452,455.8829712,0,0,2292080.089,2292081.136,6,0,66,16,8
1,453,527.6973299,0,0,2292082.677,2292083.724,6,0,71,4,16
1,454,395.1566857,1,0,2292085.301,2292086.348,6,1,77,0,8
1,455,440.2250089,0,0,2292087.865,2292088.912,6,0,63,0,4
1,456,470.5392611,1,0,2292090.371,2292091.418,6,1,82,8,16
1,457,475.6650361,1,0,2292093.089,2292094.136,6,1,63,4,8
1,458,388.6261829,1,0,2292095.771,2292096.818,6,1,61,0,0
1,459,390.3541379,0,0,2292098.348,2292099.395,6,0,63,8,16
1,460,588.9144428,0,0,2292100.948,2292101.995,6,0,98,8,4
1,461,448.1417616,0,0,2292103.701,2292104.748,6,0,87,4,8
1,462,405.7735647,0,0,2292106.242,2292107.289,6,0,76,16,16
1,463,528.6693601,1,0,2292108.724,2292109.771,6,1,70,16,4
1,464,480.4612831,1,0,2292111.371,2292112.418,6,1,62,16,16
1,465,446.4690997,1,0,2292114.018,2292115.065,6,1,67,8,8
1,466,604.2617401,1,0,2292116.606,2292117.653,6,1,99,4,8
1,467,481.1034002,1,0,2292119.348,2292120.395,6,1,61,0,4
1,468,448.8273794,1,0,2292122.089,2292123.136,6,1,88,4,0
1,469,507.7689788,0,0,2292124.736,2292125.783,6,0,95,0,0
1,470,456.364559,0,0,2292127.418,2292128.465,6,0,87,8,0
1,471,492.8301265,0,1,2292129.983,2292131.03,6,1,99,16,0
1,472,476.7294573,0,0,2292132.689,2292133.736,6,0,68,16,16
1,473,597.0552433,0,0,2292135.395,2292136.442,6,0,82,8,8
1,474,593.9289629,1,0,2292138.042,2292139.089,6,1,91,16,16
1,475,507.029851,0,0,2292140.853,2292141.9,6,0,96,8,16
1,476,554.2385657,0,0,2292143.559,2292144.606,6,0,82,0,8
1,477,474.6880014,1,0,2292146.277,2292147.324,6,1,92,16,16
1,478,417.3416863,1,0,2292148.865,2292149.912,6,1,85,0,8
1,479,444.6359086,1,0,2292151.43,2292152.477,6,1,88,4,4
1,480,521.9814079,0,0,2292154.1,2292155.147,6,0,69,8,0
1,481,468.6783529,1,0,2292160.83,2292161.877,7,1,68,8,8
1,482,501.3343319,1,0,2292163.418,2292164.465,7,1,80,8,8
1,483,486.6360808,1,0,2292165.971,2292167.018,7,1,97,16,8
1,484,533.1884343,0,0,2292168.606,2292169.653,7,0,73,16,0
1,485,445.3954389,0,0,2292171.265,2292172.312,7,0,89,0,4
1,486,484.6797017,0,0,2292173.924,2292174.971,7,0,63,0,4
1,487,586.780211,1,0,2292176.63,2292177.677,7,1,61,4,4
1,488,579.5074999,0,0,2292179.465,2292180.512,7,0,82,4,16
1,489,476.2725071,0,0,2292182.159,2292183.206,7,0,81,16,8
1,490,459.8419247,0,0,2292184.782,2292185.829,7,0,91,8,16
1,491,454.7973769,0,0,2292187.441,2292188.488,7,0,62,8,16
1,492,553.9059578,1,0,2292190.135,2292191.182,7,1,64,4,8
1,493,514.1335633,0,0,2292192.794,2292193.841,7,0,71,8,0
1,494,566.5862355,1,0,2292195.418,2292196.465,7,1,71,0,8
1,495,473.0284284,1,0,2292198.088,2292199.135,7,1,84,4,4
1,496,425.0574885,0,0,2292200.641,2292201.688,7,0,95,4,0
1,497,483.77273,1,0,2292203.288,2292204.335,7,1,63,16,4
1,498,455.1469232,1,0,2292206.006,2292207.053,7,1,93,4,16
1,499,413.6722242,1,0,2292208.582,2292209.629,7,1,64,0,4
1,500,390.713064,1,0,2292211.229,2292212.276,7,1,97,4,8
1,501,570.7172677,0,0,2292213.782,2292214.829,7,0,61,16,0
1,502,757.5410809,0,0,2292216.465,2292217.512,7,0,98,4,8
1,503,444.5766243,0,0,2292219.276,2292220.323,7,0,63,0,16
1,504,506.3226749,0,0,2292221.912,2292222.959,7,0,72,16,4
1,505,558.1355402,0,0,2292224.653,2292225.7,7,0,81,0,8
1,506,1188.584299,0,0,2292227.323,2292228.37,7,0,95,0,8
1,507,481.7039422,1,0,2292230.582,2292231.629,7,1,96,4,4
1,508,608.5121105,1,0,2292233.264,2292234.311,7,1,89,8,0
1,509,466.4055342,0,0,2292236.017,2292237.064,7,0,95,0,4
1,510,830.3455636,0,0,2292238.711,2292239.758,7,0,98,16,16
1,511,550.891317,0,0,2292241.782,2292242.829,7,0,72,8,0
1,512,520.6967881,1,0,2292244.429,2292245.476,7,1,93,8,8
1,513,405.0563797,0,0,2292247.1,2292248.147,7,0,75,4,0
1,514,843.0208368,1,0,2292249.641,2292250.688,7,1,81,4,0
1,515,425.2969348,0,0,2292252.711,2292253.758,7,0,67,0,8
1,516,574.3478485,0,0,2292255.311,2292256.358,7,0,61,0,16
1,517,577.9183754,1,0,2292258.088,2292259.135,7,1,85,16,16
1,518,497.7330081,1,0,2292260.829,2292261.876,7,1,61,0,4
1,519,480.0670817,0,0,2292263.441,2292264.488,7,0,89,0,8
1,520,491.8230646,0,0,2292266.088,2292267.135,7,0,84,4,0
1,521,463.7727765,1,0,2292268.688,2292269.735,7,1,82,0,0
1,522,629.2073065,1,0,2292271.252,2292272.299,7,1,98,0,0
1,523,399.5922226,1,0,2292274.029,2292275.076,7,1,96,16,16
1,524,480.393915,1,0,2292276.605,2292277.652,7,1,97,8,4
1,525,588.0348035,1,0,2292279.241,2292280.288,7,1,92,16,8
1,526,422.5752507,1,0,2292281.899,2292282.958,7,1,93,8,8
1,527,493.0799673,1,0,2292284.546,2292285.593,7,1,94,8,0
1,528,578.8931004,0,0,2292287.288,2292288.335,7,0,92,8,0
1,529,373.4220909,1,0,2292289.958,2292291.005,7,1,93,8,4
1,530,489.2538255,1,0,2292292.452,2292293.499,7,1,98,0,16
1,531,410.9582389,1,0,2292295.088,2292296.135,7,1,89,8,16
1,532,491.3534103,1,0,2292297.699,2292298.746,7,1,89,4,0
1,533,433.2641177,0,0,2292300.358,2292301.405,7,0,63,0,0
1,534,491.388442,1,0,2292302.899,2292303.946,7,1,84,8,16
1,535,579.9694555,0,0,2292305.535,2292306.582,7,0,93,4,4
1,536,376.0090386,0,0,2292308.358,2292309.405,7,0,85,4,16
1,537,453.8114881,1,0,2292310.876,2292311.923,7,1,93,16,4
1,538,547.3334943,0,0,2292313.558,2292314.605,7,0,71,16,4
1,539,419.4786125,1,0,2292316.217,2292317.264,7,1,74,16,4
1,540,539.0136857,0,0,2292318.793,2292319.84,7,0,82,8,8
1,541,470.6031652,0,0,2292321.417,2292322.464,7,0,64,16,8
1,542,565.1595648,0,0,2292324.087,2292325.134,7,0,98,8,16
1,543,403.0083795,0,0,2292326.782,2292327.828,7,0,91,4,8
1,544,471.6167711,0,0,2292329.311,2292330.358,7,0,71,16,0
1,545,535.7542089,0,0,2292332.029,2292333.076,7,0,98,4,16
1,546,502.9615681,0,0,2292334.64,2292335.687,7,0,85,16,16
1,547,468.2406504,1,0,2292337.205,2292338.252,7,1,85,8,4
1,548,483.4743841,0,0,2292339.911,2292340.958,7,0,71,0,16
1,549,458.6793385,1,0,2292342.629,2292343.675,7,1,68,16,8
1,550,518.9706162,0,1,2292345.181,2292346.228,7,1,82,8,4
1,551,615.7859759,0,0,2292347.828,2292348.875,7,0,90,0,0
1,552,530.6034111,0,0,2292350.57,2292351.617,7,0,77,4,8
1,553,407.0139141,1,0,2292353.228,2292354.275,7,1,77,8,4
1,554,444.3521914,1,0,2292355.758,2292356.805,7,1,73,0,0
1,555,397.7143764,1,0,2292358.428,2292359.475,7,1,75,16,0
1,556,519.8429408,1,0,2292361.028,2292362.075,7,1,69,0,16
1,557,563.3814237,0,0,2292363.699,2292364.746,7,0,74,4,16
1,558,386.4881014,1,0,2292366.464,2292367.511,7,1,64,4,4
1,559,705.3328599,1,0,2292368.958,2292370.005,7,1,69,16,0
1,560,547.9686824,0,0,2292371.828,2292372.875,7,0,87,16,16
1,561,651.7360788,1,0,2292380.263,2292381.31,8,1,71,8,8
1,562,478.0664318,1,0,2292383.087,2292384.134,8,1,82,4,0
1,563,559.2265241,0,0,2292385.652,2292386.699,8,0,82,16,0
1,564,410.6487292,0,0,2292388.322,2292389.369,8,0,74,0,8
1,565,517.0592777,1,0,2292390.993,2292392.04,8,1,92,4,16
1,566,541.822372,1,0,2292393.628,2292394.675,8,1,71,16,16
1,567,605.3538783,1,0,2292396.299,2292397.346,8,1,71,8,16
1,568,585.3073448,0,0,2292399.004,2292400.052,8,0,89,16,0
1,569,457.4759458,1,0,2292401.757,2292402.804,8,1,93,0,8
1,570,474.044729,1,0,2292404.287,2292405.334,8,1,92,16,0
1,571,585.1040841,0,0,2292406.981,2292408.028,8,0,79,4,8
1,572,465.5439886,1,0,2292409.651,2292410.699,8,1,78,4,16
1,573,400.5777268,1,0,2292412.204,2292413.251,8,1,77,4,8
1,574,380.6832526,1,0,2292414.769,2292415.816,8,1,75,4,16
1,575,406.0022323,0,0,2292417.334,2292418.381,8,0,63,4,16
1,576,511.2910005,0,1,2292419.898,2292420.945,8,1,90,0,4
1,577,517.2983394,1,0,2292422.498,2292423.545,8,1,87,8,0
1,578,502.3706509,1,0,2292425.098,2292426.145,8,1,83,16,0
1,579,686.2899228,1,0,2292427.793,2292428.84,8,1,91,16,8
1,580,494.075865,1,0,2292430.687,2292431.734,8,1,87,0,0
1,581,413.0924707,1,0,2292433.24,2292434.287,8,1,96,4,8
1,582,477.3065159,0,0,2292435.84,2292436.887,8,0,96,0,0
1,583,460.3885715,0,0,2292438.557,2292439.604,8,0,69,0,0
1,584,497.1998353,0,0,2292441.145,2292442.192,8,0,74,4,4
1,585,440.0818027,0,0,2292443.792,2292444.839,8,0,96,0,4
1,586,528.0087646,0,0,2292446.439,2292447.486,8,0,61,16,8
1,587,499.6077754,0,0,2292449.216,2292450.263,8,0,79,0,4
1,588,510.3347534,1,0,2292451.945,2292452.992,8,1,92,8,8
1,589,515.0709469,1,0,2292454.581,2292455.628,8,1,66,0,16
1,590,416.0728496,1,0,2292457.181,2292458.228,8,1,75,4,8
1,591,498.7038835,0,0,2292459.722,2292460.769,8,0,95,4,4
1,592,459.4038376,0,0,2292462.345,2292463.392,8,0,85,0,8
1,593,481.4875931,0,0,2292464.957,2292466.004,8,0,92,0,16
1,594,526.7622559,0,0,2292467.675,2292468.722,8,0,82,8,0
1,595,405.1653245,1,0,2292470.333,2292471.38,8,1,76,0,0
1,596,380.883818,1,0,2292472.922,2292473.969,8,1,85,4,0
1,597,485.2540656,0,0,2292475.451,2292476.498,8,0,99,0,8
1,598,657.0697334,1,0,2292478.18,2292479.227,8,1,64,8,0
1,599,393.1009863,1,0,2292481.039,2292482.086,8,1,75,4,4
1,600,440.8482625,0,0,2292483.627,2292484.674,8,0,86,8,4
1,601,618.4187341,1,0,2292486.157,2292487.204,8,1,71,4,16
1,602,408.1326146,0,0,2292488.98,2292490.039,8,0,84,0,4
1,603,626.926404,1,0,2292491.522,2292492.569,8,1,68,8,8
1,604,486.2684417,0,0,2292494.298,2292495.345,8,0,66,16,16
1,605,553.7277204,1,0,2292497.016,2292498.063,8,1,70,8,8
1,606,530.25964,0,0,2292499.698,2292500.745,8,0,84,16,8
1,607,473.5323442,0,0,2292502.463,2292503.51,8,0,80,4,8
1,608,387.979446,0,0,2292505.074,2292506.121,8,0,77,0,8
1,609,500.6132969,1,0,2292507.651,2292508.698,8,1,73,8,16
1,610,560.7525152,1,0,2292510.216,2292511.263,8,1,88,8,4
1,611,595.7459859,0,0,2292512.863,2292513.91,8,0,91,16,4
1,612,539.6635025,0,0,2292515.71,2292516.757,8,0,91,4,0
1,613,479.0477012,0,0,2292518.333,2292519.38,8,0,96,16,8
1,614,531.9211376,0,0,2292520.968,2292522.015,8,0,73,16,16
1,615,532.6494868,1,0,2292523.557,2292524.604,8,1,84,8,0
1,616,437.6057242,0,0,2292526.204,2292527.251,8,0,87,8,0
1,617,507.2292616,0,1,2292528.733,2292529.78,8,1,82,4,0
1,618,549.1474373,0,0,2292531.439,2292532.486,8,0,92,16,0
1,619,501.9710599,1,0,2292534.227,2292535.274,8,1,87,4,4
1,620,713.4132213,0,0,2292536.792,2292537.839,8,0,99,8,8
1,621,399.270779,1,0,2292539.592,2292540.639,8,1,67,0,0
1,622,659.3148345,0,0,2292542.098,2292543.145,8,0,83,16,16
1,623,579.8073858,0,0,2292544.992,2292546.039,8,0,61,8,4
1,624,476.5681578,0,0,2292547.662,2292548.709,8,0,63,0,16
1,625,449.3586277,1,0,2292550.25,2292551.298,8,1,69,16,4
1,626,703.9731722,1,0,2292552.827,2292553.874,8,1,93,4,0
1,627,539.6611928,0,0,2292555.756,2292556.803,8,0,70,16,8
1,628,663.7014812,0,0,2292558.415,2292559.462,8,0,93,16,4
1,629,691.9188434,1,0,2292561.227,2292562.274,8,1,90,8,16
1,630,626.3605091,1,0,2292564.05,2292565.097,8,1,69,16,4
1,631,837.6987311,1,0,2292566.909,2292567.956,8,1,93,8,4
1,632,481.5122308,0,0,2292569.815,2292570.862,8,0,95,8,4
1,633,725.0798931,0,0,2292572.38,2292573.427,8,0,91,8,16
1,634,639.443073,0,0,2292575.192,2292576.239,8,0,71,0,16
1,635,617.3674017,1,0,2292578.086,2292579.133,8,1,88,8,16
1,636,527.7208127,0,0,2292580.768,2292581.815,8,0,79,16,16
1,637,600.9194967,1,0,2292583.368,2292584.415,8,1,100,0,16
1,638,518.3854736,1,0,2292586.191,2292587.238,8,1,74,0,4
1,639,464.7317179,0,0,2292588.909,2292589.956,8,0,70,4,4
1,640,524.4455524,0,0,2292591.497,2292592.544,8,0,98,16,4
2,1,551.6008724,0,0,273613.9869,273615.034,1,0,68,8,16
2,2,441.2737556,1,0,273616.7163,273617.7634,1,1,79,0,8
2,3,552.8789427,0,0,273619.2575,273620.3046,1,0,72,0,0
2,4,431.1492823,0,0,273622.0223,273623.0693,1,0,78,0,0
2,5,479.6655273,1,0,273624.5988,273625.6458,1,1,82,4,8
2,6,499.5934164,0,0,273627.1988,273628.2459,1,0,89,4,8
2,7,557.1396906,1,0,273629.8812,273630.9282,1,1,95,16,16
2,8,561.1556034,0,0,273632.5871,273633.6342,1,0,80,16,8
2,9,462.174441,0,0,273635.3283,273636.3754,1,0,96,4,16
2,10,587.6332183,1,0,273637.9636,273639.0107,1,1,80,4,0
2,11,463.9587351,0,0,273640.6813,273641.7284,1,0,66,16,8
2,12,596.0904256,1,0,273643.2931,273644.3402,1,1,90,4,4
2,13,634.732037,0,0,273646.0696,273647.1167,1,0,75,8,8
2,14,646.4999086,0,0,273648.9167,273649.9638,1,0,70,0,4
2,15,527.0068714,1,0,273651.7403,273652.7873,1,1,62,0,8
2,16,650.9947128,0,0,273654.3403,273655.3874,1,0,91,0,4
2,17,607.48681,0,0,273657.0697,273658.1168,1,0,94,16,4
2,18,668.8072414,1,0,273659.7874,273660.8345,1,1,89,16,8
2,19,594.0189507,0,0,273662.7051,273663.7522,1,0,61,4,0
2,20,542.5365815,1,0,273665.5286,273666.5757,1,1,93,4,4
2,21,825.4505512,1,0,273668.1875,273669.2346,1,1,67,0,16
2,22,513.4958965,1,0,273671.1405,273672.1876,1,1,63,0,4
2,23,624.7988893,0,0,273673.7993,273674.8464,1,0,91,16,16
2,24,538.7893716,1,0,273676.6582,273677.7053,1,1,66,8,16
2,25,598.6931467,0,0,273679.3994,273680.4465,1,0,94,4,0
2,26,476.9896637,0,0,273682.1288,273683.1759,1,0,94,0,8
2,27,702.2930707,0,0,273684.7995,273685.8465,1,0,81,4,0
2,28,492.8569846,0,0,273687.6701,273688.7172,1,0,73,0,0
2,29,486.9817104,0,0,273690.2348,273691.2819,1,0,68,4,16
2,30,529.4198067,0,0,273692.9643,273694.0113,1,0,72,8,0
2,31,519.8939478,0,0,273695.7408,273696.8231,1,0,87,8,4
2,32,618.0709266,1,0,273698.5526,273699.5996,1,1,62,16,0
2,33,939.0471414,1,0,273701.3996,273702.4467,1,1,90,16,16
2,34,635.0715726,0,0,273704.4467,273705.4938,1,0,74,8,0
2,35,557.0345963,1,0,273707.2468,273708.2938,1,1,88,16,8
2,36,541.2227098,0,0,273709.9645,273711.0235,1,0,76,0,8
2,37,575.0245919,1,0,273712.6115,273713.6586,1,1,79,0,16
2,38,504.9066476,1,0,273715.3057,273716.3528,1,1,95,0,16
2,39,509.9523309,1,0,273717.9175,273718.9645,1,1,78,0,16
2,40,552.1294238,0,0,273720.6234,273721.6705,1,0,63,8,4
2,41,629.6224502,0,0,273723.247,273724.294,1,0,70,8,8
2,42,496.6938904,0,0,273725.9999,273727.047,1,0,76,16,0
2,43,565.1445689,1,0,273728.7294,273729.7764,1,1,72,4,4
2,44,639.1459994,1,0,273731.4823,273732.5294,1,1,70,4,8
2,45,591.2129703,1,0,273734.2353,273735.2824,1,1,84,8,8
2,46,681.6971033,1,0,273736.9648,273738.0116,1,1,82,16,0
2,47,490.3401098,1,0,273739.906,273740.953,1,1,64,0,4
2,48,451.2638775,1,0,273742.6001,273743.6472,1,1,74,8,8
2,49,659.1943813,0,0,273745.2001,273746.2472,1,0,98,8,4
2,50,531.8123391,0,0,273747.9414,273748.9885,1,0,75,16,4
2,51,586.1953891,0,0,273750.5649,273751.612,1,0,70,8,0
2,52,546.2252775,0,0,273753.212,273754.2591,1,0,83,8,16
2,53,662.9770077,1,0,273755.9062,273756.9532,1,1,82,4,16
2,54,734.6174726,0,0,273758.6944,273759.7415,1,0,99,0,0
2,55,537.9705596,1,0,273761.5062,273762.5533,1,1,64,16,16
2,56,485.5981607,0,0,273764.1415,273765.1886,1,0,75,4,8
2,57,604.3628517,0,0,273766.7298,273767.7769,1,0,73,16,16
2,58,529.0579434,1,0,273769.471,273770.5181,1,1,65,4,8
2,59,654.2741952,1,0,273772.1887,273773.2358,1,1,68,8,16
2,60,628.8660018,1,0,273775.024,273776.0711,1,1,90,0,16
2,61,605.3391127,1,0,273777.8005,273778.8476,1,1,90,8,0
2,62,702.2984601,0,0,273780.5417,273781.5888,1,0,83,16,0
2,63,512.4345592,1,0,273783.4594,273784.5065,1,1,98,0,0
2,64,676.9133644,0,0,273786.0359,273787.083,1,0,100,0,8
2,65,525.9624723,0,0,273788.8948,273789.9418,1,0,66,0,4
2,66,532.227712,0,0,273791.6477,273792.6948,1,0,84,4,0
2,67,482.8456898,1,0,273794.389,273795.436,1,1,83,4,16
2,68,618.9163009,1,0,273797.0949,273798.142,1,1,96,16,0
2,69,625.4987484,0,0,273799.9302,273800.9773,1,0,91,4,4
2,70,652.2785576,1,0,273802.6714,273803.7185,1,1,61,16,4
2,71,611.9777645,1,0,273805.4126,273806.4597,1,1,83,4,16
2,72,461.1335066,1,0,273808.2244,273809.2715,1,1,74,8,4
2,73,514.1638038,0,0,273810.8715,273811.9186,1,0,85,16,8
2,74,526.2150067,0,0,273813.5774,273814.6245,1,0,76,8,4
2,75,648.8986004,1,0,273816.1657,273817.2127,1,1,82,8,8
2,76,608.7487119,1,0,273818.9658,273820.0128,1,1,87,16,4
2,77,627.8639485,0,0,273821.6716,273822.7187,1,0,79,8,16
2,78,560.2151438,1,0,273824.5422,273825.5893,1,1,67,16,4
2,79,744.1841374,1,0,273827.2481,273828.2952,1,1,100,8,0
2,80,632.8072322,1,0,273830.1188,273831.1658,1,1,74,4,4
2,81,678.9232456,1,0,273865.9192,273866.9663,2,1,64,0,0
2,82,595.8244177,0,0,273868.8134,273869.8604,2,0,68,8,8
2,83,745.4206321,1,0,273871.6016,273872.6487,2,1,81,16,8
2,84,672.8454819,1,0,273874.4722,273875.5193,2,1,100,0,0
2,85,555.9913521,1,0,273877.3899,273878.437,2,1,94,4,8
2,86,534.3750242,0,0,273880.1547,273881.2017,2,0,89,4,0
2,87,533.6901787,1,0,273882.7782,273883.8253,2,1,87,4,4
2,88,492.6109946,0,0,273885.5312,273886.5782,2,0,88,8,0
2,89,554.7294501,0,0,273888.2842,273889.3312,2,0,99,4,16
2,90,456.7849876,0,0,273891.0842,273892.1312,2,0,87,8,0
2,91,580.259676,0,0,273893.6725,273894.7195,2,0,73,16,0
2,92,433.1753319,1,0,273896.4607,273897.5078,2,1,76,4,16
2,93,628.2962597,1,0,273899.1313,273900.1784,2,1,91,8,0
2,94,612.1790991,0,0,273901.9196,273902.9667,2,0,98,4,0
2,95,499.9391114,0,0,273904.7079,273905.7549,2,0,77,8,4
2,96,680.9346666,1,0,273907.2726,273908.3197,2,1,71,8,8
2,97,609.5398068,0,0,273910.155,273911.2021,2,0,92,8,0
2,98,449.7671493,1,0,273912.861,273913.908,2,1,74,0,4
2,99,558.1309651,1,0,273915.4845,273916.5315,2,1,67,8,16
2,100,699.8874496,1,0,273918.2728,273919.3198,2,1,100,16,8
2,101,516.6402577,1,0,273921.0608,273922.1081,2,1,83,0,8
2,102,589.8209515,0,0,273923.8257,273924.8728,2,0,100,0,0
2,103,515.6532178,1,0,273926.5787,273927.6258,2,1,99,0,4
2,104,485.2389921,1,0,273929.3082,273930.3552,2,1,88,0,16
2,105,525.7449694,1,0,273931.8847,273932.9318,2,1,93,4,16
2,106,458.5985387,0,0,273934.5318,273935.5788,2,0,75,0,8
2,107,473.2932685,1,0,273937.1671,273938.2141,2,1,98,8,0
2,108,449.0772993,0,0,273939.8142,273940.8612,2,0,76,4,16
2,109,583.5945929,1,0,273942.4966,273943.5437,2,1,73,8,8
2,110,510.5782775,1,0,273945.1907,273946.2378,2,1,86,4,8
2,111,494.6893987,0,0,273947.9437,273948.9907,2,0,83,16,4
2,112,567.1802424,1,0,273950.579,273951.6261,2,1,69,8,16
2,113,546.0963155,1,0,273953.379,273954.4261,2,1,95,16,4
2,114,488.3583307,0,0,273956.132,273957.1791,2,0,93,8,16
2,115,469.0633175,1,0,273958.8262,273959.8732,2,1,83,16,4
2,116,511.1672677,0,0,273961.3791,273962.4262,2,0,85,16,0
2,117,615.37543,0,0,273964.0968,273965.1439,2,0,65,8,4
2,118,654.6206601,1,0,273966.9086,273967.9557,2,1,98,0,0
2,119,663.5671528,1,0,273969.7675,273970.8145,2,1,90,0,16
2,120,663.7222921,0,0,273972.5793,273973.6263,2,0,74,8,16
2,121,522.6852997,0,0,273975.3793,273976.4263,2,0,76,4,8
2,122,609.1810231,1,0,273978.0615,273979.1087,2,1,93,8,4
2,123,637.4902823,0,0,273980.8264,273981.8735,2,0,61,0,0
2,124,527.6432119,0,0,273983.6853,273984.7323,2,0,64,0,4
2,125,506.5127048,1,0,273986.4618,273987.5206,2,1,78,16,8
2,126,563.5619943,1,0,273989.1912,273990.2383,2,1,67,16,4
2,127,685.0933998,0,0,273991.8618,273992.9089,2,0,70,0,4
2,128,518.471517,0,0,273994.6854,273995.7325,2,0,93,0,8
2,129,477.4173553,1,0,273997.3795,273998.4266,2,1,76,16,0
2,130,494.9761946,0,0,273999.9678,274001.0149,2,0,83,4,8
2,131,431.6247092,1,0,274002.662,274003.7091,2,1,75,4,4
2,132,498.3430632,0,0,274005.2973,274006.3443,2,0,84,16,0
2,133,661.0445037,0,0,274008.0267,274009.0738,2,0,77,4,4
2,134,644.573179,1,0,274010.815,274011.8621,2,1,93,16,16
2,135,471.0266184,1,0,274013.6386,274014.6856,2,1,86,4,4
2,136,491.9954419,0,0,274016.2386,274017.2857,2,0,94,0,16
2,137,553.94105,1,0,274018.8386,274019.8857,2,1,93,8,16
2,138,583.6353987,1,0,274021.521,274022.5681,2,1,92,16,16
2,139,748.3386362,0,0,274024.2151,274025.2622,2,0,61,8,4
2,140,764.5096913,0,0,274027.1328,274028.1799,2,0,93,16,8
2,141,488.6951716,0,0,274030.1329,274031.1799,2,0,74,0,16
2,142,606.59832,0,0,274032.8388,274033.8858,2,0,79,4,0
2,143,574.9495245,0,0,274035.6623,274036.7094,2,0,79,4,8
2,144,563.5104096,1,0,274038.4388,274039.4859,2,1,70,16,0
2,145,559.483718,0,0,274041.1916,274042.2389,2,0,65,4,4
2,146,615.03012,1,0,274043.8154,274044.8625,2,1,95,16,16
2,147,442.0413678,0,0,274046.6742,274047.7213,2,0,86,0,8
2,148,689.8842391,0,0,274049.2625,274050.3096,2,0,62,16,16
2,149,552.1979468,1,0,274052.1802,274053.2273,2,1,70,8,8
2,150,446.7171036,0,0,274054.9685,274056.0155,2,0,84,0,8
2,151,502.3967021,1,0,274057.4979,274058.545,2,1,98,0,4
2,152,668.6694254,1,0,274060.1215,274061.1685,2,1,67,16,8
2,153,521.1566197,1,0,274062.945,274063.9921,2,1,68,8,8
2,154,720.1798967,1,0,274065.698,274066.7451,2,1,70,4,16
2,155,705.0497761,0,0,274068.6392,274069.6863,2,0,100,4,0
2,156,569.7964371,0,0,274071.5922,274072.6393,2,0,85,16,16
2,157,535.4190383,0,0,274074.4157,274075.4628,2,0,72,4,0
2,158,452.3471576,1,0,274077.0275,274078.0746,2,1,88,16,4
2,159,688.2219776,0,0,274079.6746,274080.7217,2,0,71,8,4
2,160,596.9277158,0,0,274082.4629,274083.51,2,0,88,0,16
2,161,566.85957,0,0,274118.3458,274119.3927,3,0,61,0,0
2,162,582.1302014,1,0,274121.0045,274122.0516,3,1,70,4,8
2,163,466.4093966,0,0,274123.8281,274124.8752,3,0,75,16,4
2,164,574.4109642,0,0,274126.4281,274127.4752,3,0,79,4,16
2,165,576.1898687,0,0,274129.2164,274130.2635,3,0,100,4,4
2,166,504.2510591,1,0,274132.0282,274133.0753,3,1,87,0,8
2,167,707.0431039,0,0,274134.6753,274135.7223,3,0,90,8,4
2,168,600.5390345,1,0,274137.4518,274138.4988,3,1,84,8,0
2,169,510.2922514,1,0,274140.193,274141.24,3,1,66,0,0
2,170,496.4659936,0,0,274142.793,274143.8401,3,0,85,8,0
2,171,613.5349316,0,0,274145.4048,274146.4519,3,0,78,16,8
2,172,462.1505735,1,0,274148.1343,274149.1813,3,1,65,0,16
2,173,600.7107271,1,0,274150.6637,274151.7108,3,1,92,16,8
2,174,453.4947263,1,0,274153.4637,274154.5108,3,1,76,4,16
2,175,528.0593547,0,0,274155.9932,274157.0402,3,0,87,8,16
2,176,629.6755748,1,0,274158.7344,274159.7815,3,1,70,16,8
2,177,571.2846962,0,0,274161.4168,274162.4638,3,0,69,0,8
2,178,692.8264957,0,0,274164.0874,274165.1345,3,0,71,4,4
2,179,621.7565429,0,0,274166.8404,274167.8874,3,0,78,16,16
2,180,469.9244751,1,0,274169.5933,274170.6404,3,1,75,4,0
2,181,584.4992511,1,0,274172.2404,274173.2875,3,1,97,8,16
2,182,613.2516003,1,0,274174.9228,274175.9699,3,1,93,4,4
2,183,534.0054617,1,0,274177.6523,274178.6993,3,1,93,0,0
2,184,518.146225,1,0,274180.4288,274181.4758,3,1,95,16,16
2,185,572.2051378,1,0,274183.0758,274184.1229,3,1,67,0,0
2,186,607.5149121,1,0,274185.8406,274186.8876,3,1,83,0,8
2,187,681.423182,0,0,274188.6524,274189.6994,3,0,92,8,4
2,188,565.5060472,0,0,274191.5112,274192.5583,3,0,67,0,16
2,189,565.1742109,1,0,274194.3348,274195.3819,3,1,70,0,16
2,190,494.2586274,0,0,274197.1465,274198.1937,3,0,73,8,16
2,191,489.7518894,1,0,274199.829,274200.8761,3,1,84,8,4
2,192,584.155481,1,0,274202.4055,274203.4525,3,1,91,0,4
2,193,552.4871879,0,0,274205.2055,274206.2524,3,0,69,8,8
2,194,595.7816869,0,0,274207.8879,274208.935,3,0,83,4,16
2,195,517.7189183,0,0,274210.6879,274211.735,3,0,76,4,16
2,196,621.3276964,1,0,274213.3233,274214.3703,3,1,83,16,16
2,197,599.9188625,0,0,274216.1586,274217.2056,3,0,62,8,4
2,198,561.2395249,0,0,274218.9704,274220.0175,3,0,90,0,8
2,199,562.2473527,0,0,274221.6175,274222.6645,3,0,62,8,0
2,200,628.213878,1,0,274224.3234,274225.3705,3,1,90,0,4
2,201,590.1423938,1,0,274227.1705,274228.2175,3,1,70,0,8
2,202,524.4530404,0,0,274229.8999,274230.947,3,0,86,0,16
2,203,541.4640803,0,0,274232.6529,274233.7,3,0,97,4,8
2,204,631.0468057,0,0,274235.3353,274236.3823,3,0,62,16,0
2,205,545.6328226,1,0,274238.0647,274239.1118,3,1,91,16,0
2,206,507.8743116,0,0,274240.7236,274241.7707,3,0,69,0,4
2,207,551.7063516,0,0,274243.3707,274244.4177,3,0,62,16,4
2,208,425.5080645,0,0,274246.1589,274247.206,3,0,63,16,0
2,209,509.882653,0,0,274248.8413,274249.8884,3,0,73,4,16
2,210,621.2214471,0,0,274251.4531,274252.5002,3,0,100,8,8
2,211,472.528736,0,0,274254.2296,274255.2767,3,0,86,8,16
2,212,504.9601572,1,0,274256.9002,274257.9473,3,1,78,4,8
2,213,412.8082023,1,0,274259.6415,274260.6885,3,1,63,0,4
2,214,683.3279689,1,0,274262.2768,274263.3238,3,1,92,16,8
2,215,713.1359281,0,0,274265.0886,274266.1472,3,0,83,16,4
2,216,668.5562468,1,0,274267.9474,274268.9945,3,1,100,4,0
2,217,495.8808529,0,0,274270.8063,274271.8534,3,0,83,4,4
2,218,388.4617313,1,0,274273.4887,274274.5357,3,1,88,8,16
2,219,527.9003658,1,0,274276.124,274277.1711,3,1,69,4,8
2,220,601.1507374,0,0,274278.8887,274279.9358,3,0,85,8,4
2,221,574.7324066,1,0,274281.6653,274282.7123,3,1,99,8,0
2,222,487.9872284,0,0,274284.43,274285.4771,3,0,97,4,4
2,223,520.7801279,1,0,274287.1242,274288.1712,3,1,64,16,16
2,224,708.4778534,0,0,274289.7124,274290.7595,3,0,100,4,0
2,225,663.6310563,1,0,274292.5242,274293.5713,3,1,79,16,4
2,226,644.6166796,0,0,274295.4184,274296.4654,3,0,63,16,16
2,227,580.848898,1,0,274298.1125,274299.1711,3,1,72,4,0
2,228,642.502089,1,0,274300.8184,274301.8655,3,1,95,8,8
2,229,523.0325345,1,0,274303.7008,274304.7479,3,1,89,16,4
2,230,431.6512714,1,0,274306.3832,274307.4302,3,1,67,0,16
2,231,652.6619787,0,0,274309.042,274310.0891,3,0,100,4,0
2,232,602.1200692,0,0,274311.8068,274312.8539,3,0,69,16,8
2,233,543.3742566,0,0,274314.4892,274315.5362,3,0,95,8,8
2,234,479.5612029,0,0,274317.2421,274318.2892,3,0,73,0,0
2,235,600.1074933,1,0,274319.8304,274320.8775,3,1,100,4,8
2,236,440.8884097,1,0,274322.6187,274323.6658,3,1,68,0,4
2,237,602.5789427,1,0,274325.2069,274326.254,3,1,89,16,0
2,238,482.024953,1,0,274327.8776,274328.9246,3,1,68,8,0
2,239,695.544705,0,1,274330.5599,274331.607,3,1,81,16,0
2,240,663.526347,0,0,274333.36,274334.407,3,0,80,8,8
2,241,544.1738205,1,0,274369.1839,274370.231,4,1,83,0,16
2,242,583.031395,0,0,274371.9722,274373.0193,4,0,66,4,8
2,243,552.4239189,1,0,274374.7016,274375.7487,4,1,63,8,4
2,244,495.1278692,0,0,274377.337,274378.384,4,0,77,16,4
2,245,488.6143298,0,0,274380.0664,274381.1135,4,0,77,16,8
2,246,581.0053454,0,0,274382.7958,274383.8429,4,0,90,0,4
2,247,605.1346984,0,0,274385.5959,274386.643,4,0,62,0,4
2,248,587.1543269,1,0,274388.3018,274389.3489,4,1,69,8,4
2,249,553.7427951,1,0,274391.0312,274392.0783,4,1,95,16,0
2,250,646.8506081,1,0,274393.7489,274394.796,4,1,82,16,16
2,251,588.20835,1,0,274396.6195,274397.6666,4,1,82,8,8
2,252,476.4545679,1,0,274399.3843,274400.4313,4,1,97,8,0
2,253,602.8657386,1,0,274401.949,274402.9961,4,1,61,4,4
2,254,568.4648572,0,0,274404.6314,274405.6785,4,0,62,8,16
2,255,625.7366543,0,0,274407.255,274408.302,4,0,90,0,16
2,256,574.2027003,0,0,274409.9726,274411.0197,4,0,69,16,16
2,257,845.5747705,1,0,274412.655,274413.7021,4,1,91,8,0
2,258,708.7946763,0,0,274415.6198,274416.6668,4,0,97,0,4
2,259,406.3012071,0,0,274418.4433,274419.4904,4,0,74,0,8
2,260,770.2690922,1,0,274420.9492,274421.9963,4,1,88,16,8
2,261,589.3166526,1,0,274423.7963,274424.8434,4,1,95,8,8
2,262,574.0429414,1,0,274426.6317,274427.6787,4,1,73,4,0
2,263,612.5771487,0,0,274429.4199,274430.467,4,0,68,0,4
2,264,596.6593979,1,0,274432.2317,274433.2788,4,1,68,16,8
2,265,709.6708475,0,0,274435.0318,274436.0788,4,0,97,0,8
2,266,713.5154526,0,0,274437.973,274439.02,4,0,100,16,16
2,267,531.2452916,0,0,274440.8083,274441.8554,4,0,68,4,8
2,268,778.4067819,0,0,274443.526,274444.573,4,0,71,16,8
2,269,612.6660747,0,0,274446.5495,274447.5966,4,0,98,16,0
2,270,611.8811393,0,0,274449.3496,274450.3966,4,0,62,8,8
2,271,541.3624506,0,0,274452.079,274453.1261,4,0,87,16,4
2,272,571.2500497,1,0,274454.7849,274455.832,4,1,77,4,16
2,273,655.173849,1,0,274457.585,274458.632,4,1,98,16,0
2,274,725.4546318,1,0,274460.3497,274461.3968,4,1,61,16,4
2,275,543.8096474,1,0,274463.2674,274464.3145,4,1,85,4,16
2,276,548.3849085,1,0,274465.9027,274466.9498,4,1,88,8,0
2,277,523.6365382,1,0,274468.5145,274469.5616,4,1,94,0,0
2,278,547.7412537,1,0,274471.2793,274472.3263,4,1,80,0,8
2,279,784.7251462,0,0,274474.0675,274475.1146,4,0,73,0,0
2,280,550.1237771,0,0,274477.1029,274478.1499,4,0,64,4,4
2,281,754.769409,0,0,274479.7382,274480.7852,4,0,71,8,16
2,282,449.6605151,1,0,274482.6323,274483.6794,4,1,78,0,8
2,283,663.4112436,0,0,274485.2795,274486.3265,4,0,89,4,0
2,284,559.8948562,1,0,274488.0442,274489.0913,4,1,97,8,16
2,285,623.0492417,1,0,274490.7618,274491.8089,4,1,71,0,16
2,286,551.1223659,1,0,274493.5148,274494.5619,4,1,83,4,8
2,287,888.1079521,1,0,274496.2678,274497.3148,4,1,64,16,0
2,288,658.5387927,0,0,274499.2443,274500.2913,4,0,88,8,0
2,289,688.1549944,1,0,274501.9737,274503.0208,4,1,78,16,4
2,290,663.7750317,0,0,274504.9032,274505.9502,4,0,83,0,16
2,291,589.1364908,1,0,274507.7267,274508.7738,4,1,85,8,8
2,292,591.2634002,0,0,274510.3974,274511.4444,4,0,91,0,0
2,293,497.1442948,1,0,274513.2327,274514.2798,4,1,99,4,4
2,294,486.5289963,0,0,274515.9151,274516.9621,4,0,64,8,8
2,295,552.6953164,0,0,274518.5151,274519.5622,4,0,96,4,8
2,296,441.1163066,1,0,274521.3034,274522.3504,4,1,69,0,0
2,297,615.7011069,0,0,274523.974,274525.0211,4,0,64,0,8
2,298,439.3004457,1,0,274526.7623,274527.8093,4,1,87,0,16
2,299,598.2835483,1,0,274529.4211,274530.4682,4,1,79,8,16
2,300,562.4867984,1,0,274532.127,274533.1741,4,1,88,4,16
2,301,564.4951397,0,0,274534.88,274535.9271,4,0,81,16,16
2,302,535.4740878,0,0,274537.5271,274538.5742,4,0,77,16,4
2,303,1037.42353,0,0,274540.233,274541.2801,4,0,93,4,8
2,304,475.8855956,0,0,274543.3625,274544.4096,4,0,74,4,16
2,305,476.1758562,1,0,274545.9272,274546.9743,4,1,97,16,8
2,306,472.4579032,0,1,274548.5978,274549.6449,4,1,63,4,0
2,307,632.7440986,1,0,274551.2685,274552.3155,4,1,88,4,0
2,308,576.3996725,0,0,274554.092,274555.1391,4,0,87,8,4
2,309,726.6868919,1,0,274556.7626,274557.8097,4,1,63,8,4
2,310,917.3399627,0,0,274559.5509,274560.598,4,0,62,8,4
2,311,722.0200101,0,0,274562.6804,274563.7274,4,0,88,8,16
2,312,579.7484479,0,0,274565.5863,274566.6334,4,0,69,4,16
2,313,733.3755885,1,0,274568.4098,274569.4569,4,1,92,16,16
2,314,543.4731916,1,0,274571.3746,274572.4216,4,1,94,4,4
2,315,672.6618555,0,0,274574.1393,274575.1864,4,0,91,0,0
2,316,803.3491725,0,0,274576.9158,274577.9629,4,0,90,8,0
2,317,574.2947059,0,0,274579.8217,274580.8688,4,0,62,4,0
2,318,610.1399609,0,0,274582.61,274583.657,4,0,84,16,0
2,319,784.4321909,1,0,274585.2806,274586.3277,4,1,97,4,4
2,320,634.4925913,1,0,274588.1983,274589.2454,4,1,67,0,4
2,321,626.5350633,1,0,274624.0811,274625.1281,5,1,78,0,4
2,322,620.8268621,0,0,274626.8929,274627.9399,5,0,76,16,8
2,323,551.8145257,0,0,274629.6576,274630.7047,5,0,73,8,8
2,324,569.0507678,0,0,274632.4223,274633.4694,5,0,69,4,16
2,325,559.0514067,0,0,274635.0694,274636.1165,5,0,94,8,4
2,326,511.9683715,1,0,274637.8695,274638.9165,5,1,68,4,16
2,327,540.697623,1,0,274640.4578,274641.5048,5,1,92,16,8
2,328,483.8242606,1,0,274643.1637,274644.2107,5,1,92,4,16
2,329,437.0896149,0,0,274645.8343,274646.8813,5,0,65,0,4
2,330,585.1529148,1,0,274648.4343,274649.4814,5,1,71,0,0
2,331,567.0089348,0,0,274651.2343,274652.2814,5,0,61,4,4
2,332,683.5889724,1,0,274653.9167,274654.9638,5,1,82,16,0
2,333,728.5485631,1,0,274656.7638,274657.8109,5,1,89,0,8
2,334,543.6752961,0,0,274659.5756,274660.6227,5,0,87,4,0
2,335,606.6337364,0,0,274662.1874,274663.2345,5,0,84,0,8
2,336,553.6446301,0,0,274665.0345,274666.0816,5,0,93,8,16
2,337,593.1835854,0,0,274667.7639,274668.811,5,0,97,8,0
2,338,627.5748428,1,0,274670.4816,274671.5287,5,1,96,16,16
2,339,599.7294617,0,0,274673.3052,274674.3523,5,0,86,16,16
2,340,541.2080812,1,0,274676.117,274677.164,5,1,84,0,8
2,341,787.1877415,1,0,274678.917,274679.9641,5,1,70,16,8
2,342,507.5540242,1,0,274681.7994,274682.8465,5,1,88,8,0
2,343,526.439054,0,0,274684.5288,274685.5759,5,0,94,0,0
2,344,555.0986276,0,0,274687.2348,274688.2818,5,0,83,4,4
2,345,723.0058952,0,0,274689.976,274691.023,5,0,68,4,8
2,346,446.0942367,1,0,274692.8348,274693.8819,5,1,95,0,16
2,347,643.982264,1,0,274695.3758,274696.4231,5,1,80,16,16
2,348,524.3360123,0,0,274698.1525,274699.1996,5,0,62,0,16
2,349,550.213473,1,0,274700.8467,274701.8937,5,1,70,16,0
2,350,533.0700066,1,0,274703.4467,274704.4938,5,1,73,4,4
2,351,684.6314467,0,0,274706.082,274707.1291,5,0,62,16,16
2,352,728.8157259,0,0,274708.988,274710.035,5,0,100,16,0
2,353,462.4797151,0,0,274711.9292,274712.9762,5,0,86,0,4
2,354,616.3312881,0,0,274714.5174,274715.5645,5,0,61,0,4
2,355,602.9454254,1,0,274717.2469,274718.2939,5,1,83,4,8
2,356,510.326128,0,0,274719.9175,274720.9646,5,0,77,0,0
2,357,494.2162817,0,0,274722.6705,274723.7175,5,0,79,16,4
2,358,444.6583324,0,0,274725.3997,274726.447,5,0,97,8,0
2,359,464.768693,1,0,274727.9999,274729.047,5,1,78,4,4
2,360,523.2484975,0,0,274730.6823,274731.7294,5,0,73,4,16
2,361,502.397857,0,0,274733.4,274734.4471,5,0,98,8,8
2,362,524.6324322,1,0,274736.1059,274737.153,5,1,82,0,4
2,363,468.7210872,1,0,274738.7177,274739.7648,5,1,78,0,8
2,364,504.3534587,0,0,274741.2942,274742.3413,5,0,94,8,8
2,365,447.176747,1,0,274743.8942,274744.9413,5,1,87,8,0
2,366,481.1091309,0,0,274746.6002,274747.6472,5,0,93,16,4
2,367,499.0171298,1,0,274749.2355,274750.2826,5,1,87,8,4
2,368,774.0898298,1,0,274751.9061,274752.9532,5,1,69,16,8
2,369,525.4720321,0,0,274754.8708,274755.9179,5,0,89,4,8
2,370,665.9362026,1,0,274757.4944,274758.5415,5,1,93,0,0
2,371,528.2780125,0,0,274760.2238,274761.2709,5,0,69,4,0
2,372,676.8594699,1,0,274762.9533,274764.0004,5,1,72,8,16
2,373,558.6637511,1,0,274765.8475,274766.8945,5,1,72,0,16
2,374,462.7576569,1,0,274768.6005,274769.6475,5,1,65,8,4
2,375,453.3461314,0,0,274771.1299,274772.1769,5,0,95,0,0
2,376,560.182807,1,0,274773.824,274774.8711,5,1,82,4,8
2,377,454.1172081,0,0,274776.4711,274777.5182,5,0,67,0,16
2,378,986.3218872,1,0,274779.0829,274780.13,5,1,66,16,4
2,379,599.341421,0,0,274782.2006,274783.2477,5,0,70,4,16
2,380,563.5292727,1,0,274785.0124,274786.0594,5,1,95,4,4
2,381,692.4988939,0,0,274787.7536,274788.8007,5,0,84,16,4
2,382,592.2558295,1,1,274790.5536,274791.6007,5,0,71,8,16
2,383,515.0653824,0,0,274793.2478,274794.2948,5,0,88,16,4
2,384,663.2876712,1,0,274795.9066,274796.9537,5,1,84,16,16
2,385,619.8448268,1,0,274798.6832,274799.7302,5,1,62,8,0
2,386,500.1223528,1,0,274801.4008,274802.4479,5,1,63,8,16
2,387,585.3923605,0,0,274803.9773,274805.0244,5,0,94,8,16
2,388,497.7325151,0,0,274806.695,274807.7421,5,0,92,0,8
2,389,830.8823504,1,0,274809.4481,274810.4951,5,1,86,8,8
2,390,541.9826227,1,0,274812.4125,274813.4598,5,1,68,8,4
2,391,705.730772,1,0,274815.0598,274816.1069,5,1,94,16,0
2,392,843.4624897,1,0,274817.8363,274818.8834,5,1,65,8,4
2,393,569.225925,1,0,274820.8246,274821.8716,5,1,72,4,0
2,394,550.7816754,1,0,274823.46,274824.507,5,1,99,8,8
2,395,574.5845815,0,0,274826.2599,274827.307,5,0,86,4,8
2,396,510.878547,0,0,274828.9659,274830.0129,5,0,68,0,16
2,397,502.900616,0,1,274831.7189,274832.7659,5,1,83,16,0
2,398,841.4429844,1,0,274834.4012,274835.4483,5,1,80,16,8
2,399,703.0860902,0,0,274837.3895,274838.4365,5,0,93,4,0
2,400,645.0385968,0,0,274840.1424,274841.1895,5,0,69,4,0
2,401,531.5536453,1,0,274876.0135,274877.0605,6,1,86,0,4
2,402,483.3449841,0,0,274878.6958,274879.7429,6,0,74,8,16
2,403,511.6988988,1,0,274881.3783,274882.4254,6,1,64,8,0
2,404,422.3429154,0,0,274884.0606,274885.1077,6,0,66,4,0
2,405,491.1115716,1,0,274886.5548,274887.6018,6,1,95,0,16
2,406,556.2927765,1,0,274889.1666,274890.2136,6,1,79,8,16
2,407,612.4312485,0,0,274891.9666,274893.0137,6,0,81,8,0
2,408,549.8608488,0,0,274894.8019,274895.849,6,0,62,4,4
2,409,623.007281,1,0,274897.5549,274898.602,6,1,89,16,16
2,410,557.9338651,0,0,274900.3549,274901.4021,6,0,91,0,0
2,411,653.2140127,0,0,274903.1667,274904.2138,6,0,99,8,8
2,412,458.0669076,1,0,274906.0138,274907.0609,6,1,77,8,8
2,413,468.8458145,1,0,274908.708,274909.7551,6,1,88,8,8
2,414,630.264565,1,0,274911.3315,274912.3786,6,1,91,4,16
2,415,762.3069446,0,0,274914.0374,274915.0845,6,0,79,8,8
2,416,679.9980566,0,0,274916.9787,274918.0257,6,0,61,16,16
2,417,551.6008723,1,0,274919.7552,274920.8022,6,1,72,16,8
2,418,643.912586,1,0,274922.4728,274923.5199,6,1,68,4,8
2,419,474.0123756,0,0,274925.1905,274926.2376,6,0,74,4,4
2,420,509.0349689,0,0,274927.8376,274928.8847,6,0,88,16,16
2,421,453.0466317,0,0,274930.4965,274931.5435,6,0,89,0,4
2,422,413.1207906,0,0,274933.1436,274934.1906,6,0,67,0,0
2,423,676.4221542,1,0,274935.673,274936.7201,6,1,91,4,4
2,424,687.2484113,1,0,274938.4613,274939.5083,6,1,90,8,0
2,425,523.5660904,1,0,274941.2378,274942.2848,6,1,95,8,8
2,426,584.1712644,1,0,274943.8613,274944.9084,6,1,67,4,16
2,427,718.1003376,0,0,274946.6614,274947.7084,6,0,79,16,0
2,428,561.3646372,1,0,274949.579,274950.6261,6,1,92,0,8
2,429,734.1023948,0,0,274952.3673,274953.4144,6,0,70,8,16
2,430,478.2738934,0,0,274955.2732,274956.3203,6,0,88,8,16
2,431,638.0742681,1,0,274957.9203,274958.9674,6,1,68,0,16
2,432,496.9275618,1,0,274960.7675,274961.8145,6,1,79,8,4
2,433,472.006729,0,0,274963.3321,274964.3792,6,0,80,4,4
2,434,608.472695,1,0,274965.9086,274966.9557,6,1,85,16,8
2,435,638.2582794,0,0,274968.591,274969.6381,6,0,63,4,8
2,436,671.3152621,0,0,274971.4967,274972.544,6,0,98,16,8
2,437,635.9873947,0,0,274974.3323,274975.3793,6,0,82,4,8
2,438,540.4404691,0,0,274977.1205,274978.1676,6,0,84,16,4
2,439,513.7072402,0,0,274979.8265,274980.8735,6,0,94,0,16
2,440,522.9212807,0,0,274982.45,274983.4971,6,0,91,16,0
2,441,467.9742629,0,0,274985.1912,274986.2383,6,0,91,0,0
2,442,538.4432917,0,0,274987.7795,274988.8266,6,0,98,4,0
2,443,745.6273561,1,0,274990.4854,274991.5325,6,1,80,16,4
2,444,566.8422467,1,0,274993.3443,274994.3913,6,1,69,4,0
2,445,572.7352291,1,0,274996.0502,274997.0972,6,1,95,8,4
2,446,507.8535238,0,0,274998.862,274999.909,6,0,67,16,16
2,447,562.4240497,0,0,275001.5442,275002.5914,6,0,98,0,0
2,448,453.8623639,1,0,275004.1679,275005.215,6,1,77,8,4
2,449,640.4968274,0,0,275006.7915,275007.8386,6,0,91,0,0
2,450,639.5036281,0,0,275009.4974,275010.5445,6,0,66,16,0
2,451,385.2981221,1,0,275012.3092,275013.3563,6,1,79,0,4
2,452,691.3266878,1,0,275014.8033,275015.8504,6,1,82,4,8
2,453,511.2046089,1,0,275017.5916,275018.6387,6,1,75,4,4
2,454,488.3136753,1,0,275020.3093,275021.3563,6,1,97,16,8
2,455,440.2316663,1,0,275022.8505,275023.8976,6,1,95,4,16
2,456,501.4300652,0,0,275025.3682,275026.4152,6,0,69,0,4
2,457,796.7724995,1,0,275028.0506,275029.0978,6,1,92,8,0
2,458,539.0318969,1,0,275031.0506,275032.0977,6,1,61,16,0
2,459,479.7660022,1,0,275033.7918,275034.8389,6,1,98,0,8
2,460,584.9708283,0,0,275036.4507,275037.4977,6,0,71,4,16
2,461,756.4663169,0,0,275039.2389,275040.286,6,0,99,8,0
2,462,499.2084554,1,0,275042.2272,275043.2743,6,1,94,0,4
2,463,712.0071755,1,0,275044.8625,275045.9096,6,1,73,16,4
2,464,766.2266171,0,0,275047.7802,275048.8273,6,0,70,0,8
2,465,553.3616838,0,0,275050.6979,275051.7449,6,0,100,0,8
2,466,617.4372808,1,0,275053.392,275054.4391,6,1,92,0,16
2,467,505.1965232,1,0,275056.1332,275057.1803,6,1,82,0,16
2,468,692.4461543,0,0,275058.7097,275059.7568,6,0,67,4,8
2,469,618.856632,1,0,275061.6275,275062.6745,6,1,70,4,0
2,470,496.6911958,1,1,275064.4157,275065.4628,6,0,79,8,4
2,471,532.5460747,0,0,275067.0157,275068.0628,6,0,69,16,8
2,472,583.888703,0,0,275069.6393,275070.6864,6,0,75,8,4
2,473,587.5296638,0,0,275072.4276,275073.4746,6,0,83,8,16
2,474,551.4969329,1,0,275075.0746,275076.1217,6,1,72,16,4
2,475,644.8846125,0,1,275077.7923,275078.8394,6,1,97,4,16
2,476,957.8232273,1,0,275080.6041,275081.6512,6,1,98,16,16
2,477,521.8387705,0,0,275083.7924,275084.8395,6,0,95,0,8
2,478,813.7885439,1,0,275086.4984,275087.5454,6,1,87,16,4
2,479,696.1837402,0,0,275089.3689,275090.416,6,0,81,16,0
2,480,522.5755858,1,0,275092.2043,275093.2513,6,1,97,4,0
2,481,589.9864846,0,0,275128.0047,275129.0517,7,0,98,16,8
2,482,559.0136806,0,0,275130.6635,275131.7106,7,0,100,0,16
2,483,566.2767391,1,0,275133.3224,275134.3695,7,1,63,4,8
2,484,506.5804578,0,0,275136.0871,275137.1342,7,0,75,8,0
2,485,569.8911375,1,0,275138.8166,275139.8636,7,1,70,16,0
2,486,509.6301186,1,0,275141.499,275142.546,7,1,78,0,8
2,487,511.7743511,0,0,275144.2167,275145.2638,7,0,73,0,16
2,488,479.4195372,0,0,275146.8049,275147.852,7,0,95,0,8
2,489,534.7130199,1,0,275149.3696,275150.4167,7,1,72,0,0
2,490,626.3445076,0,0,275152.1461,275153.1932,7,0,97,4,16
2,491,814.3879281,0,0,275155.005,275156.0521,7,0,96,16,0
2,492,515.3479438,1,0,275158.005,275159.0521,7,1,82,16,4
2,493,426.3757664,0,0,275160.6168,275161.6639,7,0,95,16,16
2,494,482.004935,0,0,275163.1935,275164.2404,7,0,75,8,8
2,495,644.0230698,1,0,275165.7934,275166.8404,7,1,66,4,0
2,496,556.307405,0,0,275168.5228,275169.5699,7,0,84,0,0
2,497,540.994428,1,0,275171.3111,275172.3581,7,1,92,8,16
2,498,767.2667817,0,0,275174.0288,275175.0758,7,0,82,16,8
2,499,617.9319557,0,0,275176.9111,275177.9582,7,0,91,0,16
2,500,588.4597295,1,0,275179.5818,275180.6288,7,1,66,4,16
2,501,587.3356435,0,0,275182.3818,275183.4289,7,0,87,16,16
2,502,507.0066096,0,0,275185.123,275186.1701,7,0,73,0,0
2,503,609.4943814,1,0,275187.6995,275188.7466,7,1,73,0,4
2,504,723.2330221,0,0,275190.3937,275191.4407,7,0,91,4,8
2,505,539.7336808,0,0,275193.2172,275194.2643,7,0,74,4,0
2,506,423.7122215,1,0,275196.0173,275197.1465,7,1,96,0,8
2,507,462.2010034,0,0,275198.7467,275199.7938,7,0,86,8,8
2,508,615.523255,1,0,275201.3114,275202.3585,7,1,80,8,4
2,509,654.8131406,0,0,275204.0291,275205.0762,7,0,89,8,0
2,510,577.6226934,1,0,275206.735,275207.7822,7,1,85,8,4
2,511,712.1580802,0,0,275209.5115,275210.5586,7,0,72,4,4
2,512,443.5149983,0,0,275212.4175,275213.4645,7,0,86,4,8
2,513,526.1684264,1,0,275214.9587,275216.0057,7,1,77,8,16
2,514,620.9177129,0,0,275217.5587,275218.6058,7,0,80,16,8
2,515,535.6769622,1,0,275220.2999,275221.347,7,1,74,4,0
2,516,465.5012737,1,0,275223.0882,275224.1352,7,1,75,8,16
2,517,693.6195152,0,0,275225.6882,275226.7353,7,0,82,0,16
2,518,551.2282301,0,0,275228.5235,275229.5706,7,0,87,4,0
2,519,587.4245695,0,0,275231.1471,275232.1941,7,0,90,8,4
2,520,579.1444441,1,0,275233.9354,275234.9824,7,1,88,0,4
2,521,436.625352,0,0,275236.6648,275237.7119,7,0,76,0,0
2,522,435.3084005,0,0,275239.1942,275240.2413,7,0,68,8,0
2,523,447.856973,0,0,275241.8766,275242.9237,7,0,96,0,8
2,524,861.2253583,0,0,275244.5472,275245.5943,7,0,94,8,8
2,525,509.6924822,0,0,275247.5708,275248.6179,7,0,68,4,16
2,526,578.83994,0,0,275250.3356,275251.3826,7,0,90,0,8
2,527,433.53835,0,1,275253.0179,275254.065,7,1,79,16,4
2,528,753.7943029,1,0,275255.6886,275256.7357,7,1,62,4,4
2,529,614.5208167,0,0,275258.6298,275259.6768,7,0,69,8,0
2,530,604.4213658,1,0,275261.4768,275262.5239,7,1,90,16,16
2,531,783.701535,1,0,275264.1357,275265.1828,7,1,81,4,4
2,532,629.5897285,1,0,275266.9946,275268.0416,7,1,74,16,8
2,533,582.1101834,0,0,275269.7122,275270.7593,7,0,95,0,4
2,534,634.8425208,1,0,275272.4064,275273.4535,7,1,96,4,8
2,535,581.1462411,1,0,275275.23,275276.277,7,1,78,8,4
2,536,529.7531829,1,0,275278.0065,275279.0535,7,1,70,0,4
2,537,690.6360678,0,0,275280.7006,275281.7477,7,0,71,4,4
2,538,713.718712,0,0,275283.5713,275284.6183,7,0,93,16,0
2,539,565.5614816,1,0,275286.4066,275287.4536,7,1,63,0,16
2,540,769.1130544,1,0,275289.136,275290.1831,7,1,100,16,16
2,541,588.6679933,1,0,275292.0184,275293.0655,7,1,71,4,4
2,542,791.5050787,0,0,275294.7596,275295.8067,7,0,61,16,4
2,543,678.9625116,1,0,275297.7479,275298.7949,7,1,83,8,16
2,544,678.8436175,1,0,275300.6656,275301.7242,7,1,66,8,0
2,545,552.7507507,0,0,275303.5479,275304.5951,7,0,73,8,16
2,546,518.7610076,0,0,275306.3362,275307.3833,7,0,77,16,4
2,547,693.2353242,0,0,275309.0186,275310.0657,7,0,71,8,8
2,548,443.6693676,1,0,275311.7951,275312.8422,7,1,63,8,8
2,549,659.3287326,1,0,275314.3834,275315.4304,7,1,80,16,16
2,550,501.2483636,1,0,275317.1246,275318.1716,7,1,88,0,0
2,551,488.4468718,0,0,275319.8423,275320.8893,7,0,73,8,4
2,552,582.2195123,1,0,275322.4776,275323.5247,7,1,68,16,4
2,553,601.4475424,0,0,275325.3011,275326.3482,7,0,63,16,8
2,554,624.0489854,1,0,275328.1247,275329.1718,7,1,89,16,0
2,555,412.0255766,1,0,275330.9247,275331.9718,7,1,76,4,0
2,556,553.1322471,1,0,275333.4424,275334.4895,7,1,80,4,16
2,557,597.1232759,1,0,275336.1366,275337.1836,7,1,93,16,0
2,558,585.8597032,1,0,275338.9249,275339.9719,7,1,90,0,4
2,559,588.9971349,1,0,275341.6896,275342.7367,7,1,68,4,8
2,560,598.0879881,1,0,275344.4073,275345.4543,7,1,83,4,16
2,561,723.4778573,1,0,275380.2547,275381.3018,8,1,65,4,8
2,562,560.7117434,1,0,275383.2195,275384.2665,8,1,73,4,8
2,563,590.2871391,0,0,275385.9489,275386.996,8,0,72,16,8
2,564,679.9014314,0,0,275388.596,275389.6431,8,0,79,4,0
2,565,509.7790985,0,0,275391.4902,275392.5372,8,0,63,0,4
2,566,663.2110639,1,0,275394.0667,275395.1137,8,1,99,4,16
2,567,622.0622018,1,0,275396.8079,275397.8549,8,1,79,0,0
2,568,524.5300326,1,0,275399.5256,275400.5726,8,1,86,0,4
2,569,504.0893755,0,0,275402.1609,275403.2079,8,0,86,8,4
2,570,548.7883475,0,0,275404.7492,275405.7962,8,0,64,16,4
2,571,598.4864227,0,0,275407.4904,275408.5374,8,0,99,0,16
2,572,513.7049303,0,0,275410.3492,275411.3963,8,0,94,16,8
2,573,547.3351199,0,0,275413.0904,275414.1375,8,0,91,8,16
2,574,518.3648828,1,0,275415.7964,275416.8434,8,1,85,16,0
2,575,437.9519275,0,0,275418.3728,275419.4199,8,0,66,16,16
2,576,761.3395377,1,0,275421.0552,275422.1023,8,1,74,0,4
2,577,584.4930917,1,0,275423.9023,275424.9494,8,1,90,8,4
2,578,587.8869076,1,0,275426.5847,275427.6318,8,1,82,8,16
2,579,493.9980088,0,0,275429.4318,275430.4789,8,0,96,4,4
2,580,478.2273131,0,0,275432.0553,275433.1024,8,0,63,0,0
2,581,501.6348644,0,0,275434.6201,275435.6672,8,0,87,16,0
2,582,535.1330123,1,0,275437.3613,275438.4084,8,1,74,0,8
2,583,512.3841293,1,0,275440.126,275441.1731,8,1,63,16,4
2,584,590.72253,1,0,275442.8437,275443.8908,8,1,99,0,4
2,585,649.0818418,1,0,275445.6555,275446.7026,8,1,91,4,0
2,586,557.2478647,0,0,275448.4791,275449.5261,8,0,90,4,4
2,587,715.404841,0,0,275451.185,275452.2321,8,0,71,4,8
2,588,609.6526003,0,0,275454.0909,275455.138,8,0,80,16,0
2,589,476.7174962,0,0,275456.7615,275457.8086,8,0,89,0,8
2,590,524.1881872,1,0,275459.338,275460.3851,8,1,95,4,16
2,591,557.1781867,1,0,275462.0792,275463.1263,8,1,80,4,8
2,592,469.5383593,1,0,275464.7969,275465.844,8,1,75,8,16
2,593,682.8305993,0,0,275467.4793,275468.5264,8,0,91,16,16
2,594,656.5123583,0,0,275470.3617,275471.4088,8,0,70,16,16
2,595,467.9742629,0,0,275473.0911,275474.1382,8,0,64,0,4
2,596,586.3786305,1,0,275475.7147,275476.7618,8,1,92,16,8
2,597,1227.255479,1,0,275478.4088,275479.4559,8,1,81,16,8
2,598,446.7009352,1,0,275481.8324,275482.8795,8,1,93,8,0
2,599,482.2401462,0,0,275484.3619,275485.4089,8,0,96,4,0
2,600,563.5369719,1,0,275486.9266,275487.9737,8,1,98,0,8
2,601,508.4602222,0,0,275489.6207,275490.6678,8,0,69,16,0
2,602,577.5749583,1,0,275492.2914,275493.3384,8,1,81,16,8
2,603,561.2252813,1,0,275494.9737,275496.0208,8,1,70,4,0
2,604,546.0401113,1,0,275497.6091,275498.6562,8,1,72,0,8
2,605,566.7390772,0,0,275500.2562,275501.3033,8,0,74,8,8
2,606,480.1794502,1,0,275503.0327,275504.0797,8,1,95,0,16
2,607,527.6158797,0,0,275505.6562,275506.7033,8,0,62,4,16
2,608,529.4583028,0,0,275508.2916,275509.3386,8,0,90,8,8
2,609,600.5170917,0,0,275510.9622,275512.0092,8,0,92,4,4
2,610,567.0970909,1,0,275513.7387,275514.7858,8,1,72,0,16
2,611,607.2154125,1,0,275516.5505,275517.5975,8,1,82,8,8
2,612,592.457934,1,0,275519.3623,275520.4093,8,1,76,4,4
2,613,610.0802919,1,0,275522.0917,275523.1388,8,1,100,4,16
2,614,606.0720784,1,0,275524.7976,275525.8447,8,1,65,0,16
2,615,678.2665022,1,0,275527.5035,275528.5506,8,1,94,8,8
2,616,705.248031,0,0,275530.3624,275531.4095,8,0,61,8,16
2,617,665.0400135,1,0,275533.1507,275534.1977,8,1,93,16,0
2,618,556.3362771,0,0,275535.9272,275536.9742,8,0,88,0,8
2,619,764.4873635,1,0,275538.6801,275539.7272,8,1,100,8,8
2,620,616.7224084,0,0,275541.7037,275542.7508,8,0,86,4,0
2,621,622.7343437,0,0,275544.5037,275545.5508,8,0,83,8,0
2,622,634.1068604,1,0,275547.3744,275548.4214,8,1,85,0,0
2,623,654.3812144,0,0,275550.2332,275551.2803,8,0,62,16,4
2,624,565.6099867,1,0,275553.0568,275554.1039,8,1,94,4,16
2,625,671.9385139,1,0,275555.8804,275556.9274,8,1,91,8,0
2,626,452.5334788,1,0,275558.7157,275559.7627,8,1,78,8,0
2,627,454.3173879,0,0,275561.2569,275562.3039,8,0,65,8,4
2,628,469.9953079,1,0,275563.8334,275564.8805,8,1,62,4,4
2,629,566.7610199,0,0,275566.4217,275567.4687,8,0,89,0,0
2,630,570.172929,0,0,275569.1511,275570.1982,8,0,98,0,16
2,631,647.4068766,1,0,275571.9156,275572.9629,8,1,82,16,4
2,632,459.9847831,0,0,275574.7983,275575.8453,8,0,67,8,4
2,633,626.6913574,0,0,275577.3865,275578.4336,8,0,88,8,16
2,634,524.8460855,0,0,275580.1042,275581.1512,8,0,74,4,8
2,635,580.8994811,1,0,275582.7042,275583.7513,8,1,69,8,4
2,636,574.1233983,0,0,275585.4101,275586.4572,8,0,89,8,0
2,637,579.4066025,0,0,275588.1749,275589.2219,8,0,61,0,0
2,638,544.7062216,0,0,275590.9984,275592.0455,8,0,71,16,4
2,639,470.4726596,0,0,275593.6455,275594.6926,8,0,66,16,16
2,640,571.9922544,1,0,275596.222,275597.2691,8,1,73,16,16
3,1,650.6874926,1,0,13992.63603,13993.68312,1,1,87,0,16
3,2,602.1883842,0,0,13995.3655,13996.41257,1,0,78,16,0
3,3,588.3994145,0,0,13998.08318,13999.13025,1,0,98,4,8
3,4,644.9045868,1,0,14000.81264,14001.85972,1,1,84,4,4
3,5,774.4817903,1,0,14003.54209,14004.58916,1,1,85,4,4
3,6,601.7930278,1,0,14006.41272,14007.4598,1,1,75,8,4
3,7,551.2878801,1,0,14009.08335,14010.13043,1,1,98,8,0
3,8,624.4218901,1,0,14011.75398,14012.80106,1,1,73,0,8
3,9,499.2809938,1,0,14014.58932,14015.63639,1,1,64,0,4
3,10,1197.09202,0,0,14017.18936,14018.23643,1,0,63,0,4
3,11,690.157307,0,0,14020.49529,14021.54237,1,0,89,0,8
3,12,677.1475012,0,0,14023.24828,14024.29535,1,0,73,0,0
3,13,563.3160316,0,0,14026.10714,14027.15421,1,0,86,4,16
3,14,814.6834182,1,0,14028.93075,14029.97778,1,1,72,4,16
3,15,650.3487257,1,0,14031.91899,14032.96606,1,1,65,0,0
3,16,627.0246212,0,0,14034.70728,14035.75434,1,0,77,0,0
3,17,815.6519837,0,0,14037.48379,14038.53085,1,0,92,4,0
3,18,549.5717175,1,0,14040.43678,14041.48384,1,1,66,0,4
3,19,853.2439512,0,0,14043.16622,14044.2133,1,0,80,8,16
3,20,656.5697188,1,0,14046.24865,14047.2957,1,1,99,4,0
3,21,626.7451384,0,0,14049.04866,14050.09574,1,0,92,4,8
3,22,639.2360148,0,0,14051.82518,14052.87225,1,0,84,16,4
3,23,493.4753752,1,0,14054.6017,14055.64876,1,1,64,8,4
3,24,716.7139411,1,0,14057.31939,14058.36646,1,1,87,16,8
3,25,571.8179271,1,0,14060.21357,14061.26062,1,1,65,8,0
3,26,575.8946794,0,0,14062.93124,14063.9783,1,0,76,8,4
3,27,679.2085901,1,0,14065.74305,14066.79012,1,1,69,4,16
3,28,607.1697982,0,0,14068.64897,14069.69605,1,0,87,0,16
3,29,1082.845027,1,0,14071.42549,14072.47235,1,1,92,0,8
3,30,657.6441489,1,0,14074.68436,14075.73147,1,1,93,16,8
3,31,663.6638067,0,0,14077.53146,14078.57853,1,0,76,16,16
3,32,729.2891243,1,0,14080.41386,14081.46094,1,1,98,4,8
3,33,933.8177454,0,0,14083.24919,14084.2963,1,0,83,8,8
3,34,786.4110064,1,0,14086.33159,14087.37866,1,1,70,16,4
3,35,1043.9043,1,0,14089.20225,14090.2493,1,1,79,4,0
3,36,717.8117391,1,0,14092.44938,14093.49621,1,1,89,8,0
3,37,795.3421351,1,0,14095.33173,14096.3788,1,1,77,4,4
3,38,876.1295835,0,0,14098.32001,14099.36708,1,0,92,8,16
3,39,719.2111925,1,0,14101.33182,14102.37889,1,1,67,16,4
3,40,758.4142278,0,0,14104.24952,14105.29658,1,0,81,4,0
3,41,752.7560498,1,0,14107.12015,14108.16727,1,1,63,8,4
3,42,903.0457726,0,0,14109.99078,14111.03785,1,0,64,16,4
3,43,697.5947814,0,0,14113.12023,14114.16731,1,0,63,16,16
3,44,599.6256892,1,0,14115.96734,14117.01442,1,1,80,16,16
3,45,700.5243455,0,0,14118.6262,14119.67328,1,0,63,8,0
3,46,885.1904445,0,0,14121.46155,14122.50862,1,0,62,4,8
3,47,788.2719149,0,0,14124.50865,14125.55572,1,0,89,8,4
3,48,720.2224888,0,0,14127.5087,14128.55577,1,0,94,16,8
3,49,823.9178973,1,0,14130.30874,14131.35581,1,1,71,0,16
3,50,592.7791322,0,0,14133.25001,14134.29703,1,0,75,8,16
3,51,558.5886928,0,0,14135.94412,14136.99119,1,0,76,4,4
3,52,608.4775156,0,0,14138.59122,14139.63829,1,0,95,0,16
3,53,621.6628643,0,0,14141.25008,14142.29715,1,0,98,0,8
3,54,888.8291095,0,0,14144.10895,14145.15605,1,0,64,16,0
3,55,760.7359363,0,0,14147.16782,14148.21492,1,0,95,8,16
3,56,610.9859309,1,0,14150.13257,14151.17965,1,1,62,0,8
3,57,671.7014375,0,0,14152.92089,14153.96793,1,0,77,16,16
3,58,579.1595459,1,0,14155.79148,14156.83856,1,1,63,8,8
3,59,595.3082609,0,0,14158.4974,14159.54427,1,0,67,16,8
3,60,532.2168406,1,0,14161.34451,14162.39158,1,1,74,0,4
3,61,885.3956295,1,0,14163.95631,14165.00338,1,1,61,16,0
3,62,690.1707806,0,0,14167.00341,14168.05049,1,0,71,4,16
3,63,535.6072049,1,0,14169.92111,14170.96818,1,1,84,16,16
3,64,511.1574702,1,0,14172.70938,14173.75646,1,1,95,0,0
3,65,707.3528094,0,0,14175.36825,14176.41532,1,0,74,16,0
3,66,734.7378827,1,0,14178.23889,14179.28595,1,1,73,0,4
3,67,728.5923422,0,0,14181.03892,14182.086,1,0,99,16,0
3,68,593.9417187,1,0,14184.00369,14185.05075,1,1,99,4,16
3,69,755.5374035,0,0,14186.69784,14187.7449,1,0,74,8,0
3,70,587.2029512,0,0,14189.58027,14190.62731,1,0,74,0,0
3,71,676.3452395,1,0,14192.33322,14193.38028,1,1,69,0,16
3,72,704.1426075,0,0,14195.13326,14196.18033,1,0,75,8,8
3,73,919.2857982,0,0,14198.08625,14199.13332,1,0,67,8,16
3,74,706.8361898,1,0,14201.16871,14202.21572,1,1,68,4,0
3,75,604.9855213,1,0,14204.02757,14205.07459,1,1,98,16,8
3,76,906.2047744,0,0,14206.85108,14207.89817,1,0,91,8,8
3,77,801.1081026,1,0,14209.99231,14211.03938,1,1,71,4,8
3,78,632.5519119,0,0,14213.01589,14214.06296,1,0,72,8,8
3,79,538.6068322,1,0,14215.87476,14216.92183,1,1,83,4,4
3,80,594.4398601,1,0,14218.62773,14219.67481,1,1,84,16,4
3,81,750.9859925,0,0,14230.81616,14231.86324,2,0,73,0,0
3,82,624.8823052,1,0,14233.66326,14234.71038,2,1,82,8,8
3,83,714.060395,0,0,14236.41624,14237.46332,2,0,75,4,16
3,84,727.169521,1,0,14239.33393,14240.38102,2,1,70,8,16
3,85,612.5488784,0,0,14242.29869,14243.34576,2,0,69,8,0
3,86,823.8278161,0,0,14245.0752,14246.12233,2,0,82,8,4
3,87,740.3025148,1,0,14248.14584,14249.19291,2,1,72,16,0
3,88,662.9778036,1,0,14251.04,14252.08708,2,1,96,16,4
3,89,771.3813027,0,0,14253.75769,14254.80476,2,0,70,4,8
3,90,721.6930453,1,0,14256.72244,14257.76951,2,1,96,16,0
3,91,789.5026398,0,0,14259.52248,14260.56956,2,0,90,16,16
3,92,772.7767916,1,0,14262.39312,14263.44022,2,1,63,16,8
3,93,597.6038665,0,0,14265.27552,14266.32258,2,0,88,4,16
3,94,628.7492529,1,0,14267.94615,14268.99322,2,1,68,0,4
3,95,595.8696107,0,0,14270.75795,14271.80502,2,0,87,8,16
3,96,878.4555266,0,0,14273.42857,14274.47565,2,0,81,4,0
3,97,620.6223108,1,0,14276.45216,14277.49925,2,1,80,0,16
3,98,566.1258725,1,0,14279.27573,14280.3228,2,1,83,0,4
3,99,760.8564295,1,0,14281.95813,14283.00522,2,1,69,4,0
3,100,705.8368273,1,0,14284.91111,14285.95818,2,1,69,4,8
3,101,729.732601,0,0,14287.8641,14288.91119,2,0,88,0,16
3,102,659.2020919,0,0,14290.73473,14291.7818,2,0,98,8,8
3,103,783.50454,1,0,14293.5583,14294.60538,2,1,92,8,0
3,104,827.7725262,0,0,14296.52306,14297.57014,2,0,80,8,16
3,105,720.0762031,1,0,14299.59368,14300.64077,2,1,70,4,8
3,106,754.1530785,1,0,14302.4055,14303.45257,2,1,61,4,4
3,107,864.5795553,0,0,14305.41731,14306.46438,2,0,68,8,16
3,108,643.6857957,1,0,14308.48795,14309.53503,2,1,99,0,0
3,109,727.6819061,0,0,14311.28805,14312.33506,2,0,62,16,16
3,110,532.5055625,1,0,14314.07627,14315.12334,2,1,69,16,4
3,111,596.1664167,1,0,14316.81748,14317.86456,2,1,100,4,0
3,112,561.9913758,1,0,14319.51165,14320.55872,2,1,85,4,8
3,113,799.9408965,1,0,14322.20586,14323.25288,2,1,69,16,16
3,114,651.7511439,1,0,14325.14702,14326.19409,2,1,99,4,0
3,115,796.0520059,0,0,14327.92354,14328.97061,2,0,91,0,0
3,116,818.9926878,0,0,14330.92358,14331.97069,2,0,79,0,8
3,117,612.3198258,0,0,14333.9354,14334.98247,2,0,78,4,16
3,118,577.4911187,1,0,14336.80603,14337.8531,2,1,80,0,4
3,119,601.6752293,1,0,14339.61787,14340.66491,2,1,99,8,0
3,120,848.9177433,0,0,14342.42965,14343.47673,2,0,82,4,4
3,121,527.3020251,1,0,14345.45321,14346.50029,2,1,87,0,4
3,122,623.5530299,1,0,14348.21796,14349.26504,2,1,78,0,8
3,123,617.524903,0,0,14350.92389,14351.97096,2,0,95,0,4
3,124,782.8720467,0,0,14353.68867,14354.73578,2,0,69,16,8
3,125,771.5129599,0,0,14356.57104,14357.61812,2,0,72,8,8
3,126,701.4124539,0,0,14359.4299,14360.47698,2,0,93,8,8
3,127,1134.880165,0,0,14362.3006,14363.34761,2,0,77,16,0
3,128,817.5290606,1,0,14365.53588,14366.58295,2,1,79,16,4
3,129,847.065689,1,0,14368.51239,14369.55947,2,1,73,8,16
3,130,661.6583995,1,0,14371.58303,14372.62991,2,1,97,4,0
3,131,790.9404745,1,0,14374.37132,14375.41839,2,1,63,4,4
3,132,726.7953375,1,0,14377.26548,14378.31255,2,1,81,16,0
3,133,727.3288955,0,0,14380.08905,14381.13612,2,0,69,16,16
3,134,845.5731896,0,0,14383.00674,14384.05382,2,0,81,4,4
3,135,588.2288761,1,0,14385.99502,14387.04209,2,1,89,8,4
3,136,707.7031252,1,0,14388.77158,14389.8186,2,1,92,16,8
3,137,728.8552716,1,0,14391.58334,14392.63043,2,1,77,8,4
3,138,693.8444772,1,0,14394.53633,14395.58342,2,1,94,0,8
3,139,663.4547721,1,0,14397.31285,14398.35991,2,1,62,0,0
3,140,541.0983091,0,0,14400.05406,14401.10113,2,0,75,0,8
3,141,594.1777007,0,0,14402.66587,14403.71294,2,0,75,8,8
3,142,747.2276042,0,0,14405.36002,14406.4071,2,0,91,8,4
3,143,577.4245202,1,0,14408.18359,14409.23067,2,1,93,0,16
3,144,568.0110335,1,0,14410.866,14411.91307,2,1,67,8,0
3,145,557.274431,0,0,14413.58368,14414.63075,2,0,78,8,4
3,146,587.7984881,1,0,14416.2073,14417.25434,2,1,64,16,16
3,147,631.8497404,0,0,14418.91318,14419.96028,2,0,79,0,8
3,148,573.5325499,0,0,14421.64263,14422.68971,2,0,69,0,0
3,149,587.9262956,0,0,14424.31326,14425.36033,2,0,86,4,8
3,150,680.6633632,1,0,14427.11335,14428.16038,2,1,61,0,16
3,151,651.8119679,0,0,14429.86629,14430.91336,2,0,98,16,0
3,152,601.5173947,0,0,14432.65457,14433.70163,2,0,76,4,16
3,153,651.2607017,0,0,14435.4546,14436.50168,2,0,67,16,8
3,154,627.1120077,1,0,14438.24289,14439.28996,2,1,97,8,0
3,155,688.5893549,0,0,14441.12529,14442.17236,2,0,77,4,4
3,156,726.9100564,1,0,14444.04297,14445.09006,2,1,73,16,4
3,157,724.730784,0,0,14446.87831,14447.92539,2,0,99,0,16
3,158,839.8884492,0,0,14449.74895,14450.79603,2,0,69,16,4
3,159,768.4636724,0,0,14452.83135,14453.87842,2,0,65,16,8
3,160,660.2611236,0,0,14455.72551,14456.77259,2,0,70,4,16
3,161,621.5662387,1,0,14462.29032,14463.33739,3,1,76,0,8
3,162,651.7172672,0,0,14464.96099,14466.00802,3,0,80,4,0
3,163,569.2837194,0,0,14467.73746,14468.78454,3,0,66,8,4
3,164,663.9071029,1,0,14470.52574,14471.57281,3,1,62,16,0
3,165,641.8907158,0,0,14473.26697,14474.31404,3,0,93,4,0
3,166,569.3995931,1,0,14476.04347,14477.09055,3,1,75,8,16
3,167,685.4907922,0,0,14478.85528,14479.90235,3,0,69,4,16
3,168,533.3174483,0,0,14481.60826,14482.65533,3,0,69,0,4
3,169,622.0335831,0,0,14484.2436,14485.29067,3,0,90,16,0
3,170,714.7537123,1,0,14486.97306,14488.02013,3,1,100,16,8
3,171,608.975657,1,0,14489.74957,14490.79664,3,1,67,16,8
3,172,629.8648741,0,0,14492.49083,14493.53786,3,0,88,16,4
3,173,731.2154763,0,0,14495.22024,14496.26731,3,0,71,4,4
3,174,571.2181557,1,0,14498.06734,14499.11441,3,1,92,0,16
3,175,490.6805479,1,0,14500.8439,14501.89093,3,1,74,0,0
3,176,580.6782227,0,0,14503.49096,14504.53802,3,0,85,0,4
3,177,782.3623564,0,0,14506.13806,14507.18513,3,0,81,4,0
3,178,773.4497059,0,0,14509.09104,14510.13812,3,0,81,8,4
3,179,543.6047996,1,0,14511.99697,14513.04404,3,1,77,4,16
3,180,520.2991733,1,0,14514.73819,14515.78526,3,1,67,8,4
3,181,529.2776524,1,0,14517.39705,14518.44412,3,1,85,4,8
3,182,522.5904698,0,0,14520.11479,14521.16182,3,0,69,0,4
3,183,484.642027,0,0,14522.82067,14523.86774,3,0,96,8,8
3,184,652.9830237,0,0,14525.52659,14526.57366,3,0,71,4,16
3,185,522.0607615,1,0,14528.24428,14529.29135,3,1,84,0,4
3,186,590.4724372,0,0,14530.86785,14531.91492,3,0,87,8,16
3,187,592.9381217,1,0,14533.5973,14534.64437,3,1,66,4,4
3,188,601.9019721,1,0,14536.38558,14537.43268,3,1,74,8,8
3,189,562.4787383,0,0,14539.17386,14540.22094,3,0,79,0,16
3,190,572.6917919,0,0,14541.83273,14542.87979,3,0,76,16,8
3,191,614.8420997,0,0,14544.49159,14545.53866,3,0,65,16,0
3,192,528.4977185,1,0,14547.32693,14548.37399,3,1,64,0,0
3,193,571.7397798,1,0,14549.99757,14551.04463,3,1,86,4,4
3,194,820.5898969,1,0,14552.75055,14553.79761,3,1,72,16,16
3,195,560.7094509,0,0,14555.65647,14556.70354,3,0,90,0,0
3,196,815.3563325,0,0,14558.2918,14559.33887,3,0,72,4,16
3,197,787.1874757,1,0,14561.23302,14562.2801,3,1,89,8,16
3,198,813.9196527,0,0,14564.26841,14565.31544,3,0,83,8,8
3,199,565.6681521,0,0,14567.31547,14568.36254,3,0,85,8,0
3,200,619.0274114,0,0,14570.03316,14571.08024,3,0,77,16,4
3,201,495.9537635,1,0,14572.8332,14573.88034,3,1,97,8,0
3,202,578.236021,0,0,14575.45678,14576.50385,3,0,97,8,8
3,203,645.5497839,0,0,14578.17446,14579.22154,3,0,69,0,8
3,204,887.6010793,0,0,14580.97451,14582.02158,3,0,100,16,4
3,205,657.6479986,0,0,14583.97455,14585.02163,3,0,84,16,0
3,206,576.4621141,1,0,14586.86871,14587.91579,3,1,93,16,4
3,207,818.5442065,1,0,14589.53935,14590.58642,3,1,89,4,4
3,208,681.7882234,0,0,14592.49233,14593.5394,3,0,83,0,8
3,209,576.6184088,1,0,14595.39827,14596.44533,3,1,87,0,4
3,210,577.2062465,1,0,14598.12772,14599.17479,3,1,64,0,8
3,211,613.434677,1,0,14600.8807,14601.92777,3,1,77,16,16
3,212,742.7851376,0,0,14603.65722,14604.70429,3,0,100,0,16
3,213,553.3197118,1,0,14606.58667,14607.63374,3,1,77,8,4
3,214,759.5571813,1,0,14609.2573,14610.30437,3,1,71,8,4
3,215,681.5376129,1,0,14612.25734,14613.30442,3,1,69,8,0
3,216,589.9461935,1,0,14615.03386,14616.08094,3,1,65,4,0
3,217,529.4216283,1,0,14617.70449,14618.75156,3,1,65,4,0
3,218,620.6377093,1,0,14620.42218,14621.46925,3,1,85,16,8
3,219,576.2041892,1,0,14623.25751,14624.30459,3,1,86,8,8
3,220,619.2402956,1,0,14626.05756,14627.10463,3,1,72,4,8
3,221,773.264924,0,0,14628.76349,14629.81055,3,0,91,8,16
3,222,697.3102941,1,0,14631.61059,14632.65766,3,1,91,16,4
3,223,629.0379748,0,0,14634.5518,14635.59888,3,0,85,0,0
3,224,628.0586303,1,0,14637.31656,14638.36363,3,1,93,0,16
3,225,751.8017279,1,0,14639.99895,14641.04607,3,1,79,4,4
3,226,686.1429186,0,0,14642.97547,14644.02254,3,0,79,16,16
3,227,576.4532599,0,0,14645.74021,14646.78729,3,0,86,4,8
3,228,586.7202083,1,0,14648.55202,14649.59909,3,1,70,4,8
3,229,750.3819864,0,0,14651.19913,14652.2462,3,0,63,4,16
3,230,692.0082064,0,0,14654.12858,14655.17566,3,0,76,16,16
3,231,657.3531173,1,0,14656.89332,14657.94041,3,1,89,0,8
3,232,677.1744486,1,0,14659.78749,14660.83457,3,1,96,16,16
3,233,683.9925184,0,0,14662.58754,14663.63461,3,0,100,8,16
3,234,617.6138293,0,0,14665.41112,14666.45818,3,0,75,8,0
3,235,668.3695876,0,0,14668.21115,14669.25823,3,0,88,0,0
3,236,761.5940176,0,0,14671.07002,14672.11719,3,0,81,4,8
3,237,730.3947364,1,0,14674.02301,14675.07008,3,1,61,16,8
3,238,558.9798146,0,0,14676.95247,14677.99953,3,0,96,0,16
3,239,686.3153818,1,0,14679.6231,14680.67017,3,1,99,8,0
3,240,603.7444024,1,0,14682.38784,14683.43492,3,1,78,16,0
3,241,756.6102938,0,0,14688.69382,14689.7409,4,0,67,0,16
3,242,810.0376914,0,0,14691.56446,14692.61153,4,0,63,16,0
3,243,737.2797897,0,0,14694.58803,14695.6351,4,0,90,8,8
3,244,723.3141222,1,0,14697.48219,14698.52927,4,1,92,0,4
3,245,514.767648,1,0,14700.31754,14701.36461,4,1,74,0,8
3,246,705.0303309,0,0,14703.08229,14704.12935,4,0,97,4,16
3,247,781.5242932,0,0,14705.99998,14707.04705,4,0,80,16,16
3,248,539.962285,1,0,14709.03532,14710.08239,4,1,87,8,16
3,249,668.2891304,1,0,14711.65889,14712.70596,4,1,79,8,0
3,250,541.5460205,0,0,14714.41188,14715.45895,4,0,70,0,4
3,251,776.9289965,0,0,14717.04721,14718.09428,4,0,82,8,0
3,252,767.4127249,0,0,14720.07078,14721.11786,4,0,93,16,16
3,253,624.9589127,1,0,14723.09436,14724.14144,4,1,79,0,0
3,254,649.6061331,0,0,14725.83558,14726.88265,4,0,92,0,16
3,255,596.6433852,1,0,14728.64742,14729.69452,4,1,88,16,8
3,256,636.2737288,1,0,14731.36507,14732.41215,4,1,81,0,4
3,257,925.858262,0,0,14734.25924,14735.30637,4,0,68,16,16
3,258,546.358051,1,0,14737.43576,14738.48283,4,1,83,0,4
3,259,689.9467325,0,0,14740.05933,14741.10641,4,0,79,4,16
3,260,652.5214537,0,0,14743.00055,14744.04762,4,0,80,4,16
3,261,564.8581911,1,0,14745.87118,14746.91826,4,1,100,16,4
3,262,694.3965134,0,0,14748.55358,14749.60065,4,0,72,8,4
3,263,614.5880245,0,0,14751.41245,14752.45952,4,0,75,4,0
3,264,605.4825078,0,0,14754.20073,14755.2478,4,0,83,16,0
3,265,516.9827219,1,0,14756.98901,14758.03608,4,1,64,4,4
3,266,522.7475345,1,0,14759.6361,14760.68322,4,1,67,16,4
3,267,624.1693547,1,0,14762.3538,14763.40086,4,1,73,4,4
3,268,482.9582013,1,0,14765.14207,14766.18918,4,1,85,8,8
3,269,567.8354907,1,0,14767.848,14768.89508,4,1,98,0,8
3,270,553.2042231,0,0,14770.56568,14771.61276,4,0,76,4,8
3,271,710.4171104,1,0,14773.37749,14774.42457,4,1,82,16,8
3,272,635.5985047,1,0,14776.18931,14777.23638,4,1,92,4,8
3,273,674.1959941,1,0,14778.97757,14780.02465,4,1,62,4,4
3,274,702.9207368,0,0,14781.90708,14782.95412,4,0,72,8,4
3,275,613.8881628,0,0,14784.71884,14785.76592,4,0,65,8,8
3,276,793.1024236,0,0,14787.47183,14788.5189,4,0,89,8,0
3,277,623.0779862,0,0,14790.42482,14791.47189,4,0,88,16,8
3,278,681.4186595,0,0,14793.24838,14794.29546,4,0,82,0,0
3,279,659.3121912,0,0,14796.00137,14797.04845,4,0,61,0,16
3,280,573.5987634,1,0,14798.76611,14799.8132,4,1,92,16,0
3,281,595.7341039,0,0,14801.53087,14802.57796,4,0,67,4,4
3,282,559.6076884,1,0,14804.21327,14805.26034,4,1,85,0,8
3,283,562.4895172,0,0,14806.96624,14808.01333,4,0,85,4,0
3,284,740.1281268,0,0,14809.75452,14810.8016,4,0,69,16,16
3,285,596.768498,0,0,14812.63692,14813.68402,4,0,81,4,8
3,286,568.5172592,0,0,14815.37815,14816.42521,4,0,92,0,16
3,287,535.9324981,1,0,14818.15466,14819.20173,4,1,98,4,16
3,288,496.2012943,0,0,14820.9194,14821.96648,4,0,86,8,16
3,289,740.1369809,0,0,14823.56651,14824.61358,4,0,91,4,0
3,290,665.2702549,0,0,14826.4842,14827.53127,4,0,61,4,16
3,291,614.808608,1,0,14829.24895,14830.29602,4,1,72,8,8
3,292,550.5726198,0,0,14832.04899,14833.09606,4,0,93,0,8
3,293,828.6513955,1,0,14834.80197,14835.84906,4,1,90,4,8
3,294,638.1369471,1,0,14837.77849,14838.82557,4,1,73,8,4
3,295,501.3890482,1,0,14840.54324,14841.59031,4,1,75,0,8
3,296,634.786234,1,0,14843.17858,14844.22571,4,1,80,8,16
3,297,592.4549938,0,0,14845.90803,14846.95511,4,0,74,8,8
3,298,559.7362658,1,0,14848.68455,14849.73167,4,1,88,8,4
3,299,491.1786893,1,0,14851.34341,14852.39049,4,1,97,16,4
3,300,584.908575,1,0,14853.93169,14854.97877,4,1,63,0,0
3,301,641.5288511,0,0,14856.57879,14857.62586,4,0,81,16,0
3,302,616.9162773,1,0,14859.39063,14860.43767,4,1,89,16,0
3,303,494.6298776,1,0,14862.13181,14863.17889,4,1,96,16,4
3,304,544.8447636,1,0,14864.69659,14865.74369,4,1,68,0,0
3,305,485.1898286,0,0,14867.41425,14868.46132,4,0,87,8,4
3,306,503.1721942,1,1,14870.02605,14871.07312,4,0,100,16,4
3,307,634.6395633,1,0,14872.60256,14873.64964,4,1,66,4,0
3,308,645.0420184,0,0,14875.47319,14876.52027,4,0,92,0,4
3,309,800.0163491,0,0,14878.27324,14879.32031,4,0,81,8,0
3,310,531.0981398,1,0,14881.27329,14882.32037,4,1,96,16,8
3,311,619.7457513,1,0,14884.0616,14885.10864,4,1,78,4,0
3,312,763.8102464,1,0,14886.76749,14887.81457,4,1,90,8,16
3,313,659.3364438,0,0,14889.75578,14890.80285,4,0,92,16,16
3,314,688.618997,0,0,14892.61465,14893.66172,4,0,98,16,8
3,315,677.7403434,1,0,14895.53234,14896.5794,4,1,92,8,0
3,316,624.8977037,1,0,14898.43826,14899.48533,4,1,92,4,4
3,317,709.0747464,1,0,14901.29713,14902.3442,4,1,63,8,16
3,318,597.8467778,1,0,14904.08541,14905.13247,4,1,92,0,0
3,319,617.7385571,0,0,14906.89721,14907.94434,4,0,62,4,8
3,320,489.7181418,1,0,14909.74432,14910.79143,4,1,77,0,16
3,321,612.0888483,1,0,14925.1328,14926.17986,5,1,87,4,8
3,322,565.3559476,1,0,14927.99166,14929.03873,5,1,84,4,0
3,323,587.0724489,0,0,14930.68582,14931.7329,5,0,66,8,16
3,324,512.4732718,1,0,14933.35645,14934.40353,5,1,68,8,16
3,325,475.2412442,1,0,14935.94473,14936.9918,5,1,76,16,8
3,326,542.9938642,0,0,14938.48594,14939.53301,5,0,89,0,8
3,327,716.4025065,1,0,14941.2154,14942.26247,5,1,61,4,4
3,328,572.526643,1,0,14944.06249,14945.10957,5,1,95,0,4
3,329,526.8242867,1,0,14946.73313,14947.7802,5,1,74,4,0
3,330,545.8676089,0,0,14949.33317,14950.38024,5,0,88,0,8
3,331,550.7331492,1,0,14951.98032,14953.02734,5,1,88,0,4
3,332,586.487306,1,0,14954.67443,14955.7215,5,1,99,0,16
3,333,750.4524346,1,0,14957.48624,14958.53331,5,1,82,4,8
3,334,781.2398059,0,0,14960.36864,14961.41571,5,0,89,0,16
3,335,743.5935587,1,0,14963.28633,14964.3334,5,1,82,8,8
3,336,556.4205843,1,0,14966.19225,14967.23933,5,1,88,8,16
3,337,614.2908335,0,0,14968.83935,14969.88642,5,0,65,4,0
3,338,753.8316349,0,0,14971.56881,14972.61589,5,0,73,8,16
3,339,658.5299475,0,0,14974.49826,14975.54534,5,0,100,0,0
3,340,690.0375836,1,0,14977.33361,14978.38068,5,1,67,8,16
3,341,508.4388654,1,0,14980.20423,14981.25131,5,1,76,0,0
3,342,540.7318249,1,0,14982.92193,14983.969,5,1,84,0,8
3,343,628.3373431,0,0,14985.60432,14986.6514,5,0,68,0,4
3,344,597.8313793,1,0,14988.48672,14989.53379,5,1,83,0,8
3,345,664.121912,1,0,14991.19264,14992.23971,5,1,73,4,8
3,346,720.9435235,0,0,14994.08681,14995.13389,5,0,97,8,0
3,347,736.6215039,0,0,14996.88691,14997.93392,5,0,100,16,16
3,348,668.9635846,0,0,14999.75749,15000.80455,5,0,75,16,8
3,349,722.7262845,1,0,15002.63987,15003.68695,5,1,72,8,8
3,350,677.9736306,0,0,15005.45169,15006.49877,5,0,99,4,16
3,351,750.437421,1,0,15008.38114,15009.42822,5,1,61,8,8
3,352,553.8432608,0,0,15011.3106,15012.35771,5,0,79,0,8
3,353,874.1081457,0,0,15013.98123,15015.0283,5,0,61,16,16
3,354,710.6850443,1,0,15016.95779,15018.00483,5,1,80,4,0
3,355,738.7056906,1,0,15019.75779,15020.80486,5,1,87,16,4
3,356,732.6714043,0,0,15022.55784,15023.6049,5,0,91,8,4
3,357,527.200395,1,0,15025.53435,15026.58142,5,1,75,4,4
3,358,697.2410009,1,0,15028.19322,15029.24029,5,1,99,16,4
3,359,735.8812211,1,0,15031.07561,15032.12268,5,1,63,8,4
3,360,610.7307008,1,0,15034.02861,15035.07568,5,1,64,8,0
3,361,701.5013802,0,0,15036.87571,15037.92278,5,0,71,8,0
3,362,786.190038,0,0,15039.7581,15040.80518,5,0,99,8,0
3,363,574.135401,1,0,15042.71109,15043.75817,5,1,67,4,0
3,364,618.7667918,1,0,15045.34643,15046.3935,5,1,62,8,8
3,365,760.0387693,0,0,15048.11117,15049.15825,5,0,99,0,0
3,366,662.5027599,0,0,15050.93474,15051.98182,5,0,78,4,4
3,367,713.9814777,0,0,15053.6642,15054.71128,5,0,79,16,0
3,368,677.3091854,1,0,15056.5819,15057.62897,5,1,72,4,8
3,369,744.6287227,0,0,15059.49959,15060.54666,5,0,77,4,8
3,370,628.5706303,0,0,15062.34669,15063.39376,5,0,94,0,0
3,371,701.1810915,0,0,15065.13497,15066.18205,5,0,67,4,16
3,372,843.724215,0,0,15067.95854,15069.00562,5,0,81,4,4
3,373,560.698287,0,0,15070.91153,15071.95861,5,0,86,0,16
3,374,669.3038914,0,0,15073.54687,15074.59394,5,0,64,16,16
3,375,637.5937651,0,0,15076.32339,15077.37045,5,0,76,16,8
3,376,612.9342258,0,0,15079.13518,15080.1823,5,0,97,16,0
3,377,585.7400939,0,0,15081.88817,15082.93528,5,0,76,0,16
3,378,571.1823542,0,0,15084.60586,15085.65294,5,0,78,0,4
3,379,803.7878262,1,0,15087.33537,15088.38238,5,1,74,8,4
3,380,682.5831709,1,0,15090.28831,15091.33537,5,1,98,16,8
3,381,755.3187448,0,0,15093.21776,15094.26483,5,0,85,16,8
3,382,607.4450464,1,0,15096.07663,15097.12369,5,1,92,4,4
3,383,541.9163543,0,0,15098.86491,15099.91201,5,0,95,16,0
3,384,680.6187075,1,0,15101.65319,15102.70028,5,1,90,8,4
3,385,550.8832845,0,0,15104.41793,15105.465,5,0,87,8,4
3,386,623.2381306,1,0,15107.0768,15108.12387,5,1,75,16,4
3,387,560.1004403,0,0,15109.78271,15110.82979,5,0,75,0,0
3,388,515.5675999,0,0,15112.55924,15113.60631,5,0,96,4,16
3,389,668.7934312,0,0,15115.32398,15116.37107,5,0,62,0,16
3,390,660.2438003,1,0,15118.04167,15119.08874,5,1,84,16,0
3,391,730.1229529,1,0,15120.93583,15121.98291,5,1,61,16,16
3,392,721.69651,1,0,15123.77118,15124.81825,5,1,89,16,4
3,393,627.6351716,1,0,15126.58301,15127.63012,5,1,66,16,0
3,394,485.7106828,1,0,15129.3242,15130.37128,5,1,86,4,16
3,395,586.9253933,0,0,15131.94777,15132.99485,5,0,63,16,4
3,396,463.7073844,1,0,15134.64196,15135.68907,5,1,76,0,4
3,397,703.615594,0,0,15137.2302,15138.27728,5,0,91,16,16
3,398,474.8008471,1,0,15140.10084,15141.14793,5,1,85,4,16
3,399,528.1789696,0,0,15142.72441,15143.77148,5,0,86,8,8
3,400,697.4307874,0,0,15145.33622,15146.38328,5,0,68,8,0
3,401,619.7064851,0,0,15154.91283,15155.95995,6,0,96,16,16
3,402,650.1181332,1,0,15157.72464,15158.77172,6,1,93,0,16
3,403,529.4428013,0,0,15160.60704,15161.65412,6,0,74,0,4
3,404,511.6667755,1,0,15163.26591,15164.31298,6,1,64,16,8
3,405,564.5340528,1,0,15166.01889,15167.06596,6,1,78,0,16
3,406,576.6542103,0,0,15168.66599,15169.71306,6,0,97,16,4
3,407,621.0434597,0,0,15171.34838,15172.39545,6,0,98,0,4
3,408,555.4423947,1,0,15174.17196,15175.21902,6,1,67,4,0
3,409,632.7328443,0,0,15176.93671,15177.98382,6,0,79,4,16
3,410,545.4364509,1,0,15179.77205,15180.81912,6,1,68,4,8
3,411,591.8917937,0,0,15182.44268,15183.48976,6,0,68,16,0
3,412,690.5180168,0,0,15185.12506,15186.17215,6,0,99,8,0
3,413,724.9887088,1,0,15187.90158,15188.94866,6,1,99,4,8
3,414,583.1304335,0,0,15190.81927,15191.86635,6,0,74,0,8
3,415,479.4542731,1,0,15193.4899,15194.53697,6,1,76,16,4
3,416,656.1131533,1,0,15196.12524,15197.1723,6,1,71,4,0
3,417,591.6242448,1,0,15199.00769,15200.05471,6,1,76,0,16
3,418,645.2803102,0,0,15201.69003,15202.73711,6,0,72,0,4
3,419,535.8743688,1,0,15204.51361,15205.56067,6,1,83,8,8
3,420,775.488852,0,0,15207.20777,15208.25484,6,0,70,16,8
3,421,560.4041757,0,0,15210.20782,15211.25488,6,0,63,0,8
3,422,601.6236443,0,0,15212.96079,15214.00787,6,0,84,8,0
3,423,689.0559294,1,0,15215.73731,15216.78438,6,1,79,16,8
3,424,555.6903106,0,0,15218.52559,15219.57266,6,0,88,8,16
3,425,689.6006513,0,0,15221.17269,15222.21977,6,0,72,8,4
3,426,633.5593587,1,0,15224.07861,15225.12569,6,1,89,8,0
3,427,716.2989516,1,0,15226.77278,15227.81985,6,1,94,8,16
3,428,582.9379523,1,0,15229.60811,15230.65518,6,1,80,0,8
3,429,609.0776721,1,0,15232.25521,15233.30229,6,1,79,8,0
3,430,560.2640493,0,0,15235.01996,15236.06703,6,0,100,4,0
3,431,591.3613155,1,0,15237.83177,15238.87884,6,1,88,16,16
3,432,726.0943209,1,0,15240.52593,15241.573,6,1,61,8,0
3,433,755.5674305,0,0,15243.44362,15244.49069,6,0,99,4,16
3,434,689.7011265,1,0,15246.31429,15247.36133,6,1,72,16,16
3,435,591.6411832,1,0,15249.10255,15250.1496,6,1,78,0,0
3,436,524.9606835,1,0,15251.83199,15252.87906,6,1,88,4,16
3,437,687.5168496,0,0,15254.40849,15255.45557,6,0,82,4,0
3,438,590.8770327,1,0,15257.17325,15258.22034,6,1,90,16,8
3,439,584.3973449,0,0,15259.96153,15261.0086,6,0,62,8,16
3,440,631.8809224,0,0,15262.78509,15263.83217,6,0,71,0,8
3,441,781.5242932,1,0,15265.62043,15266.66751,6,1,94,4,4
3,442,706.2945476,1,0,15268.56165,15269.60873,6,1,78,8,8
3,443,546.4758495,0,0,15271.43229,15272.47939,6,0,75,0,4
3,444,672.3385504,0,0,15274.22057,15275.26764,6,0,98,16,0
3,445,923.6366437,0,0,15277.04415,15278.09121,6,0,93,16,0
3,446,696.593879,1,0,15280.09125,15281.13832,6,1,98,0,4
3,447,662.5504953,1,0,15282.99718,15284.04425,6,1,99,16,4
3,448,582.0128875,1,0,15285.80904,15286.85606,6,1,84,8,4
3,449,669.6199456,0,0,15288.5502,15289.59727,6,0,99,16,4
3,450,544.1633801,0,0,15291.38554,15292.43261,6,0,96,16,16
3,451,557.8295469,1,0,15294.11502,15295.16211,6,1,89,4,0
3,452,596.2511084,0,0,15296.83269,15297.87976,6,0,66,0,0
3,453,508.7630038,1,0,15299.52685,15300.57397,6,1,97,4,4
3,454,543.4923906,1,0,15302.11512,15303.1622,6,1,98,16,0
3,455,498.8513758,1,0,15304.83281,15305.87994,6,1,89,4,4
3,456,516.7706076,1,0,15307.38579,15308.4329,6,1,98,0,16
3,457,817.6541734,1,0,15310.12702,15311.17408,6,1,91,8,8
3,458,836.9084549,0,0,15313.18589,15314.233,6,0,71,8,4
3,459,688.199388,1,0,15316.25652,15317.30359,6,1,88,4,8
3,460,725.2720412,0,0,15319.0095,15320.05657,6,0,100,0,16
3,461,640.5036962,0,0,15321.88013,15322.92721,6,0,94,4,4
3,462,541.9964265,0,0,15324.71547,15325.76255,6,0,74,0,0
3,463,774.1526474,0,0,15327.46846,15328.51553,6,0,93,16,16
3,464,592.5916555,0,0,15330.49204,15331.53911,6,0,71,0,0
3,465,552.2853177,0,0,15333.28031,15334.32739,6,0,73,4,16
3,466,541.7157889,1,0,15335.96275,15337.00978,6,1,96,0,8
3,467,598.8153433,1,0,15338.65687,15339.70393,6,1,72,4,8
3,468,541.7600596,0,0,15341.46871,15342.51575,6,0,86,4,4
3,469,673.2478316,1,0,15344.13931,15345.18638,6,1,80,0,0
3,470,760.7509498,0,0,15346.96287,15348.00995,6,0,61,4,8
3,471,591.2415922,0,0,15349.9041,15350.95116,6,0,85,4,16
3,472,739.5914892,0,0,15352.71591,15353.76299,6,0,66,16,0
