sub_id,Trial,RT,Resp,Error,Fix_onset,Disp_onset,block,tid,tloc,fish_setsize,bird_setsize
9,1,544.737974007148,1,0,99185.1213074916,99186.1683810841,1,1,75,4,8
9,2,712.823355599539,1,0,99187.8272369911,99188.8743440753,1,1,98,8,0
9,3,456.672040716512,0,0,99190.7096244204,99191.7567014776,1,0,95,4,0
9,4,577.865917046438,0,0,99193.2744332326,99194.3214475409,1,0,97,16,8
9,5,671.129613241646,0,0,99196.0979448908,99197.1450231029,1,0,74,16,0
9,6,731.017835540115,1,0,99198.9921167904,99200.0391869183,1,1,81,4,8
9,7,965.211277638446,0,0,99201.9568673194,99203.0039370623,1,0,80,8,8
9,8,790.367495399551,1,0,99205.0745553427,99206.1216343247,1,1,69,16,4
9,9,797.09856370755,0,0,99208.0628328514,99209.1099095236,1,0,97,8,0
9,10,528.085268641007,1,0,99211.0158254724,99212.0628994499,1,1,65,0,16
9,11,483.773781685159,1,0,99213.6982187531,99214.7452923456,1,1,91,0,8
9,12,1083.48174917046,1,0,99216.2865002654,99217.3335703932,1,1,61,4,16
9,13,917.341582797235,0,0,99219.533603808,99220.5806797102,1,0,77,4,4
9,14,541.75066544849,1,0,99222.7101418099,99223.7572026987,1,1,74,16,8
9,15,736.541661652154,0,0,99225.3454603432,99226.3925366305,1,0,70,16,0
9,16,721.267506800359,0,0,99228.1455000714,99229.1925748188,1,0,93,16,4
9,17,590.701719789649,0,0,99231.0631908665,99232.110264074,1,0,87,8,4
9,18,552.285932630184,0,0,99233.7455918464,99234.7926638991,1,0,75,8,4
9,19,395.319036324508,0,0,99236.5573948719,99237.604472699,1,0,75,4,4
9,20,427.219334131223,1,0,99239.0515538368,99240.0986266593,1,1,62,16,0
9,21,528.323560400167,0,0,99241.7104155182,99242.7574941152,1,0,93,0,4
9,22,829.127823948511,0,0,99244.392807644,99245.4398816215,1,0,75,16,0
9,23,565.736520395149,0,1,99247.4752073151,99248.5222820625,1,1,91,4,0
9,24,953.577712600236,1,0,99250.1811295004,99251.228211562,1,1,100,4,4
9,25,722.704571599024,1,0,99253.334126279,99254.3811975617,1,1,90,4,16
9,26,437.677993788384,1,0,99256.1341706267,99257.1812465289,1,1,75,0,0
9,27,546.128843328916,1,0,99258.7577374115,99259.8048125438,1,1,66,0,16
9,28,713.218327073264,1,0,99261.3695489832,99262.4166179561,1,1,70,16,16
9,29,419.705252206768,1,0,99264.252002626,99265.2990165493,1,1,76,0,4
9,30,605.624403920956,1,0,99266.8519812221,99267.8990582792,1,1,70,4,4
9,31,797.104338154895,1,0,99269.675557554,99270.7226288367,1,1,64,0,16
9,32,621.232321223943,0,0,99272.6873705115,99273.7344371747,1,0,88,8,16
9,33,538.733329827664,1,0,99275.4168200614,99276.4639390794,1,1,93,0,8
9,34,578.794831424602,0,0,99278.1698039053,99279.2169206136,1,0,75,8,16
9,35,537.803260565852,0,0,99280.8286640469,99281.8757407191,1,0,78,16,16
9,36,693.856640995364,0,0,99283.5228321738,99284.5699003769,1,0,98,8,8
9,37,701.065062734415,1,0,99286.2875685362,99287.3346432836,1,1,95,4,8
9,38,479.85101438826,0,0,99289.2288532944,99290.2758691426,1,0,77,0,0
9,39,1424.51035341946,0,0,99291.8641371811,99292.9111988398,1,0,61,16,16
9,40,750.379906588933,1,0,99295.5112421096,99296.5583187818,1,1,98,8,0
9,41,510.124460910447,1,0,99298.4642274163,99299.5113017788,1,1,100,16,8
9,42,795.819718463463,0,0,99301.1936858204,99302.2407624926,1,0,91,4,4
9,43,651.235524113872,1,0,99304.1701977219,99305.2172801685,1,1,75,0,8
9,44,664.965594609384,0,0,99307.0055412008,99308.0526186429,1,0,64,8,16
9,45,578.768269013381,1,0,99309.7467636721,99310.7938341849,1,1,88,16,16
9,46,484.285781727522,0,0,99312.5820932923,99313.6291711194,1,0,87,16,4
9,47,1287.87601846852,1,0,99315.158614202,99316.2056816351,1,1,61,8,4
9,48,1001.14521192154,0,0,99318.5351324938,99319.5822060863,1,0,90,16,4
9,49,1033.63373235334,0,0,99321.6528259067,99322.6999018089,1,0,63,0,4
9,50,1258.18117050221,0,0,99324.9352270406,99325.9822952436,1,0,88,0,0
9,51,1380.46564543038,1,0,99328.2646844437,99329.3117634257,1,1,98,4,8
9,52,857.133456709562,0,0,99331.8882812556,99332.9353533083,1,0,100,0,8
9,53,1098.96763337019,0,0,99334.7942049037,99335.841281191,1,0,79,0,8
9,54,872.044207018917,0,0,99338.0530767482,99339.1001549602,1,0,81,8,16
9,55,467.440210180939,1,0,99341.0766522332,99342.123722361,1,1,61,4,16
9,56,505.415985258878,0,0,99343.6178690071,99344.6649406747,1,0,87,8,0
9,57,539.63221712911,0,0,99346.2296697998,99347.2767437772,1,0,93,16,8
9,58,841.140576972975,1,0,99348.8179501571,99349.8650179752,1,1,71,16,4
9,59,447.839462431148,0,0,99351.7944705278,99352.841536806,1,0,75,8,4
9,60,571.726151043549,0,0,99354.5003992574,99355.5474659206,1,0,92,4,8
9,61,1085.02467864309,0,0,99357.2180824302,99358.2651483235,1,0,70,8,8
9,62,705.477502269787,1,0,99360.5007137717,99361.5475594664,1,1,92,8,8
9,63,656.957990824594,1,0,99363.2769982374,99364.3240675953,1,1,63,16,0
9,64,926.475586689776,0,0,99365.9829181129,99367.041762702,1,0,77,16,8
9,65,1570.22133286227,1,0,99369.0417919591,99370.0888640118,1,1,71,0,16
9,66,881.716003437759,0,0,99372.6653768372,99373.7124465801,1,0,74,0,4
9,67,628.192057236447,0,0,99375.6418918184,99376.6889669507,1,0,93,0,4
9,68,621.911779933725,1,0,99378.4772333725,99379.5243027304,1,1,83,16,16
9,69,682.509872989613,1,0,99381.3243312946,99382.3714083518,1,1,62,0,0
9,70,1004.02858061716,1,0,99384.194960816,99385.2420359483,1,1,69,0,0
9,71,996.385151302093,1,0,99387.4185512375,99388.4656186706,1,1,69,4,0
9,72,755.403666466009,1,0,99390.6656517004,99391.7127318372,1,1,61,8,4
9,73,492.293000541395,0,0,99393.5245206191,99394.5715926718,1,0,76,4,16
9,74,536.10288145137,1,0,99396.2186756574,99397.2657511747,1,1,93,0,16
9,75,488.359069335274,1,0,99398.9716687403,99400.0187373283,1,1,73,8,8
9,76,790.763236786006,0,0,99401.607004597,99402.6540781895,1,0,99,4,0
9,77,487.722726422362,0,0,99404.5952824906,99405.6423503087,1,0,89,4,0
9,78,996.22346709657,1,0,99407.1364946449,99408.183572472,1,1,72,8,0
9,79,446.380839741323,0,0,99410.2424282251,99411.2895025875,1,0,86,4,16
9,80,516.230350214755,1,0,99412.7836415343,99413.8307201313,1,1,73,8,16
9,81,549.858359459904,1,0,99448.1018391709,99449.1489092988,2,1,87,8,0
9,82,697.529182696599,0,0,99450.7371727178,99451.7842409208,2,0,89,8,4
9,83,584.946531263995,0,0,99453.6195690012,99454.6666437486,2,0,79,8,4
9,84,616.521150848712,0,0,99456.4078458169,99457.4549197944,2,0,72,8,0
9,85,902.458934753668,1,0,99459.2431808266,99460.2902563439,2,1,64,8,0
9,86,648.28748171567,1,0,99462.1961707529,99463.2432451154,2,1,94,16,8
9,87,951.061983039835,0,0,99464.9373874498,99465.9844556529,2,0,98,8,0
9,88,524.349978062673,1,0,99468.0080253634,99469.0550897168,2,1,99,8,16
9,89,585.214080172591,0,0,99470.7021854061,99471.7492570738,2,0,75,8,8
9,90,528.740474721417,1,0,99473.4316391906,99474.4787478147,2,1,75,16,0
9,91,482.147315356997,0,0,99476.1493200537,99477.1964013454,2,0,88,8,8
9,92,770.772137111635,0,0,99478.7847144246,99479.8317314276,2,0,93,16,16
9,93,537.352854502387,0,0,99481.7258783047,99482.7729592114,2,0,94,8,16
9,94,468.141611752799,1,0,99484.4553390185,99485.5024095313,2,1,74,4,8
9,95,436.598944055731,0,0,99487.0906717954,99488.1377430781,2,0,75,4,4
9,96,790.475669855368,0,0,99489.7260034175,99490.7730793197,2,0,97,0,16
9,97,1568.80659588205,1,0,99492.6084000858,99493.6555121746,2,1,97,0,8
9,98,1065.3765805182,1,0,99496.4319948959,99497.4790580944,2,1,73,0,0
9,99,821.432809665566,1,0,99499.596743808,99500.6438139359,2,1,62,0,4
9,100,696.279209660133,0,0,99502.6438501223,99503.6909260246,2,0,70,16,0
9,101,655.562886924599,0,0,99505.4086003433,99506.4556739358,2,0,71,0,8
9,102,475.545209468692,0,0,99508.2086416113,99509.2557101993,2,0,78,4,16
9,103,868.933710487909,1,0,99510.7734030732,99511.8204674265,2,1,78,4,16
9,104,1039.50787427311,1,0,99513.7616655683,99514.8087522495,2,1,85,16,4
9,105,835.649857646786,0,0,99516.8793624457,99517.9264452774,2,0,65,4,16
9,106,581.911102402955,0,0,99519.8323485224,99520.879432124,2,0,97,16,8
9,107,773.192396009108,0,0,99522.5029796607,99523.5500482486,2,0,81,16,16
9,108,557.677716613398,1,0,99525.3383173651,99526.3853990418,2,1,63,16,8
9,109,924.113072178443,1,0,99528.0089323349,99529.056010547,2,1,99,16,8
9,110,621.852880678489,1,0,99531.1031080071,99532.1501842944,2,1,67,4,8
9,111,624.288153107045,0,0,99533.8678632326,99534.9149341304,2,0,61,0,0
9,112,1480.52315881068,1,0,99536.6443732863,99537.6914472638,2,1,89,4,4
9,113,831.115000066347,0,0,99540.3150140486,99541.3620841764,2,0,85,4,0
9,114,639.777117001358,0,0,99543.3621900411,99544.4092008847,2,0,80,4,4
9,115,430.208567500813,1,0,99546.1857001594,99547.2327641279,2,1,80,16,4
9,116,931.965921045048,1,0,99548.7739735875,99549.8210521845,2,1,61,16,16
9,117,500.655154726701,0,0,99551.9034326075,99552.9504977308,2,0,70,4,8
9,118,991.304416995263,1,0,99554.5034762622,99555.5505436953,2,1,93,0,4
9,119,539.274202063098,1,0,99557.7035119867,99558.7505917386,2,1,95,0,4
9,120,718.367584704538,1,0,99560.4565073795,99561.5035802021,2,1,62,4,8
9,121,774.862363075954,1,0,99563.3859633968,99564.433070481,2,1,67,4,8
9,122,534.256216618815,1,1,99566.256594458,99567.3036668956,2,0,83,8,16
9,123,619.728272955399,1,0,99568.9390420184,99569.986063256,2,1,70,16,4
9,124,511.745537762181,1,0,99571.6920270172,99572.739045945,2,1,92,0,4
9,125,552.985024434747,1,0,99574.3978976175,99575.4450231799,2,1,62,16,0
9,126,459.593905659858,0,0,99577.1861728933,99578.2332487956,2,0,72,16,0
9,127,553.20753272099,1,0,99579.7744451665,99580.8215149094,2,1,71,4,0
9,128,719.851614921936,1,0,99582.4568438367,99583.5039151194,2,1,74,8,8
9,129,657.214760765783,0,0,99585.3274683535,99586.3745477205,2,0,62,8,4
9,130,980.256764800288,0,0,99588.080456817,99589.1275307944,2,0,86,16,4
9,131,985.502648021793,1,0,99591.2452118885,99592.2922835562,2,1,79,8,16
9,132,786.945179279428,0,0,99594.3276084799,99595.3746836122,2,0,84,0,0
9,133,532.11775024829,1,0,99597.3747171039,99598.4217964709,2,1,93,16,16
9,134,496.867124296841,0,0,99600.0688817662,99601.1159796114,2,0,85,8,0
9,135,953.732082547504,0,0,99602.6218514435,99603.6689285007,2,0,62,4,16
9,136,589.25272115448,0,0,99605.7983767417,99606.8454487944,2,0,82,0,16
9,137,589.449436971336,0,0,99608.6101870815,99609.6572614439,2,0,62,16,4
9,138,981.01860548195,1,0,99611.2925742028,99612.3396539547,2,1,88,16,0
9,139,532.717906695325,0,0,99614.5279279217,99615.5749922751,2,0,73,4,4
9,140,638.345441664569,1,0,99617.163256464,99618.2103319814,2,1,99,8,16
9,141,557.137229348882,0,0,99619.9515398241,99620.9986107219,2,0,69,4,0
9,142,1041.71832861903,0,0,99622.6457287391,99623.692776924,2,0,77,0,16
9,143,734.368548655766,0,0,99625.8692721952,99626.916352717,2,0,94,4,0
9,144,477.774911938468,1,0,99628.7046172139,99629.7516969658,2,1,63,8,4
9,145,413.028848546674,0,0,99631.2575876611,99632.3046728025,2,0,93,0,8
9,146,606.5729513939,0,0,99633.8929246726,99634.9400051944,2,0,80,0,0
9,147,465.825292732916,0,0,99636.6106421071,99637.6576952966,2,0,86,4,16
9,148,524.461232213071,1,0,99639.1518327036,99640.198906296,2,1,67,16,16
9,149,399.794224722427,0,0,99641.7636438903,99642.8107074737,2,0,76,0,0
9,150,565.718427169486,1,0,99644.3166220367,99645.363687545,2,1,100,16,8
9,151,541.998966233223,0,0,99646.9872458606,99648.0343182983,2,0,89,0,8
9,152,531.287001285818,1,0,99649.7049274936,99650.75201225,2,1,66,4,0
9,153,554.204200496315,0,0,99652.446169598,99653.4932289469,2,0,97,8,4
9,154,924.13078044774,1,0,99655.1520756149,99656.1991499773,2,1,91,8,8
9,155,799.624302293523,1,0,99658.2227162232,99659.2697817314,2,1,100,0,8
9,156,504.627197224181,1,0,99661.2345284108,99662.2815958439,2,1,92,0,16
9,157,500.860339714563,1,0,99663.8463311283,99664.8934616952,2,1,98,0,16
9,158,413.932740382734,1,0,99666.5051978143,99667.552268712,2,1,69,0,4
9,159,349.426893561031,1,0,99669.069940413,99670.117008231,2,1,69,4,4
9,160,426.403983670753,0,0,99671.5288002466,99672.575874609,2,0,93,8,8
9,161,516.406663009548,1,0,99687.7996440381,99688.8467060817,3,1,85,4,4
9,162,448.61554671661,0,0,99690.4585049496,99691.505579697,3,0,75,16,8
9,163,473.130340047646,0,1,99693.0938346468,99694.1409086243,3,1,81,4,4
9,164,496.239635511301,0,0,99695.7997641464,99696.8468331193,3,0,62,4,16
9,165,462.86647139641,1,0,99698.3762800515,99699.423384056,3,1,82,16,8
9,166,669.499297291623,0,0,99700.9174810419,99701.9645569442,3,0,67,8,0
9,167,509.797627790249,0,0,99703.7881198024,99704.8352403603,3,0,70,0,8
9,168,494.346005260013,0,0,99706.3646295481,99707.4117023707,3,0,68,16,4
9,169,652.800781404949,1,0,99708.9411981931,99709.9882074968,3,1,64,8,4
9,170,662.171152231167,0,0,99711.7529500185,99712.8000213013,3,0,80,0,8
9,171,630.259690515231,1,0,99714.5177002395,99715.564763823,3,1,98,16,16
9,172,404.992372597917,1,0,99717.2118602823,99718.2589292552,3,1,88,8,16
9,173,530.132883883198,1,0,99719.8118889235,99720.8589686754,3,1,69,4,16
9,174,620.344212875352,1,0,99722.4825208316,99723.5296005835,3,1,68,0,16
9,175,523.252835104358,1,0,99725.2237475375,99726.270811506,3,1,82,0,4
9,176,599.322568741627,0,0,99727.9296647183,99728.9767421604,3,0,62,8,0
9,177,451.572058285819,0,0,99730.7532418201,99731.8003146426,3,0,67,8,8
9,178,1089.93102498061,1,0,99733.423866029,99734.4709423162,3,1,93,16,8
9,179,684.157127281651,0,0,99736.7298072314,99737.7768785141,3,0,97,4,8
9,180,781.78167801525,1,0,99739.6710226964,99740.7181062979,3,1,89,16,4
9,181,467.865978644113,0,0,99742.5769501941,99743.6240234016,3,0,97,0,0
9,182,1102.62131191848,1,0,99745.118167353,99746.1652401755,3,1,67,4,0
9,183,1287.40674925211,0,0,99748.3652774399,99749.4123456429,3,0,70,4,16
9,184,627.808634642861,1,0,99751.8359598551,99752.8830511559,3,1,88,4,4
9,185,402.443151295302,0,0,99754.6712532889,99755.7183284212,3,0,68,4,8
9,186,602.436144981766,1,0,99757.318351288,99758.3654237256,3,1,69,16,0
9,187,637.354548336589,0,0,99760.0713385966,99761.1184075695,3,0,92,4,4
9,188,534.447927915608,0,0,99762.9302079003,99763.9772799529,3,0,66,0,16
9,189,583.628034903086,0,0,99765.6008721453,99766.6479703754,3,0,87,16,4
9,190,454.928545819712,1,0,99768.3655823301,99769.4126505332,3,1,84,0,4
9,191,536.748078506207,1,0,99770.9538611477,99772.0009497537,3,1,93,16,4
9,192,408.378502237611,0,0,99773.6950774596,99774.742151822,3,0,95,4,0
9,193,371.270432515303,1,1,99776.3421719941,99777.3892490512,3,0,80,8,8
9,194,506.354138735333,0,0,99778.8833853033,99779.9304612056,3,0,90,0,16
9,195,563.547623940394,0,0,99781.5069590174,99782.5540337648,3,0,95,8,16
9,196,428.672182388254,0,0,99784.1658364823,99785.2129031455,3,0,99,0,8
9,197,792.81547156279,1,0,99786.8246877698,99787.8717686766,3,1,91,8,4
9,198,615.993752304348,1,0,99789.7423808747,99790.7894548521,3,1,93,16,0
9,199,470.62230973097,0,0,99792.5659575915,99793.6130234848,3,0,72,0,8
9,200,473.409822778194,0,0,99795.2130563606,99796.2601226388,3,0,92,0,4
9,201,378.37337453675,1,0,99797.9072152484,99798.954288071,3,1,82,0,4
9,202,399.888925487176,0,0,99800.4954879065,99801.5426250179,3,0,93,8,8
9,203,435.974919935688,1,0,99803.0014063191,99804.0484841462,3,1,84,16,8
9,204,404.614339480759,1,0,99805.5896912961,99806.6367621938,3,1,66,0,0
9,205,543.713203980587,0,0,99808.0838402519,99809.130917694,3,0,98,16,16
9,206,497.666306328028,1,0,99810.7427146371,99811.7897782206,3,1,88,4,8
9,207,781.510664470261,0,0,99813.3427452031,99814.3898168708,3,0,71,0,4
9,208,520.094218256418,1,0,99816.2251407166,99817.2722170039,3,1,85,8,16
9,209,546.622365174699,1,0,99818.9546553252,99820.0016661688,3,1,91,4,16
9,210,707.296449807473,0,0,99821.5781662904,99822.6252406529,3,0,84,8,8
9,211,784.00098651764,1,0,99824.5193933043,99825.5665111675,3,1,99,16,16
9,212,665.044126944849,0,0,99827.4841415235,99828.531214731,3,0,80,4,0
9,213,681.349596183281,0,0,99830.2488890497,99831.2959622573,3,0,67,16,4
9,214,749.604977187118,0,0,99833.0136338812,99834.0607067038,3,0,66,4,16
9,215,462.200486377697,0,0,99836.001920629,99837.048989217,3,0,75,8,4
9,216,521.875439473661,0,0,99838.6372460916,99839.6843343127,3,0,63,0,0
9,217,554.965271250694,1,0,99841.3431717415,99842.3902464889,3,1,87,0,8
9,218,476.250460647861,0,0,99844.107926967,99845.1550020993,3,0,75,4,4
9,219,457.249869345105,1,0,99846.766793653,99847.8138653207,3,1,96,8,0
9,220,593.710586239467,1,0,99849.2962390453,99850.3433545987,3,1,83,8,4
9,221,740.599550757906,1,0,99851.97864195,99853.0257089982,3,1,98,4,0
9,222,386.250861003646,0,0,99854.825741412,99855.8728073053,3,0,66,0,16
9,223,544.216734866495,0,0,99857.4257762126,99858.4728517299,3,0,62,16,16
9,224,548.347766831284,1,0,99860.0258183275,99861.0728926899,3,1,66,8,16
9,225,985.520741247456,0,0,99862.6964537003,99863.7435192086,3,0,90,8,4
9,226,565.627576012048,1,0,99865.8494316158,99866.8965105978,3,1,64,16,0
9,227,848.807873946498,1,0,99868.567121333,99869.6142457405,3,1,79,16,0
9,228,830.811264706426,0,0,99871.6613520548,99872.7083667481,3,0,73,8,8
9,229,677.964621412684,0,0,99874.6260444545,99875.6731118876,3,0,71,0,16
9,230,775.976059419918,0,0,99877.3790298382,99878.42616233,3,0,100,8,0
9,231,623.990577136283,0,0,99880.2849511765,99881.3320286186,3,0,92,8,16
9,232,741.123484651325,0,0,99883.0379342505,99884.0850066881,3,0,68,4,8
9,233,482.538437194307,1,0,99885.9203355384,99886.9674125956,3,1,93,0,0
9,234,878.030757958186,1,0,99888.6497893229,99889.6968586808,3,1,68,16,16
9,235,1598.31935660623,1,0,99891.7557178985,99892.802791876,3,1,81,4,0
9,236,1138.63069882791,1,0,99895.4852040198,99896.5322591342,3,1,95,16,8
9,237,658.94131733512,1,0,99898.7558233782,99899.8029004354,3,1,98,8,0
9,238,887.329525779933,1,0,99901.5676375676,99902.6147138549,3,1,91,4,8
9,239,585.529364398099,1,0,99904.5323888665,99905.5794536049,3,1,74,16,0
9,240,523.181232085335,1,0,99907.1794841709,99908.2265604581,3,1,78,0,0
9,241,1084.47803197487,0,0,99923.5091482988,99924.5562261259,4,0,65,8,0
9,242,446.755408192985,1,0,99926.6739287779,99927.7209788877,4,1,95,0,16
9,243,415.813666870235,0,0,99929.3798332548,99930.4268987631,4,0,73,4,0
9,244,491.397192934528,0,1,99932.0151625671,99933.0622303852,4,1,61,4,16
9,245,596.409942896571,1,0,99934.5681449481,99935.6152216203,4,1,64,8,4
9,246,455.035950333695,1,0,99937.4034764932,99938.4505574,4,1,61,16,4
9,247,976.60193136835,1,0,99939.9799939381,99941.0270644509,4,1,72,4,16
9,248,504.058992650243,1,0,99943.1094475686,99944.1565257807,4,1,64,0,0
9,249,826.333381555742,0,0,99945.7212583704,99946.7683315779,4,0,70,8,16
9,250,571.794674367993,1,0,99948.6507116929,99949.6977837456,4,1,72,0,4
9,251,462.617400698946,1,0,99951.3919299297,99952.4390004425,4,1,93,0,0
9,252,484.875544192619,1,0,99954.05080316,99955.0978655886,4,1,95,4,4
9,253,622.083858135738,1,0,99956.6273090561,99957.674378414,4,1,97,4,4
9,254,579.041207383852,1,0,99959.4744073632,99960.5214801858,4,1,79,0,16
9,255,519.42053399398,1,0,99962.1450392713,99963.1921059345,4,1,72,4,8
9,256,461.951415665681,1,1,99964.7803689686,99965.8274460257,4,0,66,16,8
9,257,591.540167995845,0,0,99967.3098209052,99968.3568952676,4,0,86,8,8
9,258,482.886058278382,1,0,99970.1333995469,99971.1804704447,4,1,95,8,0
9,259,797.498539686785,1,0,99972.8157862832,99973.8628591058,4,1,62,16,0
9,260,1104.77440686373,0,0,99975.7805907069,99976.8276238784,4,0,95,16,8
9,261,672.64290060848,0,0,99979.0277004089,99980.0747208766,4,0,67,0,0
9,262,418.108427984407,0,0,99981.9571075359,99983.0041815134,4,0,68,0,8
9,263,521.697201867937,0,0,99984.6277444486,99985.6748118817,4,0,78,0,8
9,264,523.08730124787,0,0,99987.2513069988,99988.2983821312,4,0,64,16,16
9,265,528.878676239401,1,0,99990.0042927676,99991.0513632803,4,1,85,16,0
9,266,664.912854743307,0,0,99992.6513926915,99993.6984928464,4,0,73,0,8
9,267,519.206109893275,0,0,99995.4161398327,99996.4632122704,4,0,76,8,4
9,268,524.159806620446,0,0,99998.0632370619,99999.1103071898,4,0,75,0,0
9,269,560.839798126835,1,0,100000.804463768,100001.851563153,4,1,83,8,8
9,270,487.903658766299,1,0,100003.616264869,100004.663339616,4,1,82,4,4
9,271,482.825619183131,0,0,100006.169245325,100007.216322382,4,0,68,0,4
9,272,732.653925937484,0,0,100008.85164207,100009.898708348,4,0,81,16,8
9,273,471.976222645026,0,0,100011.769335175,100012.816406458,4,0,62,16,0
9,274,560.224628134165,1,0,100014.39289965,100015.439971318,4,1,70,0,16
9,275,800.970131007489,1,0,100017.075340666,100018.122374607,4,1,79,8,16
9,276,1243.74584879843,0,0,100019.981224663,100021.028327898,4,0,81,8,8
9,277,740.02518679481,1,0,100023.393040546,100024.440111829,4,1,90,4,16
9,278,555.280940447119,1,0,100026.263673532,100027.31075059,4,1,61,16,4
9,279,697.066072883899,1,0,100028.899010159,100029.946084906,4,1,70,8,8
9,280,693.818914674921,1,0,100031.84026104,100032.887307686,4,1,97,16,4
9,281,503.907317455742,1,0,100034.640274976,100035.687345104,4,1,84,4,16
9,282,663.62708019733,0,0,100037.287378365,100038.334448108,4,0,100,4,4
9,283,501.65451724024,0,0,100040.146243049,100041.193326265,4,0,98,16,0
9,284,567.708298025536,1,0,100042.840397317,100043.887476299,4,1,77,8,4
9,285,771.744552257587,1,0,100045.558092424,100046.605164861,4,1,100,0,0
9,286,891.163751701242,1,0,100048.581664444,100049.628736882,4,1,71,16,4
9,287,499.938739623758,1,0,100051.722886762,100052.769964974,4,1,94,8,0
9,288,456.634699366987,0,0,100054.452342086,100055.499415293,4,0,75,16,8
9,289,1231.0305393039,0,0,100056.981795947,100058.028869925,4,0,84,16,16
9,290,929.252705755061,0,0,100060.440675029,100061.487739383,4,0,90,16,4
9,291,892.939583456609,1,0,100063.476060007,100064.523093563,4,1,73,4,0
9,292,790.762081902358,0,0,100066.523165936,100067.570194873,4,0,91,4,8
9,293,720.613840559963,1,0,100069.523168631,100070.570239914,4,1,87,4,0
9,294,550.766100903274,0,0,100072.429102673,100073.476167411,4,0,95,16,8
9,295,621.790516772307,0,0,100075.182079588,100076.22915087,4,0,100,4,4
9,296,779.770634224406,0,0,100077.946821339,100078.993955756,4,0,81,4,8
9,297,636.866031010868,0,0,100080.852749607,100081.899829744,4,0,62,8,16
9,298,437.03972606454,0,0,100083.711619296,100084.758690194,4,0,73,4,0
9,299,643.046987985144,1,0,100086.35871768,100087.405794737,4,1,77,16,16
9,300,612.408597065951,0,0,100089.135236203,100090.182305561,4,0,88,8,0
9,301,535.163958047633,0,0,100091.876457904,100092.923528802,4,0,89,0,8
9,302,500.535046448931,0,0,100094.500023919,100095.547092122,4,0,70,8,16
9,303,632.019353841315,0,0,100097.170656597,100098.217721335,4,0,92,4,8
9,304,665.127278844011,1,0,100100.029523591,100101.076593334,4,1,73,8,4
9,305,498.527467309032,1,0,100102.900149648,100103.94722709,4,1,92,0,4
9,306,720.198081122362,1,0,100105.488425001,100106.535505137,4,1,88,8,0
9,307,618.195352508337,0,0,100108.335531777,100109.38260383,4,0,91,0,4
9,308,654.977359052282,0,0,100111.041450882,100112.088535639,4,0,82,0,16
9,309,516.411282573245,1,0,100113.806201873,100114.853277391,4,1,78,16,16
9,310,500.743696087739,0,0,100116.488593614,100117.53573496,4,0,93,0,8
9,311,513.121008567396,1,0,100119.194523114,100120.241594396,4,1,92,0,4
9,312,621.434426517226,0,0,100121.923977668,100122.971044716,4,0,95,4,8
9,313,510.75772412878,0,0,100124.794605265,100125.841684632,4,0,95,4,0
9,314,735.688584871241,0,0,100127.394683951,100128.441724822,4,0,92,16,0
9,315,474.613985308679,0,0,100130.288807345,100131.335885172,4,0,96,8,8
9,316,631.322956789518,1,0,100132.877091937,100133.924153211,4,1,89,8,4
9,317,773.528083242127,1,0,100135.641835999,100136.688905742,4,1,61,4,16
9,318,678.892765878118,0,0,100138.606625794,100139.653719404,4,0,62,8,16
9,319,633.688935951795,1,0,100141.347803225,100142.394883747,4,1,99,16,16
9,320,551.743905511103,1,0,100144.159616259,100145.206682922,4,1,80,0,16
9,321,662.282406381564,0,0,100166.31289483,100167.359966113,5,0,85,8,4
9,322,566.028321918566,1,0,100169.14823061,100170.195307282,5,1,80,16,16
9,323,519.889803195838,1,0,100171.889460781,100172.936527059,5,1,95,0,4
9,324,614.085108507425,1,0,100174.607137794,100175.654217161,5,1,100,16,16
9,325,580.872473728959,0,0,100177.454249575,100178.501317778,5,0,74,4,8
9,326,594.367332174443,1,0,100180.171930823,100181.219007495,5,1,87,8,0
9,327,457.36651297193,1,0,100182.924920056,100183.971985949,5,1,64,16,16
9,328,473.370941588655,0,0,100185.536718539,100186.583790207,5,0,87,8,4
9,329,519.821279885946,1,0,100188.254437513,100189.301486083,5,1,83,0,4
9,330,575.698578497395,1,0,100190.901509335,100191.948581773,5,1,87,16,8
9,331,546.302076414577,1,0,100193.595673612,100194.64274374,5,1,83,16,8
9,332,441.015618169331,1,0,100196.325123932,100197.372195985,5,1,68,8,0
9,333,423.631869125529,1,0,100198.972256963,100200.019354808,5,1,97,0,0
9,334,610.196987821837,0,0,100201.642860384,100202.689925507,5,0,84,0,16
9,335,435.163804067997,1,0,100204.489955226,100205.537031514,5,1,96,4,4
9,336,462.856462370837,1,0,100207.184112189,100208.231198101,5,1,84,8,8
9,337,514.871432780637,1,1,100209.890038224,100210.937114896,5,0,100,4,0
9,338,1215.51347315835,0,0,100212.572426885,100213.619506252,5,0,69,0,0
9,339,598.247753601754,0,0,100215.913660675,100216.960732342,5,0,82,8,4
9,340,663.530069650733,0,0,100218.72546524,100219.772543452,5,0,73,16,16
9,341,536.638749181293,1,0,100221.631396587,100222.678465175,5,1,65,8,16
9,342,523.628173483303,1,0,100224.349089769,100225.396207632,5,1,74,4,16
9,343,524.786525478703,1,0,100227.055070469,100228.102083622,5,1,74,16,0
9,344,412.755140248919,0,0,100229.749164683,100230.796243665,5,0,92,8,4
9,345,794.542413088493,0,0,100232.243322108,100233.290393006,5,0,70,16,16
9,346,587.715566114639,0,0,100235.14925307,100236.196326663,5,0,88,16,0
9,347,547.491995326709,0,0,100237.843413498,100238.890484396,5,0,65,0,16
9,348,632.090571903973,0,0,100240.537566226,100241.584642899,5,0,94,16,4
9,349,470.515290173353,1,0,100243.255260563,100244.302328381,5,1,78,16,4
9,350,677.848747727694,0,0,100245.820010476,100246.867084839,5,0,80,4,4
9,351,467.709683900466,0,0,100248.572989316,100249.620057519,5,0,86,4,0
9,352,652.234501656494,1,0,100251.255384136,100252.302456574,5,1,63,4,4
9,353,569.084923714399,1,0,100254.149541407,100255.196620004,5,1,91,0,16
9,354,606.562942368328,1,0,100256.973122359,100258.020191331,5,1,66,4,16
9,355,518.678711348912,1,0,100259.832007446,100260.87905794,5,1,79,8,0
9,356,519.389352019061,1,0,100262.526144006,100263.573217598,5,1,62,0,0
9,357,827.323120014626,0,0,100265.173245085,100266.220316367,5,0,68,8,16
9,358,672.711423918372,1,0,100268.185056887,100269.23212278,5,1,91,16,0
9,359,496.552609969513,1,0,100270.985097385,100272.032175212,5,1,72,16,8
9,360,498.861999672954,1,0,100273.60866263,100274.655741997,5,1,94,4,8
9,361,502.763594035059,0,0,100276.349908584,100277.396955229,5,0,95,16,4
9,362,606.442449119641,1,0,100279.091104878,100280.138177316,5,1,78,0,8
9,363,639.964593705372,0,0,100281.820563282,100282.86762956,5,0,62,4,8
9,364,519.197640722268,0,0,100284.679424117,100285.726496939,5,0,99,0,16
9,365,521.098200319102,1,0,100287.279464692,100288.326542519,5,1,96,0,0
9,366,657.845714216819,0,0,100289.879511811,100290.926582324,5,0,99,0,16
9,367,435.324718375341,0,0,100292.750134788,100293.797215695,5,0,66,0,4
9,368,621.835557380109,0,0,100295.373716972,100296.420789024,5,0,72,0,8
9,369,455.819348906516,1,0,100298.126698891,100299.173763629,5,1,65,4,16
9,370,492.602510348661,1,0,100300.714967699,100301.762039752,5,1,75,16,4
9,371,731.175285181962,0,0,100303.303243822,100304.350320109,5,0,84,8,0
9,372,554.32469373045,1,0,100306.115054547,100307.162123135,5,1,66,4,8
9,373,541.519303020323,1,0,100308.926857572,100309.973928085,5,1,64,4,4
9,374,541.525462438585,1,0,100311.573959806,100312.621035708,5,1,77,16,0
9,375,538.791459155618,1,0,100314.29167955,100315.338725425,5,1,61,0,4
9,376,630.912201857427,0,0,100317.009340395,100318.056405133,5,0,99,4,0
9,377,489.729920591344,0,0,100319.844675405,100320.891747457,5,0,67,8,8
9,378,564.853801522986,0,0,100322.562364352,100323.609440254,5,0,72,0,8
9,379,733.431935019325,1,0,100325.232995105,100326.280069083,5,1,65,0,8
9,380,610.553463047836,1,0,100328.056596075,100329.10364195,5,1,87,16,4
9,381,561.952724543517,0,0,100330.927202883,100331.974271471,5,0,72,8,8
9,382,611.669854130014,1,0,100333.715482394,100334.762550597,5,1,69,8,0
9,383,411.746538666193,0,0,100336.527290424,100337.574407902,5,0,65,4,0
9,384,481.525216047885,1,0,100339.009679547,100340.056745825,5,1,85,0,4
9,385,458.355096532614,0,1,100341.609713578,100342.65678871,5,1,99,8,16
9,386,497.464586005663,0,0,100344.256814272,100345.303893638,5,0,85,0,0
9,387,492.236796024372,0,0,100347.009803505,100348.056874403,5,0,77,8,8
9,388,675.803057296434,0,0,100349.739255365,100350.786330497,5,0,73,0,8
9,389,441.711630264763,0,0,100352.586362526,100353.633428034,5,0,85,8,8
9,390,696.650698402664,1,0,100355.127566596,100356.174642883,5,1,62,4,4
9,391,1059.36616187682,0,0,100357.974677607,100359.02174658,5,0,88,4,0
9,392,572.647751134355,0,0,100361.292375562,100362.339452619,5,0,98,16,8
9,393,741.016850050073,1,0,100364.068891775,100365.115956899,5,1,71,4,16
9,394,664.004728343571,0,0,100367.057228568,100368.104248266,5,0,99,8,16
9,395,747.224754391937,0,0,100369.880737917,100370.927816514,5,0,61,16,8
9,396,1161.57022585685,0,0,100372.704323873,100373.751390151,5,0,94,8,4
9,397,625.911924682441,0,0,100376.069075402,100377.116182872,5,0,82,8,16
9,398,525.544516538503,0,0,100378.904413492,100379.951476305,5,0,66,4,16
9,399,1014.74670496827,1,0,100381.563272094,100382.610352615,5,1,80,4,8
9,400,533.662604531855,0,0,100384.669213758,100385.716280806,5,0,79,16,0
9,401,642.205460084369,1,0,100406.069535432,100407.11660864,6,1,94,4,8
9,402,494.712489497033,1,0,100408.951977911,100409.999002229,6,1,95,16,8
9,403,549.315947384457,0,0,100411.68138704,100412.728457553,6,0,93,0,0
9,404,876.123269074014,1,0,100414.469665781,100415.516742453,6,1,78,16,16
9,405,500.1327607024,1,0,100417.422653012,100418.469728145,6,1,86,0,8
9,406,1027.35499489063,1,0,100420.034461119,100421.081532402,6,1,92,16,16
9,407,713.73725644662,0,0,100423.305096646,100424.352172163,6,0,81,8,4
9,408,668.777107755886,1,0,100426.222787826,100427.269866808,6,1,85,0,16
9,409,543.759784442955,0,0,100429.128720328,100430.175848586,6,0,66,8,8
9,410,474.24519128981,0,0,100431.846406581,100432.893477864,6,0,78,16,16
9,411,836.578387054033,1,0,100434.517035794,100435.564102458,6,1,62,16,4
9,412,515.909291541902,0,1,100437.481812886,100438.528921125,6,1,81,8,4
9,413,589.240402361611,1,0,100440.152414382,100441.1994822,6,1,76,4,0
9,414,542.448602369404,1,0,100442.870103714,100443.917171917,6,1,96,8,4
9,415,434.986336389557,0,0,100445.599556344,100446.646627626,6,0,65,0,8
9,416,516.63841039408,1,0,100448.23488989,100449.281967718,6,1,86,16,0
9,417,784.066045176587,0,0,100450.952584612,100451.999658975,6,0,91,4,4
9,418,596.802989544813,1,0,100453.893837804,100454.940875595,6,1,100,0,0
9,419,683.834528739681,0,0,100456.705607337,100457.752685164,6,0,70,16,16
9,420,714.870970827178,1,0,100459.552717963,100460.599795405,6,1,93,8,4
9,421,656.020222319057,0,0,100462.470409528,100463.517475421,6,0,61,4,16
9,422,753.820315934718,0,0,100465.31750976,100466.364584507,6,0,98,4,0
9,423,695.329892274458,1,0,100468.246970012,100469.294035905,6,1,81,4,16
9,424,591.427373990882,1,0,100470.999947311,100472.047024369,6,1,66,16,8
9,425,922.473902101046,1,0,100473.811775745,100474.858832784,6,1,73,16,8
9,426,475.59255984379,1,0,100476.917686612,100477.964762899,6,1,75,0,16
9,427,639.63006134145,0,0,100479.564784996,100480.611853584,6,0,88,4,0
9,428,426.200338552007,1,0,100482.353064891,100483.400134634,6,1,65,0,16
9,429,458.642278506886,0,0,100484.976627057,100486.023708348,6,0,85,4,8
9,430,434.823112300364,0,0,100487.635509911,100488.682578499,6,0,76,4,4
9,431,385.237639871775,1,0,100490.212006568,100491.259077081,6,1,76,0,0
9,432,434.125560364919,0,0,100492.753226037,100493.800295395,6,0,97,0,8
9,433,620.912802405655,0,0,100495.353266227,100496.400339434,6,0,70,16,4
9,434,594.507458503358,0,0,100498.082716547,100499.129793989,6,0,96,0,0
9,435,744.07499168592,1,0,100500.906290569,100501.953365316,6,1,86,8,0
9,436,446.023209617124,1,0,100503.718104373,100504.765176811,6,1,84,8,8
9,437,712.273244265816,1,0,100506.235789548,100507.282858136,6,1,79,4,8
9,438,401.624721140251,0,0,100509.106418299,100510.153487657,6,0,75,16,16
9,439,532.530045020394,0,0,100511.753518608,100512.800592201,6,0,66,0,16
9,440,564.270198447048,0,0,100514.435913429,100515.482992411,6,0,82,16,8
9,441,669.660211598966,1,0,100517.165376452,100518.212443885,6,1,93,8,0
9,442,585.972456174204,0,0,100520.035998659,100521.083069172,6,0,77,16,0
9,443,691.467564072809,1,0,100522.765456293,100523.812536045,6,1,96,0,8
9,444,636.373664034181,0,0,100525.659612795,100526.706692546,6,0,82,4,8
9,445,632.439732828061,1,0,100528.365531515,100529.412613962,6,1,63,16,4
9,446,676.352398702875,0,0,100531.153861071,100532.200891162,6,0,91,4,4
9,447,662.346695098677,0,0,100533.918564711,100534.965639074,6,0,97,4,16
9,448,502.796700806357,0,1,100536.742141813,100537.789212326,6,1,68,8,8
9,449,536.788114608498,0,0,100539.436294926,100540.483371599,6,0,98,8,8
9,450,381.631696669501,0,0,100542.14223251,100543.189292629,6,0,84,8,0
9,451,442.914637897047,0,0,100544.754029453,100545.801099581,6,0,72,0,4
9,452,449.642626525019,0,0,100547.436420039,100548.483491707,6,0,83,16,4
9,453,601.253540356993,1,0,100549.977641048,100551.024710406,6,1,96,8,16
9,454,668.758244588389,1,0,100552.648263332,100553.695339619,6,1,90,16,8
9,455,523.636257697945,1,0,100555.460105238,100556.507205778,6,1,96,8,16
9,456,626.632574378164,0,0,100558.048350949,100559.095425697,6,0,81,0,16
9,457,520.905334124109,1,0,100560.813095396,100561.860165909,6,1,63,16,0
9,458,427.831424414762,1,0,100563.413176392,100564.460213028,6,1,64,0,4
9,459,522.621496696956,0,0,100565.966158773,100567.013185015,6,0,61,0,4
9,460,554.093716273201,0,0,100568.695570981,100569.742648039,6,0,82,8,16
9,461,564.076562339324,1,0,100571.342677065,100572.389741033,6,1,87,8,0
9,462,780.817732069409,0,0,100574.036834413,100575.0839619,6,0,78,4,4
9,463,697.134596193791,0,0,100576.954523283,100578.001597645,6,0,78,8,8
9,464,829.68332474411,1,0,100579.825155499,100580.872235636,6,1,77,4,4
9,465,509.966241341317,1,0,100582.848730984,100583.895810351,6,1,64,16,0
9,466,701.192485299543,0,0,100585.566413387,100586.613495064,6,0,81,8,4
9,467,490.902901161462,0,0,100588.354702907,100589.401773034,6,0,97,8,0
9,468,584.358693624381,1,0,100591.025325191,100592.072405712,6,1,65,8,16
9,469,533.025106720743,1,0,100593.766550357,100594.813614325,6,1,82,8,16
9,470,604.122665434261,0,0,100596.366591317,100597.413656825,6,0,90,0,4
9,471,717.829022236401,0,0,100599.154866208,100600.201952889,6,0,73,16,0
9,472,583.624185266672,0,0,100602.060821808,100603.107926197,6,0,69,4,0
9,473,406.13186142582,0,0,100604.731422534,100605.778490737,6,0,87,4,0
9,474,488.135021194466,0,0,100607.225579189,100608.272648162,6,0,75,4,8
9,475,587.961942088441,1,0,100609.872674108,100610.919761944,6,1,87,4,16
9,476,519.685003178893,1,0,100612.566878422,100613.613915058,6,1,66,0,8
9,477,394.504840762238,1,0,100615.1668805,100616.213947164,6,1,76,4,16
9,478,482.411784556462,1,0,100617.661040235,100618.708108053,6,1,83,0,0
9,479,451.599005653406,0,0,100620.378720328,100621.425823948,6,0,94,0,4
9,480,599.417269506375,0,0,100622.919938642,100623.967014544,6,0,86,16,4
9,481,994.111178166349,0,0,100649.426234318,100650.473300211,7,0,63,8,16
9,482,675.614040737855,1,0,100652.614514444,100653.661633077,7,1,94,8,0
9,483,629.054373101098,0,0,100655.485144351,100656.532216018,7,0,99,4,4
9,484,495.533999346662,1,0,100658.202834453,100659.249903811,7,1,88,8,16
9,485,421.648157658638,0,0,100660.861699599,100661.908773191,7,0,87,16,4
9,486,457.824618279119,1,0,100663.426445277,100664.47356391,7,1,86,16,8
9,487,667.343507608166,0,0,100665.955899524,100667.002968112,7,0,76,16,8
9,488,1006.3037086511,0,0,100668.708879133,100669.755948106,7,0,84,4,0
9,489,500.973133704974,1,0,100671.791280344,100672.838393973,7,1,92,8,16
9,490,451.834602674353,0,0,100674.438379498,100675.485459635,7,0,65,4,16
9,491,485.439899144694,1,0,100677.120773549,100678.167839442,7,1,77,16,16
9,492,1234.75004643842,0,0,100679.744349958,100680.791463971,7,0,93,16,0
9,493,621.689271632931,0,0,100683.097332031,100684.144444119,7,0,99,16,8
9,494,719.312667511986,0,0,100685.93266935,100686.979741018,7,0,61,16,0
9,495,484.303490011371,1,0,100688.885663896,100689.932729019,7,1,65,8,0
9,496,513.106764949043,1,0,100691.579818934,100692.626892527,7,1,91,0,16
9,497,559.750354412245,0,0,100694.309278108,100695.356347466,7,0,88,16,0
9,498,509.235582620022,0,0,100696.991664075,100698.038743442,7,0,69,8,4
9,499,1066.71470995934,0,0,100699.662302527,100700.709366111,7,0,92,16,4
9,500,429.588008046267,1,0,100702.956465034,100704.003534007,7,1,64,0,8
9,501,843.699037373881,0,0,100705.56827853,100706.615340959,7,0,71,4,4
9,502,428.68719593389,1,0,100708.615377915,100709.662443423,7,1,77,4,8
9,503,448.776461023954,0,0,100711.274281942,100712.321332052,7,0,86,0,8
9,504,420.114852240658,0,0,100713.83898412,100714.886057713,7,0,96,8,4
9,505,497.324074720382,0,0,100716.403729798,100717.450801466,7,0,67,4,4
9,506,815.12520002434,0,0,100719.003775763,100720.050838577,7,0,65,16,16
9,507,819.445248576812,1,0,100722.027344704,100723.074421376,7,1,71,4,0
9,508,814.176267609582,1,0,100725.062685796,100726.109760543,7,1,100,16,8
9,509,576.747986124246,1,0,100727.992188008,100729.039212326,7,1,97,8,8
9,510,710.169424521155,1,0,100730.662778726,100731.709849623,7,1,62,8,4
9,511,535.954285951448,1,0,100733.556936767,100734.604009974,7,1,83,8,8
9,512,618.946799193509,1,0,100736.215799988,100737.262876275,7,1,90,0,16
9,513,600.094033477944,1,0,100738.921728718,100739.968797305,7,1,99,0,8
9,514,495.843509153929,1,0,100741.721763056,100742.768842808,7,1,96,8,0
9,515,809.975172465784,1,0,100744.274751212,100745.321820955,7,1,94,0,4
9,516,484.161053886055,1,0,100747.239497506,100748.286569174,7,1,85,4,16
9,517,540.509546524845,0,0,100749.957192613,100751.004260431,7,0,70,0,0
9,518,434.273385937558,0,0,100752.745469428,100753.792533397,7,0,72,16,8
9,519,806.458925508196,0,0,100755.404336114,100756.451398928,7,0,68,8,8
9,520,660.023446762352,1,0,100758.439675282,100759.486746564,7,1,89,16,4
9,521,536.54866796569,1,0,100761.216188415,100762.263260853,7,1,86,4,8
9,522,708.771240926581,0,0,100763.933878902,100764.980941716,7,0,81,8,16
9,523,673.964476663969,1,0,100766.839834887,100767.886880377,7,1,96,4,0
9,524,608.989360654959,0,0,100769.698670699,100770.745744292,7,0,79,4,8
9,525,578.715914132772,1,0,100772.48694097,100773.534017258,7,1,61,0,8
9,526,506.376466553775,0,0,100775.27522433,100776.322295613,7,0,62,0,16
9,527,596.605888771592,0,0,100777.945857009,100778.992925212,7,0,80,4,0
9,528,821.635299915215,0,0,100780.604741403,100781.651851567,7,0,73,0,0
9,529,755.170764183276,1,0,100783.581238676,100784.628312268,7,1,87,0,0
9,530,463.665268471232,1,0,100786.404828866,100787.451883596,7,1,98,0,0
9,531,1191.59922123072,0,0,100788.95778507,100790.004857122,7,0,92,16,4
9,532,436.571996673592,0,0,100792.357838811,100793.404917793,7,0,67,4,16
9,533,468.263259885134,0,0,100794.993180057,100796.04024826,7,0,84,0,16
9,534,510.573712075711,0,0,100797.616744532,100798.663821204,7,0,81,8,0
9,535,491.143117717002,1,0,100800.346198316,100801.393272679,7,1,63,4,16
9,536,514.51611246739,1,0,100802.910945535,100803.958014892,7,1,89,8,8
9,537,587.947313499171,0,0,100805.48745451,100806.534531182,7,0,92,8,8
9,538,504.647215275327,1,0,100808.181623407,100809.228686606,7,1,88,8,4
9,539,428.393084628624,0,0,100810.911067568,100811.95814039,7,0,83,0,4
9,540,414.299609576119,1,0,100813.511105833,100814.55817904,7,1,77,8,16
9,541,582.384606212145,0,0,100816.064089754,100817.111157187,7,0,72,16,0
9,542,512.99936043506,0,0,100818.805306066,100819.852376963,7,0,64,4,8
9,543,564.266733781551,0,0,100821.475937974,100822.523010411,7,0,71,4,0
9,544,714.988769352203,1,0,100824.217153131,100825.264224029,7,1,93,16,4
9,545,482.022972486448,1,0,100827.064260292,100828.111327725,7,1,87,0,16
9,546,606.507122822222,0,0,100829.699591914,100830.746669741,7,0,91,8,4
9,547,468.152005734737,1,0,100832.370227672,100833.41729241,7,1,87,0,8
9,548,435.338192066411,1,0,100834.993791377,100836.04086497,7,1,96,4,4
9,549,530.856998244417,1,0,100837.664429445,100838.711516511,7,1,87,0,4
9,550,613.012988091214,1,0,100840.276217919,100841.323360034,7,1,91,16,16
9,551,477.687910417444,1,0,100843.123370505,100844.170410991,7,1,98,16,16
9,552,1040.00909536262,0,0,100845.782197155,100846.829330417,7,0,64,4,16
9,553,532.622436003294,1,0,100849.064601369,100850.111670727,7,1,76,4,8
9,554,537.148054485442,1,0,100851.699929911,100852.747001194,7,1,82,4,4
9,555,462.960402233875,0,0,100854.488215196,100855.535284554,7,0,74,8,0
9,556,476.172698239679,0,0,100857.005894981,100858.052970884,7,0,87,16,16
9,557,972.85393702623,0,0,100859.700056949,100860.747129771,7,0,84,0,4
9,558,609.514064461109,1,0,100862.78245816,100863.829529057,7,1,69,0,0
9,559,465.331770887133,0,0,100865.629555697,100866.676631599,7,0,68,0,4
9,560,606.402028075536,1,0,100868.276662935,100869.323730368,7,1,89,16,0
9,561,802.503821381833,1,0,100882.053342757,100883.1004125,8,1,91,8,16
9,562,801.992976208567,1,0,100884.923973434,100885.971099381,8,1,76,4,8
9,563,470.046020956943,1,0,100887.935782541,100888.982853439,8,1,76,8,16
9,564,635.066716538859,1,0,100890.58288362,100891.629955673,8,1,79,4,16
9,565,686.930011754157,1,0,100893.277062911,100894.324124185,8,1,98,8,8
9,566,513.308100315044,0,0,100896.206501605,100897.253572503,8,0,100,0,0
9,567,425.373054255033,1,0,100898.80653987,100899.853616158,8,1,89,0,4
9,568,616.805253128405,1,0,100901.3830577,100902.430129753,8,1,68,4,16
9,569,653.272360388655,0,0,100904.21839194,100905.265465148,8,0,61,0,16
9,570,564.324863124057,1,0,100907.124315973,100908.171386101,8,1,79,0,8
9,571,607.653156010201,1,0,100909.889086212,100910.936139017,8,1,65,16,4
9,572,834.507674080669,0,0,100912.583221617,100913.630299444,8,0,92,4,16
9,573,586.840161529835,0,0,100915.500925501,100916.548038745,8,0,84,8,4
9,574,449.330421979539,1,0,100918.277434015,100919.324505298,8,1,85,0,8
9,575,567.833025852451,1,0,100920.853946455,100921.901010039,8,1,83,4,4
9,576,614.866582269315,0,0,100923.606929914,100924.653994653,8,0,72,4,4
9,577,459.985027511721,1,0,100926.465852343,100927.512867036,8,1,84,0,8
9,578,584.36485301354,1,0,100929.042295875,100930.089369852,8,1,62,16,8
9,579,601.505305792671,1,0,100931.854112759,100932.901180192,8,1,79,8,4
9,580,529.214748457889,1,0,100934.689445459,100935.736521746,8,1,73,16,0
9,581,355.380722714472,1,0,100937.360077752,100938.40714634,8,1,75,4,8
9,582,443.7153597828,0,0,100939.866000014,100940.913071682,8,0,76,0,0
9,583,782.434574342915,1,0,100942.454268438,100943.501343955,8,1,71,16,8
9,584,859.292711043963,0,0,100945.46608563,100946.513162687,8,0,100,16,16
9,585,589.932949791546,0,0,100948.395542802,100949.44260985,8,0,85,8,4
9,586,562.522468957468,1,0,100951.172057475,100952.219128758,8,1,94,4,0
9,587,957.382296430296,0,0,100953.92503516,100954.972104903,8,0,71,4,8
9,588,1003.01381961617,1,0,100957.101558533,100958.148672547,8,1,73,8,4
9,589,776.653978289687,1,0,100960.195729201,100961.242798174,8,1,73,16,0
9,590,718.56353059411,0,0,100963.042818654,100964.089932283,8,0,89,8,0
9,591,687.340766686248,1,0,100965.831103939,100966.878179071,8,1,81,8,0
9,592,663.131633526064,0,0,100968.619377675,100969.666450882,8,0,100,0,16
9,593,549.618912817095,0,0,100971.395892733,100972.442972485,8,0,78,4,8
9,594,634.530463867122,1,0,100974.195940545,100975.243007594,8,1,61,0,16
9,595,511.952647546423,0,0,100977.066569682,100978.113642504,8,0,80,0,0
9,596,593.604336609133,0,0,100979.713669221,100980.760740888,8,0,63,4,16
9,597,542.482094097068,1,0,100982.560775227,100983.60784728,8,1,66,8,8
9,598,541.761444401345,0,0,100985.231397511,100986.278505365,8,0,64,0,4
9,599,564.133151812712,0,0,100987.890271896,100988.937337405,8,0,71,16,8
9,600,745.605987322051,0,0,100990.713843994,100991.760908347,8,0,92,8,4
9,601,1047.4123081076,1,0,100993.572707138,100994.619778806,8,1,73,8,8
9,602,550.886209195596,0,0,100996.749223197,100997.79629756,8,0,88,16,16
9,603,583.534873992903,1,0,100999.525745955,101000.572818777,8,1,70,8,8
9,604,460.118609466008,0,0,101002.208128841,101003.255208978,8,0,69,0,8
9,605,555.81796306069,0,0,101004.902294274,101005.949372871,8,0,95,16,8
9,606,455.548720317893,0,0,101007.584687169,101008.631760377,8,0,87,0,4
9,607,465.030345294508,0,0,101010.114141801,101011.161207309,8,0,79,8,16
9,608,401.721346701379,0,0,101012.655361269,101013.702424853,8,0,69,4,4
9,609,343.229768157471,0,0,101015.184808971,101016.231871785,8,0,68,16,4
9,610,533.304974422208,1,0,101017.690722764,101018.737797897,8,1,96,0,0
9,611,575.654692773242,0,0,101020.455474525,101021.502547348,8,0,91,0,16
9,612,474.090436386177,0,0,101023.231993433,101024.279065486,8,0,83,16,0
9,613,662.919904178125,0,0,101025.926145007,101026.973255171,8,0,70,8,8
9,614,489.327249873895,1,0,101028.843839651,101029.890907469,8,1,66,8,0
9,615,940.78464069753,1,0,101031.432110385,101032.479229788,8,1,96,8,16
9,616,431.404645802104,0,1,101034.455685485,101035.502762542,8,1,71,4,4
9,617,864.425800275058,0,0,101037.11455525,101038.161624993,8,0,99,16,4
9,618,631.349904142553,1,0,101040.067538247,101041.114612225,8,1,93,16,4
9,619,488.831803217181,0,0,101042.796995496,101043.844064469,8,0,74,8,0
9,620,664.435886283172,0,0,101045.479389932,101046.526458905,8,0,81,16,4
9,621,395.848744650721,1,0,101048.302968574,101049.350032927,8,1,77,4,4
9,622,504.445109982044,0,0,101050.832411271,101051.879481014,8,0,66,16,0
9,623,587.15467582806,0,0,101053.420684314,101054.467759832,8,0,93,16,16
9,624,542.68727908493,0,0,101056.091325077,101057.138385195,8,0,88,4,16
9,625,497.093482204946,0,0,101058.714888782,101059.761963529,8,0,77,16,0
9,626,789.621053219889,1,0,101061.397280138,101062.444354885,8,1,92,0,8
9,627,617.30377949425,0,0,101064.432626234,101065.479694822,8,0,69,0,0
9,628,681.748802235234,0,0,101067.267961244,101068.315037916,8,0,61,16,8
9,629,716.472799569601,1,0,101070.150358297,101071.19742881,8,1,89,4,0
9,630,484.350455415552,0,0,101073.044516338,101074.09159609,8,0,97,8,0
9,631,711.646910378477,1,0,101075.609266251,101076.656342154,8,1,77,4,8
9,632,649.057791568339,1,0,101078.538724963,101079.585794706,8,1,93,16,16
9,633,773.49805617996,1,0,101081.362296291,101082.409375658,8,1,62,4,0
9,634,529.804895893903,0,0,101084.280030972,101085.327060678,8,0,92,0,16
9,635,633.874872815795,1,0,101086.985909656,101088.03301443,8,1,78,8,16
9,636,539.169107316411,0,0,101089.715357666,101090.762437418,8,0,66,0,4
9,637,464.356276046601,1,0,101092.468351904,101093.515422802,8,1,75,4,0
9,638,614.664861946949,0,0,101095.091978358,101096.138988432,8,0,73,16,16
9,639,635.164881954552,1,0,101097.774314664,101098.821386717,8,1,86,0,4
9,640,783.005088669597,1,0,101100.515535981,101101.562603029,8,1,97,4,0
9,641,620.363460999215,0,0,101116.892257148,101117.939324966,9,0,98,0,16
9,642,549.035309770261,1,0,101119.692293411,101120.739367774,9,1,94,16,4
9,643,541.177841339959,1,0,101122.398219831,101123.445298043,9,1,90,16,8
9,644,527.510519721545,1,0,101125.010024858,101126.057101915,9,1,69,8,4
9,645,542.161805336946,0,0,101127.7512481,101128.798320152,9,0,76,8,8
9,646,529.180101846578,1,0,101130.410110551,101131.457179909,9,1,79,4,16
9,647,467.743175628129,0,0,101133.127803733,101134.174867701,9,0,76,0,4
9,648,512.324906230788,1,0,101135.716075236,101136.763144979,9,1,86,8,0
9,649,707.901225818205,0,0,101138.304350974,101139.351421102,9,0,97,4,4
9,650,784.00907071773,1,0,101141.25734167,101142.304406408,9,1,95,16,4
9,651,861.306834558491,0,0,101144.222087579,101145.269157322,9,0,94,0,16
9,652,576.519703390659,1,0,101147.245663449,101148.292739352,9,1,85,0,16
9,653,885.251498504658,1,0,101150.033944115,101151.081016167,9,1,61,4,0
9,654,968.54813209211,1,0,101152.998690024,101154.045769776,9,1,62,0,4
9,655,742.887382555637,0,0,101156.069334097,101157.116461584,9,0,76,0,0
9,656,845.573804472224,0,0,101159.057609296,101160.104681734,9,0,78,0,4
9,657,937.442781738355,0,0,101161.951775036,101162.998853248,9,0,92,16,16
9,658,533.503615035443,1,0,101164.951821617,101165.998887125,9,1,67,16,0
9,659,520.648949139286,1,0,101167.563630494,101168.610701391,9,1,86,4,4
9,660,538.622460648185,1,0,101170.175437446,101171.222509113,9,1,100,0,0
9,661,476.504920836305,1,0,101172.869588249,101173.916658377,9,1,88,0,0
9,662,567.792989764712,1,0,101175.528450701,101176.575527373,9,1,85,8,16
9,663,705.248834579834,0,0,101178.15202403,101179.199093388,9,0,61,4,0
9,664,634.494662343059,1,0,101181.081480817,101182.12855441,9,1,74,16,16
9,665,494.474967679707,0,0,101183.822702134,101184.869769182,9,0,79,0,8
9,666,461.052528364235,0,0,101186.458032986,101187.505109658,9,0,87,4,8
9,667,584.941141787567,0,0,101189.152192643,101190.199270086,9,0,74,16,0
9,668,383.821748007904,0,0,101191.952259319,101192.999314048,9,0,95,4,16
9,669,635.912479017861,1,0,101194.458161948,101195.505234771,9,1,97,4,16
9,670,441.824424255174,1,0,101197.258228239,101198.305278733,9,1,94,0,4
9,671,529.109268754837,1,0,101199.881770771,101200.928840129,9,1,67,16,0
9,672,607.724759029225,0,0,101202.658319706,101203.705353647,9,0,70,8,16
9,673,641.492894603289,0,0,101205.446559565,101206.493636237,9,0,85,4,0
9,674,536.593323602574,0,0,101208.152492529,101209.199554958,9,0,97,4,4
9,675,478.219928510953,1,0,101210.787819147,101211.834897744,9,1,79,0,16
9,676,523.433382477378,1,0,101213.399628024,101214.446702771,9,1,63,16,8
9,677,598.036024253815,0,0,101216.082020919,101217.129100286,9,0,98,16,4
9,678,496.870203991421,0,0,101218.740883756,101219.787958118,9,0,67,0,4
9,679,490.368573300657,0,0,101221.305630204,101222.352706106,9,0,65,16,8
9,680,546.814076471492,0,0,101224.035085528,101225.082182219,9,0,84,8,16
9,681,592.624222219456,0,0,101226.741056989,101227.788131351,9,0,62,8,8
9,682,467.168426708668,0,1,101229.505761014,101230.552831912,9,1,73,8,0
9,683,449.887462629704,1,0,101232.046968934,101233.094050996,9,1,75,16,4
9,684,658.7596150639,0,0,101234.588187633,101235.635259685,9,0,71,16,8
9,685,527.583662595134,1,0,101237.435297489,101238.482366077,9,1,79,4,8
9,686,496.216537765577,1,0,101240.11768538,101241.164760127,9,1,62,4,16
9,687,564.60896540375,0,0,101242.74125409,101243.788326142,9,0,71,8,16
9,688,711.272341912263,0,0,101245.435412208,101246.482490035,9,0,98,16,0
9,689,573.414596321527,0,0,101248.294285361,101249.341358183,9,0,98,8,4
9,690,523.172762914328,0,0,101250.988443479,101252.035511682,9,0,66,8,0
9,691,463.208703004057,0,0,101253.682605061,101254.729675959,9,0,87,0,0
9,692,466.603301829309,1,0,101256.317943228,101257.365008351,9,1,85,16,16
9,693,516.01631109952,1,0,101259.035626786,101260.082696528,9,1,76,16,8
9,694,537.327831945731,1,0,101261.600369384,101262.647449906,9,1,63,4,8
9,695,653.246952875634,1,1,101264.25923607,101265.306307738,9,0,99,8,4
9,696,614.241788221989,0,0,101267.059271949,101268.1063594,9,0,67,8,0
9,697,487.225354954717,1,0,101269.753438151,101270.800510973,9,1,85,0,8
9,698,438.469861532212,1,0,101272.471130178,101273.518190682,9,1,96,8,8
9,699,578.880293091061,0,0,101275.00057249,101276.047645698,9,0,67,8,8
9,700,612.228434649296,0,0,101277.659446106,101278.706512384,9,0,63,4,16
9,701,629.425476901815,0,0,101280.483013584,101281.530083326,9,0,89,4,4
9,702,577.790079449187,1,0,101283.353650804,101284.400718622,9,1,73,0,8
9,703,577.054801178747,1,0,101286.165459604,101287.212523958,9,1,64,16,0
9,704,576.338386075804,0,0,101288.930202896,101289.977272639,9,0,89,4,0
9,705,648.022242603474,1,0,101291.76554599,101292.812653844,9,1,82,4,0
9,706,570.301790008671,1,0,101294.589115392,101295.636184365,9,1,68,0,0
9,707,639.491859823465,0,0,101297.353857914,101298.400938821,9,0,72,0,16
9,708,567.530445376178,0,0,101300.212735302,101301.2598062,9,0,100,16,16
9,709,1001.01355476363,1,0,101302.836295542,101303.883373754,9,1,91,16,16
9,710,724.905016919365,0,0,101305.977525944,101307.024597227,9,0,66,8,16
9,711,676.426696474664,1,0,101308.859925307,101309.907000824,9,1,73,8,8
9,712,510.405868451926,0,0,101311.65996619,101312.707043247,9,0,77,8,4
9,713,658.910905302037,1,0,101314.342366015,101315.389492732,9,1,61,4,8
9,714,847.098255748278,1,0,101317.107105842,101318.154184439,9,1,67,0,8
9,715,496.777813008521,0,0,101320.142495439,101321.189531306,9,0,97,0,8
9,716,670.721553062322,0,0,101322.789592284,101323.83662276,9,0,63,4,4
9,717,679.634203537717,1,0,101325.589595055,101326.636664413,9,1,70,16,4
9,718,557.08602933737,0,0,101328.519051073,101329.566119661,9,0,94,8,0
9,719,568.828923700494,1,0,101331.260268925,101332.307400646,9,1,76,8,4
9,720,605.401895634714,1,0,101334.036777053,101335.083856035,9,1,69,4,8
