sub_id,Trial,RT,Resp,Error,Fix_onset,Disp_onset,block,tid,tloc,fish_setsize,bird_setsize
16,1,1044.6082566632,0,0,703330.021140249,703331.068219231,1,0,84,8,0
16,2,654.602420632727,0,0,703333.174138182,703334.221211005,1,0,99,0,16
16,3,623.641816200688,1,0,703335.985948522,703337.033018265,1,1,100,0,4
16,4,570.611314848065,0,0,703338.727162909,703339.774237657,1,0,83,4,4
16,5,488.962705479935,0,0,703341.503665264,703342.550785052,1,0,77,4,4
16,6,576.68371242471,0,0,703344.139015749,703345.186084337,1,0,97,4,0
16,7,633.712433627807,1,0,703346.950821854,703347.997902761,1,1,95,4,16
16,8,559.504763339646,0,0,703349.739093665,703350.786176112,1,0,73,16,4
16,9,715.967358904891,0,0,703352.36266738,703353.409797561,1,0,100,8,0
16,10,525.24926525075,0,1,703355.174479644,703356.221548617,1,1,87,8,4
16,11,918.798295664601,0,0,703357.856883319,703358.903947672,1,0,68,8,8
16,12,661.135233240202,0,0,703360.939274521,703361.986338104,1,0,76,0,4
16,13,754.22338664066,0,0,703363.833432177,703364.880511929,1,0,100,8,4
16,14,612.23460896872,1,0,703366.845247829,703367.892319112,1,1,87,8,0
16,15,843.887683935463,0,0,703369.586463371,703370.633544278,1,0,95,16,4
16,16,577.144897310063,0,0,703372.492388944,703373.539464076,1,0,79,16,4
16,17,601.977284764871,0,0,703375.245374328,703376.292477947,1,0,82,0,16
16,18,793.423342285678,1,0,703378.010126473,703379.057193522,1,1,73,16,8
16,19,612.629195442423,0,0,703380.880740211,703381.927825353,1,0,62,0,0
16,20,577.721571084112,0,0,703383.692615995,703384.739646471,1,0,70,16,0
16,21,526.210131589323,0,0,703386.469081393,703387.516149981,1,0,95,4,8
16,22,572.424872894771,1,0,703389.080878721,703390.127952698,1,1,89,16,16
16,23,484.525628387928,0,0,703391.892690985,703392.939764193,1,0,77,16,16
16,24,504.991386667825,0,0,703394.457434354,703395.504541823,1,0,88,0,8
16,25,831.740579102188,1,0,703397.057477624,703398.104553911,1,1,92,16,0
16,26,528.132249019109,1,0,703400.069281342,703401.11635532,1,1,87,0,16
16,27,496.897551347502,0,0,703402.669324997,703403.716464033,1,0,64,0,8
16,28,602.471961523406,1,0,703405.304665088,703406.351743685,1,1,74,4,4
16,29,890.449276426807,1,0,703408.057647007,703409.104717905,1,1,69,8,4
16,30,491.376420017332,0,0,703411.04593029,703412.093030445,1,0,62,8,8
16,31,468.410715460777,1,0,703413.657722999,703414.704806215,1,1,66,16,0
16,32,543.617363320664,1,0,703416.222485231,703417.269549584,1,1,97,16,8
16,33,373.664913815446,0,0,703418.975466765,703420.022531503,1,0,65,0,4
16,34,772.801674087532,0,0,703421.57550426,703422.622576313,1,0,80,4,8
16,35,575.814082170837,1,0,703424.540253634,703425.587361488,1,1,78,4,0
16,36,568.815849954262,0,0,703427.340296057,703428.387366185,1,0,99,0,4
16,37,485.816022497602,1,0,703430.034458025,703431.081518528,1,1,62,0,0
16,38,539.114457671531,1,0,703432.752143507,703433.799213635,1,1,79,8,0
16,39,583.279658923857,1,0,703435.375708752,703436.422780805,1,1,90,8,8
16,40,580.22806153167,0,0,703438.163989802,703439.211064165,1,0,87,4,8
16,41,573.322990327142,0,0,703440.822850329,703441.869929696,1,0,74,8,16
16,42,467.066811630502,1,0,703443.622898911,703444.669976353,1,1,85,4,4
16,43,483.304912457243,1,0,703446.140587551,703447.187660373,1,1,76,0,8
16,44,536.48092946969,1,0,703448.740625431,703449.787716347,1,1,69,0,16
16,45,681.629863916896,1,0,703451.411255799,703452.458328237,1,1,73,16,16
16,46,489.564016810618,1,0,703454.19953069,703455.246592349,1,1,63,8,4
16,47,638.070208602585,0,0,703456.940755471,703457.987825984,1,0,61,4,4
16,48,575.832560425624,0,0,703459.681964854,703460.729050765,1,0,87,4,0
16,49,563.785930746235,1,0,703462.329072862,703463.376146454,1,1,86,4,16
16,50,643.068175995722,1,0,703465.140877042,703466.187956024,1,1,64,16,16
16,51,607.446061214432,0,0,703468.011511953,703469.058587086,1,0,61,0,0
16,52,626.748078037053,1,0,703470.788079366,703471.835107918,1,1,98,8,16
16,53,476.627738797106,0,0,703473.623360866,703474.670432919,1,0,86,0,0
16,54,646.450070897117,1,0,703476.223399517,703477.270474264,1,1,68,16,4
16,55,705.442100763321,0,0,703479.082273825,703480.129344338,1,0,91,8,8
16,56,738.256684388034,1,0,703481.976428401,703483.023495834,1,1,76,16,4
16,57,645.470726536587,1,0,703484.78824259,703485.835313103,1,1,86,4,8
16,58,635.477871401235,0,0,703487.588284243,703488.635350907,1,0,89,0,8
16,59,421.611986239441,1,0,703490.294207583,703491.341280791,1,1,88,16,8
16,60,626.983290188946,1,0,703492.811893143,703493.858964426,1,1,92,16,8
16,61,600.495949271135,0,0,703495.506114395,703496.553146411,1,0,89,8,16
16,62,527.180236997083,0,0,703498.329622203,703499.376698876,1,0,80,8,16
16,63,794.209050713107,1,0,703501.082604892,703502.129682334,1,1,92,16,0
16,64,578.614683938213,1,0,703504.012063604,703505.059135272,1,1,95,8,0
16,65,436.514652334154,1,0,703506.812105642,703507.859184239,1,1,75,16,16
16,66,467.942986171693,0,0,703509.329796976,703510.376872879,1,0,68,0,16
16,67,632.104445481673,1,0,703511.988659813,703513.03573071,1,1,80,16,0
16,68,798.06213977281,1,0,703514.75339579,703515.800492095,1,1,99,0,0
16,69,572.055693948641,1,0,703517.800514808,703518.847588786,1,1,64,4,8
16,70,551.475601736456,1,0,703520.529959738,703521.577035641,1,1,83,4,16
16,71,642.38217275124,1,0,703523.177068517,703524.224139029,1,1,82,8,16
16,72,594.227220863104,0,0,703526.071261589,703527.11829784,1,0,97,8,4
16,73,493.348197662272,1,0,703528.730090934,703529.777166066,1,1,72,0,8
16,74,498.924378538504,1,0,703531.306602989,703532.353710458,1,1,91,0,4
16,75,457.612903905101,0,0,703533.989047085,703535.036078717,1,0,94,4,16
16,76,686.91270344425,0,0,703536.518451286,703537.565522954,1,0,70,4,0
16,77,637.774942326359,0,0,703539.353790916,703540.400856424,1,0,92,8,8
16,78,767.287857015617,0,0,703542.189140169,703543.236197593,1,0,90,16,8
16,79,556.825424777344,0,0,703545.118584637,703546.165664389,1,0,82,4,16
16,80,710.23257332854,1,0,703547.742151807,703548.789221935,1,1,94,4,0
16,81,647.013655980118,1,0,703564.895356465,703565.942493962,2,1,71,0,8
16,82,592.361692804843,0,0,703567.62481102,703568.671886152,2,0,70,16,8
16,83,576.706425170414,0,0,703570.43661828,703571.483693027,2,0,91,16,0
16,84,572.12537212763,1,0,703573.1190131,703574.166082073,2,1,68,4,4
16,85,520.68322582636,1,0,703575.895538553,703576.942606371,2,1,69,0,0
16,86,596.757579012774,1,0,703578.495562959,703579.542642711,2,1,93,8,4
16,87,481.910193455406,1,0,703581.166196022,703582.213264995,2,1,82,4,16
16,88,636.586948181503,0,0,703583.895651732,703584.942723784,2,0,75,0,16
16,89,826.973974006251,0,0,703586.672161785,703587.719236148,2,0,72,4,16
16,90,465.400309185497,1,0,703589.695743045,703590.742811248,2,1,67,16,4
16,91,567.887320532463,0,0,703592.36635763,703593.413460864,2,0,83,8,8
16,92,510.332355624996,1,0,703595.00170465,703596.048780167,2,1,74,8,8
16,93,634.349546511658,0,0,703597.648801879,703598.695873162,2,0,84,16,4
16,94,512.673697201535,0,0,703600.51943448,703601.566513462,2,0,77,4,8
16,95,382.050165790133,0,0,703603.190091796,703604.237155379,2,0,77,0,16
16,96,508.51648778189,1,0,703605.766580754,703606.813649342,2,1,84,0,4
16,97,514.67742677778,1,0,703608.378385011,703609.425449749,2,1,92,4,16
16,98,485.044557717629,1,0,703610.954889367,703612.00195834,2,1,82,0,4
16,99,452.035568072461,1,0,703613.601987366,703614.649062499,2,1,76,0,8
16,100,454.113980289549,1,0,703616.260855207,703617.307930725,2,1,84,4,4
16,101,550.650627119467,0,0,703618.931485576,703619.978558783,2,0,97,8,0
16,102,616.337153711356,1,0,703621.731527229,703622.778603516,2,1,75,0,8
16,103,437.974429805763,1,0,703624.460978703,703625.508048831,2,1,94,0,8
16,104,490.026741637848,1,0,703627.013962239,703628.061039681,2,1,81,8,8
16,105,641.879796865396,0,0,703629.614000889,703630.661117213,2,0,94,4,16
16,106,590.131220407784,0,0,703632.472868268,703633.51994879,2,0,83,4,8
16,107,558.491542236879,1,0,703635.155268093,703636.202333987,2,1,98,4,4
16,108,571.706147980876,0,0,703637.920016775,703638.967094602,2,0,74,16,16
16,109,589.172278996557,0,0,703640.743687037,703641.790658615,2,0,87,16,4
16,110,542.466325568967,1,0,703643.402448628,703644.449522221,2,1,65,0,4
16,111,715.977752814069,0,0,703646.17902682,703647.226044594,2,0,79,16,8
16,112,509.400746552274,0,0,703649.061361125,703650.108437412,2,0,75,8,4
16,113,736.160178901628,0,0,703651.802583211,703652.849657189,2,0,90,16,8
16,114,648.385662119836,1,0,703654.614389702,703655.661458289,2,1,65,4,4
16,115,595.913356402889,0,1,703657.496859128,703658.543923481,2,1,92,8,4
16,116,732.402175548486,0,0,703660.320353848,703661.36743052,2,0,68,16,0
16,117,637.503158883192,0,0,703663.179230081,703664.226302133,2,0,69,8,16
16,118,765.799977118149,1,0,703665.943980302,703666.991042345,2,1,85,0,0
16,119,591.23105823528,1,0,703668.779310307,703669.826385439,2,1,85,16,16
16,120,991.907668183558,0,0,703671.508767941,703672.555870406,2,0,78,8,8
16,121,733.849249314517,0,0,703674.602939379,703675.650004117,2,0,63,4,0
16,122,729.322475963272,0,0,703677.532422728,703678.57945128,2,0,98,8,16
16,123,869.98313316144,1,0,703680.320659508,703681.367798544,2,1,80,16,16
16,124,729.567312053405,1,0,703683.30894818,703684.356018693,2,1,95,4,0
16,125,862.082548905164,1,0,703686.23848119,703687.285656028,2,1,75,8,0
16,126,563.859073561616,0,0,703689.273757993,703690.320821192,2,0,66,8,16
16,127,555.351018556394,0,0,703692.050258038,703693.09733471,2,0,76,16,4
16,128,569.060686044395,0,0,703694.685596205,703695.732670952,2,0,88,4,4
16,129,672.992076608352,1,0,703697.344463276,703698.391541103,2,1,99,16,4
16,130,506.461173295975,1,0,703700.168033833,703701.215102036,2,1,88,8,16
16,131,652.047424926423,1,0,703702.756306106,703703.803375849,2,1,63,4,0
16,132,608.797279302962,0,0,703705.638709319,703706.685781757,2,0,62,16,8
16,133,556.240666890517,0,0,703708.415216678,703709.462282956,2,0,91,16,8
16,134,637.521637021564,0,0,703711.085840117,703712.132916789,2,0,68,4,8
16,135,868.459836696275,1,0,703713.932950743,703714.980031649,2,1,77,8,8
16,136,639.466467313468,0,0,703716.885934895,703717.933009642,2,0,89,8,0
16,137,686.689425259829,0,0,703719.603630771,703720.650701284,2,0,70,16,0
16,138,665.010650176555,0,0,703722.427194784,703723.474265297,2,0,73,8,0
16,139,503.916956600733,0,0,703725.321352825,703726.368436812,2,0,65,0,4
16,140,544.255246059038,0,0,703727.933166322,703728.98023491,2,0,92,8,4
16,141,491.248612408526,0,0,703730.544969424,703731.592032623,2,0,69,4,16
16,142,1114.56748144701,1,0,703733.215595558,703734.262667226,2,1,64,16,16
16,143,567.298713023774,0,0,703736.450941193,703737.498020559,2,0,63,0,0
16,144,493.161105783656,0,0,703739.239277677,703740.286291601,2,0,76,0,4
16,145,590.292519773357,1,0,703741.851029195,703742.898104712,2,1,78,4,8
16,146,520.704013761133,1,0,703744.580538029,703745.627554647,2,1,93,0,16
16,147,507.387777906843,1,0,703747.262869331,703748.309947158,2,1,73,0,16
16,148,547.507023904473,1,0,703749.980567517,703751.027629946,2,1,79,0,0
16,149,523.542341892608,1,0,703752.686475844,703753.733575229,2,1,62,0,16
16,150,498.129431158304,0,0,703755.36896883,703756.415949646,2,0,85,16,16
16,151,519.236151943915,1,0,703757.968919324,703759.015990991,2,1,63,16,0
16,152,672.388070495799,0,0,703760.674845743,703761.721921646,2,0,97,8,0
16,153,529.645921429619,0,0,703763.498418226,703764.545488738,2,0,85,0,8
16,154,751.403921749443,1,0,703766.133756392,703767.18082498,2,1,72,4,0
16,155,584.915364277549,1,0,703769.016144591,703770.063225498,2,1,81,8,16
16,156,728.689982672222,1,0,703771.698547111,703772.745617239,2,1,74,4,0
16,157,623.892041738145,1,0,703774.675049004,703775.722146849,2,1,78,4,8
16,158,732.176972436719,1,0,703777.545693154,703778.592784454,2,1,78,16,0
16,159,688.482580240816,0,0,703780.404559762,703781.451634125,2,0,92,0,0
16,160,656.101079424843,0,0,703783.192843508,703784.239907861,2,0,72,8,4
16,161,1486.09589016996,0,0,703805.910837345,703806.957915172,3,0,98,4,0
16,162,649.945529992692,1,0,703809.558016186,703810.605025105,3,1,99,0,0
16,163,637.227140716277,0,0,703812.322684795,703813.369771092,3,0,88,4,4
16,164,539.238030673005,0,0,703815.181559488,703816.22863924,3,0,61,4,8
16,165,569.992295117117,1,0,703817.969847468,703819.016986119,3,1,69,0,16
16,166,637.909679207951,0,0,703820.722827077,703821.769908754,3,0,74,16,16
16,167,558.226303081028,1,0,703823.593468148,703824.640532116,3,1,96,16,0
16,168,493.549917940982,1,1,703826.252326364,703827.299397262,3,0,90,8,8
16,169,1059.94516040664,1,0,703828.875921636,703829.922976366,3,1,73,8,8
16,170,711.65039006155,1,0,703832.170063355,703833.217137332,3,1,67,16,0
16,171,734.23190205358,1,0,703835.052461948,703836.099534771,3,1,94,8,4
16,172,629.54367545899,0,0,703837.864270748,703838.911340876,3,0,88,8,16
16,173,662.58384694811,0,0,703840.581979713,703841.629032133,3,0,88,0,4
16,174,534.392123459838,0,0,703843.417288931,703844.464370992,3,0,88,4,8
16,175,549.993111286312,1,0,703846.205571521,703847.252646268,3,1,74,16,4
16,176,563.862923183478,0,0,703848.993853341,703850.040927703,3,0,86,4,8
16,177,613.635487388819,0,0,703851.735072733,703852.782147095,3,0,74,4,16
16,178,784.915672265925,1,0,703854.405760845,703855.452786318,3,1,97,8,4
16,179,481.089453445747,0,0,703857.276341091,703858.323401595,3,0,87,4,4
16,180,502.404054044746,1,0,703859.841076761,703860.888149968,3,1,65,0,0
16,181,595.273548737168,0,0,703862.488172835,703863.535254897,3,0,69,16,4
16,182,456.910732435063,0,0,703865.323514004,703866.370587212,3,0,67,8,4
16,183,482.771354494616,1,0,703867.970616623,703869.017683671,3,1,80,16,16
16,184,610.637784819119,1,0,703870.605944395,703871.653020298,3,1,99,0,8
16,185,506.869233446196,0,0,703873.370701931,703874.417774368,3,0,77,0,16
16,186,698.16169096157,1,0,703875.994276415,703877.041328064,3,1,89,8,0
16,187,535.133561003022,0,0,703878.853140329,703879.900209687,3,0,63,0,4
16,188,544.603252201341,1,0,703881.523764538,703882.570834666,3,1,82,8,16
16,189,397.586095146835,1,1,703884.323805036,703885.370877474,3,0,98,16,0
16,190,657.740634400398,0,0,703886.829737307,703887.876789342,3,0,72,4,0
16,191,688.393653952517,0,0,703889.676827145,703890.723901508,3,0,69,8,8
16,192,683.695187326521,0,0,703892.594537958,703893.641648892,3,0,68,16,8
16,193,561.843025265262,1,0,703895.441626256,703896.488691765,3,1,70,8,8
16,194,680.175860645249,1,0,703898.112248925,703899.159321363,3,1,96,16,4
16,195,597.095575998537,1,0,703900.912290963,703901.959369945,3,1,72,0,0
16,196,649.086293764412,0,0,703903.571162654,703904.618235091,3,0,95,4,0
16,197,473.72396721039,1,0,703906.359447169,703907.406564647,3,1,77,0,4
16,198,541.956635308452,0,0,703909.065365889,703910.112437942,3,0,67,8,8
16,199,772.683105664328,1,0,703911.85364078,703912.900713603,3,1,81,8,16
16,200,697.805215721019,1,0,703914.865457972,703915.91252579,3,1,73,16,8
16,201,798.811276676133,0,0,703917.818436735,703918.865507632,3,0,70,16,8
16,202,579.062780248933,0,0,703920.794959415,703921.842031468,3,0,72,4,16
16,203,604.810223332606,0,0,703923.536163408,703924.583273187,3,0,81,16,0
16,204,764.95075004641,1,0,703926.383280579,703927.430346857,3,1,72,16,16
16,205,803.261827328242,1,0,703929.406852214,703930.453925036,3,1,80,16,8
16,206,879.937106976286,1,0,703932.442196386,703933.489281527,3,1,70,16,4
16,207,650.576868327335,0,0,703935.536369363,703936.583428712,3,0,74,8,0
16,208,729.524196241982,0,0,703938.336400622,703939.383474985,3,0,89,4,16
16,209,573.624415905215,1,0,703941.289392088,703942.336456057,3,1,65,0,8
16,210,719.237614888698,1,0,703943.971784214,703945.018853957,3,1,90,16,0
16,211,555.044588400051,0,0,703946.818956434,703947.865958808,3,0,78,8,0
16,212,523.282107315026,0,0,703949.583634282,703950.63070672,3,0,75,4,0
16,213,664.277296862565,1,0,703952.183679477,703953.230744985,3,1,94,16,16
16,214,736.863890197128,0,0,703955.019166931,703956.066146978,3,0,79,4,16
16,215,728.30925474409,1,0,703957.98376694,703959.030831678,3,1,94,0,8
16,216,542.334283469245,1,0,703960.842623925,703961.889705602,3,1,65,0,4
16,217,593.659016303718,1,0,703963.513254293,703964.56033058,3,1,97,0,8
16,218,679.869430605322,0,0,703966.230934771,703967.278064568,3,0,90,0,0
16,219,662.65006060712,1,0,703969.113349148,703970.160416196,3,1,72,4,4
16,220,803.713773260824,1,0,703971.878097059,703972.925154868,3,1,100,8,0
16,221,622.508101747371,0,0,703974.925201064,703975.972271962,3,0,84,0,16
16,222,637.434250558726,1,0,703977.619363031,703978.666436239,3,1,90,0,4
16,223,620.820041396655,0,0,703980.442932434,703981.490009106,3,0,85,8,4
16,224,739.168660365976,0,0,703983.113560877,703984.1606337,3,0,90,0,0
16,225,492.828883230686,1,0,703986.043024979,703987.090090102,3,1,77,16,4
16,226,778.497963328846,0,0,703988.784234746,703989.831309109,3,0,84,16,16
16,227,654.592796578072,0,0,703991.784267083,703992.831353765,3,0,78,0,16
16,228,643.904699245468,0,0,703994.513737421,703995.560808319,3,0,92,8,16
16,229,642.576578888111,0,0,703997.290052391,703998.337317988,3,0,75,0,8
16,230,777.001229464076,1,0,704000.113826116,704001.160895089,3,1,91,4,0
16,231,634.071218664758,0,0,704003.125635994,704004.172712282,3,0,85,4,8
16,232,645.265926490538,0,0,704005.890381211,704006.937456728,3,0,89,4,8
16,233,605.986283626407,1,0,704008.631601372,704009.67867458,3,1,94,4,16
16,234,490.513719152659,1,0,704011.361051692,704012.408129904,3,1,75,0,16
16,235,804.373599006794,1,0,704013.902273856,704014.949345908,3,1,64,4,4
16,236,599.625164177269,1,0,704016.819960416,704017.867032469,3,1,64,8,4
16,237,741.35293730069,1,0,704019.514118919,704020.561190972,3,1,91,8,16
16,238,556.563265272416,0,0,704022.478870603,704023.525940731,3,0,76,16,8
16,239,644.0047895303,1,0,704025.243616589,704026.290733297,3,1,91,4,4
16,240,549.505748902448,1,0,704028.031902644,704029.078971232,3,1,78,8,0
16,241,1216.96017705835,0,0,704047.867498658,704048.914593039,4,0,64,16,0
16,242,730.784563231282,1,0,704051.208745536,704052.255795261,4,1,77,0,8
16,243,545.256533427164,1,0,704054.044060913,704055.091139895,4,1,84,8,4
16,244,488.83951746393,1,0,704056.773545879,704057.820652578,4,1,69,4,4
16,245,476.969970390201,0,0,704059.479424949,704060.526518944,4,0,84,8,8
16,246,630.700487527065,0,0,704062.173641966,704063.220669748,4,0,69,0,4
16,247,515.602106461301,1,0,704064.926571915,704065.973642043,4,1,83,4,0
16,248,587.505776551552,0,0,704067.526628658,704068.573696477,4,0,65,16,0
16,249,829.647923121229,1,0,704070.173722423,704071.220795246,4,1,90,4,16
16,250,661.15602129139,0,0,704073.20906313,704074.256144422,4,0,99,0,8
16,251,478.161044185981,0,0,704076.114995632,704077.16206807,4,0,68,0,16
16,252,652.800026466139,0,0,704078.703264441,704079.750400012,4,0,95,8,0
16,253,682.507963152602,1,0,704081.585666499,704082.632735087,4,1,69,4,4
16,254,660.885777673684,0,0,704084.409230897,704085.456315268,4,0,83,4,16
16,255,547.673327615485,1,0,704087.24457784,704088.291646043,4,1,65,16,8
16,256,521.5324528981,1,0,704090.044616029,704091.091682692,4,1,64,0,16
16,257,730.860400944948,0,0,704092.715307991,704093.762332308,4,0,65,0,16
16,258,558.259024866857,1,0,704095.679997311,704096.727068978,4,1,85,8,4
16,259,737.599938292988,0,0,704098.315334707,704099.362414844,4,0,96,4,4
16,260,796.481868834235,1,0,704101.209498138,704102.256560181,4,1,67,4,0
16,261,666.357633774169,1,0,704104.197772567,704105.244845389,4,1,81,8,16
16,262,520.73019114323,1,0,704107.08017039,704108.127257071,4,1,67,0,8
16,263,682.616907521151,0,0,704109.668443433,704110.71552357,4,0,95,0,0
16,264,698.314521112479,1,0,704112.456722173,704113.503793456,4,1,63,16,4
16,265,771.377698052675,0,0,704115.362651596,704116.409721724,4,0,83,16,16
16,266,519.152230233885,1,0,704118.209754138,704119.256827345,4,1,92,0,0
16,267,501.739223953336,1,0,704120.845149664,704121.892162817,4,1,93,0,8
16,268,834.033030434512,1,0,704123.551017184,704124.598086927,4,1,70,8,0
16,269,631.112782284617,0,0,704126.456940062,704127.50401404,4,0,78,8,16
16,270,868.479084805585,0,0,704129.339331726,704130.386409938,4,0,70,16,8
16,271,780.038583092391,0,0,704132.421769124,704133.46880268,4,0,97,8,16
16,272,764.685510890558,1,0,704135.445313812,704136.492383169,4,1,61,8,4
16,273,697.261648834683,1,0,704138.43358901,704139.480665298,4,1,67,4,4
16,274,558.835698640905,1,0,704141.363043873,704142.410138253,4,1,95,0,4
16,275,569.757468183525,1,0,704144.021914793,704145.069013023,4,1,74,4,16
16,276,795.638801064342,0,0,704146.810224716,704147.857262507,4,0,92,8,16
16,277,488.787162583321,1,0,704149.774991028,704150.82202497,4,1,74,0,0
16,278,803.885851521045,0,0,704152.43380074,704153.480944395,4,0,80,4,8
16,279,721.69290529564,0,0,704155.469155306,704156.516223509,4,0,97,0,16
16,280,790.222764480859,1,0,704158.41037154,704159.457438204,4,1,83,8,4
16,281,586.244639591314,1,0,704161.410418506,704162.457492483,4,1,79,16,0
16,282,1214.95490765665,0,0,704164.198697246,704165.245769299,4,0,70,0,4
16,283,542.474794900045,1,0,704167.469333158,704168.516406751,4,1,67,16,8
16,284,668.073796317913,0,0,704170.116424228,704171.163523228,4,0,93,0,16
16,285,611.161718727089,0,0,704172.916476275,704173.963546788,4,0,95,8,8
16,286,500.372607260942,1,0,704175.775349043,704176.822419941,4,1,75,16,0
16,287,498.575987643562,0,0,704178.387145986,704179.434213804,4,0,77,0,8
16,288,660.803780658171,0,0,704180.998952169,704182.046024221,4,0,81,16,4
16,289,692.730255890638,1,0,704183.904887751,704184.951959803,4,1,62,16,4
16,290,823.743754182942,1,0,704186.763753205,704187.810829492,4,1,69,4,8
16,291,514.049552963115,1,0,704189.728501039,704190.775573476,4,1,80,8,0
16,292,676.928317523561,0,0,704192.328538534,704193.375613282,4,0,62,4,4
16,293,517.792157828808,0,0,704195.12870684,704196.175694971,4,0,74,8,4
16,294,549.19161950238,0,0,704197.799212865,704198.846288382,4,0,63,4,0
16,295,706.202786532231,1,0,704200.446310094,704201.493395236,4,1,96,16,4
16,296,603.037086315453,1,0,704203.246346743,704204.293424185,4,1,79,0,4
16,297,482.371763442643,0,0,704206.058164012,704207.10522721,4,0,65,8,0
16,298,865.616889088415,1,0,704208.775872592,704209.822921547,4,1,99,4,8
16,299,912.73398231715,0,0,704211.834719106,704212.881791929,4,0,95,0,0
16,300,627.723573008552,0,0,704214.893598342,704215.940708121,4,0,74,16,0
16,301,565.472451155074,1,0,704217.634803875,704218.681882857,4,1,99,8,8
16,302,648.52617343422,1,0,704220.293669791,704221.340749928,4,1,98,8,16
16,303,919.112810050137,0,0,704223.011354889,704224.058438875,4,0,88,4,16
16,304,661.975606228225,1,0,704226.070236049,704227.117299633,4,1,68,16,16
16,305,631.022316170856,1,0,704228.964396015,704230.011508489,4,1,99,4,0
16,306,1088.59983994626,0,0,704231.705608862,704232.752681685,4,0,74,16,16
16,307,698.48159479443,0,0,704234.952725493,704235.999790617,4,0,98,8,0
16,308,505.89758832939,1,0,704237.776291816,704238.823372723,4,1,76,8,8
16,309,660.804935614578,1,0,704240.364567939,704241.411640377,4,1,70,0,4
16,310,498.916679411195,0,0,704243.223443402,704244.270507756,4,0,69,8,8
16,311,498.582146945409,0,0,704245.96464624,704247.011747935,4,0,88,0,0
16,312,682.589960168116,0,0,704248.623519471,704249.670596528,4,0,100,4,8
16,313,752.565353410318,1,0,704251.423568053,704252.470629327,4,1,85,16,4
16,314,684.928606962785,0,0,704254.400081109,704255.447162786,4,0,94,16,8
16,315,1274.40889237914,1,0,704257.31777075,704258.364843957,4,1,96,16,16
16,316,522.752398857847,1,0,704260.694307905,704261.741374953,4,1,74,4,0
16,317,471.962379058823,0,0,704263.306101768,704264.353174591,4,0,74,16,16
16,318,713.694155681878,0,0,704265.9414357,704266.988505443,4,0,82,4,16
16,319,666.357633774169,0,0,704268.77676763,704269.823840067,4,0,72,4,8
16,320,524.014304159209,0,0,704271.612102255,704272.658975283,4,0,72,16,8
16,321,579.525890061632,1,0,704294.212440406,704295.259525932,5,1,75,0,16
16,322,529.459599521942,1,0,704296.859557268,704297.906625856,5,1,80,8,8
16,323,612.226139870472,1,0,704299.55371962,704300.600787823,5,1,74,4,16
16,324,591.492832521908,0,0,704302.377281324,704303.424358766,5,0,83,4,16
16,325,522.151087643579,1,0,704305.165563914,704306.212639046,5,1,74,4,16
16,326,673.467120155692,0,0,704307.824460242,704308.871497263,5,0,62,16,8
16,327,431.34999612812,1,0,704310.577410209,704311.624488806,5,1,73,16,4
16,328,653.255822020583,0,0,704313.177451939,704314.224522837,5,0,68,4,0
16,329,585.370774846524,0,0,704315.883376434,704316.930450027,5,0,93,0,0
16,330,594.281115569174,0,0,704318.624593901,704319.671668648,5,0,78,0,0
16,331,662.942246999592,0,0,704321.412874566,704322.459944309,5,0,82,4,8
16,332,560.966465738602,1,0,704324.318798214,704325.365917617,5,1,78,0,16
16,333,597.770800115541,1,0,704327.118908006,704328.16591269,5,1,69,16,0
16,334,563.178459997289,1,0,704329.883586239,704330.930666376,5,1,84,8,8
16,335,622.637064196169,1,0,704332.613042333,704333.660113616,5,1,97,16,16
16,336,541.550884954631,1,0,704335.413087451,704336.460162583,5,1,93,8,8
16,337,629.503254313022,1,0,704338.11901464,704339.166078994,5,1,99,0,4
16,338,459.730967297219,0,0,704340.836697428,704341.883817601,5,0,67,16,4
16,339,517.371008871123,0,0,704343.55438753,704344.601458428,5,0,86,4,8
16,340,600.219161249697,0,0,704346.26031395,704347.307389467,5,0,72,8,4
16,341,712.911142036319,1,0,704349.001534882,704350.04860347,5,1,88,8,4
16,342,546.403721440583,1,0,704351.778044935,704352.825115833,5,1,98,8,16
16,343,483.418476418592,1,0,704354.51928242,704355.566338689,5,1,89,4,0
16,344,775.978769175708,1,0,704357.260478714,704358.307555386,5,1,83,8,8
16,345,512.660993379541,0,0,704360.236991,704361.284066518,5,0,76,16,4
16,346,534.596923273057,0,0,704362.989979849,704364.037052672,5,0,66,8,16
16,347,641.773932147771,0,0,704365.754792049,704366.801800583,5,0,68,16,8
16,348,588.883172255009,0,0,704368.519478751,704369.566552728,5,0,75,0,4
16,349,652.429307578132,0,0,704371.201870107,704372.24894216,5,0,61,0,16
16,350,547.786506591365,0,0,704373.919619108,704374.966632262,5,0,75,0,8
16,351,601.039131288417,1,0,704376.684308505,704377.731380943,5,1,86,16,0
16,352,838.807719643228,0,0,704379.366702941,704380.413773839,5,0,90,0,4
16,353,541.647125617601,0,0,704382.425631837,704383.472712743,5,0,80,0,0
16,354,621.447530225851,0,0,704385.107966603,704386.155043275,5,0,61,8,16
16,355,473.13535946887,1,0,704387.896248423,704388.943360512,5,1,97,16,8
16,356,589.268134557642,1,0,704390.508054221,704391.555123964,5,1,65,8,0
16,357,682.670032372698,0,0,704393.284625098,704394.331632092,5,0,96,16,4
16,358,645.458407816477,0,0,704396.225785899,704397.272860646,5,0,66,16,16
16,359,731.119480566122,0,0,704398.955241223,704400.002311351,5,0,71,4,4
16,360,891.746984794736,0,0,704401.849458163,704402.896480556,5,0,91,4,16
16,361,577.286948566325,1,0,704404.872980138,704405.920049111,5,1,93,4,4
16,362,819.305522134528,0,0,704407.520087377,704408.567149805,5,0,98,0,4
16,363,647.633445449173,0,0,704410.40247981,704411.449570726,5,0,90,4,0
16,364,778.609987464733,1,0,704413.202514919,704414.249588896,5,1,62,16,8
16,365,926.544509944506,1,0,704416.143735004,704417.190810906,5,1,94,0,16
16,366,668.842181330547,0,0,704419.120258839,704420.167359764,5,0,93,8,4
16,367,582.224861718714,0,0,704422.037947324,704423.085024766,5,0,67,0,8
16,368,674.794855643995,1,0,704424.779161711,704425.826299977,5,1,87,4,4
16,369,621.551855001599,1,0,704427.661559535,704428.708633127,5,1,83,0,4
16,370,812.068613246083,0,0,704430.34395628,704431.391024098,5,0,69,4,4
16,371,971.643245080486,1,0,704433.367530225,704434.414599968,5,1,75,0,8
16,372,607.564629637636,0,0,704436.426401377,704437.473465345,5,0,66,0,0
16,373,774.917812668718,1,0,704439.191153522,704440.238231734,5,1,78,16,16
16,374,655.342703452334,0,0,704442.214724388,704443.261802985,5,0,74,16,8
16,375,777.123647392727,1,0,704445.014768351,704446.061840403,5,1,90,8,16
16,376,766.300813294947,0,0,704448.026582463,704449.073650281,5,0,95,4,8
16,377,845.400586375035,1,0,704450.932508806,704451.979579319,5,1,80,4,8
16,378,565.359272179194,1,0,704453.97961435,704455.026685633,5,1,74,8,8
16,379,882.735399063677,0,0,704456.709070829,704457.756138647,5,0,80,8,0
16,380,588.156363111921,1,0,704459.685578496,704460.732720612,5,1,72,16,16
16,381,538.905808003619,1,0,704462.41503998,704463.462115882,5,1,77,4,16
16,382,736.092425417155,1,0,704465.132723153,704466.179796745,5,1,92,16,0
16,383,550.612515886314,1,0,704467.956282546,704469.003368458,5,1,89,0,16
16,384,544.741453719325,1,0,704470.66222244,704471.709299112,5,1,68,0,8
16,385,520.083069335669,1,0,704473.344613796,704474.391686618,5,1,95,4,0
16,386,717.124940943904,0,0,704476.050541756,704477.097608034,5,0,87,0,0
16,387,683.251710608602,0,0,704478.897646222,704479.94471481,5,0,79,16,0
16,388,603.498656419106,1,0,704481.674156276,704482.721233718,5,1,79,8,0
16,389,706.193162477575,0,0,704484.450667869,704485.497740692,5,0,66,16,16
16,390,662.203504005447,1,0,704487.262480904,704488.309549492,5,1,90,4,8
16,391,587.819905951619,0,0,704490.038995577,704491.086049536,5,0,65,8,4
16,392,748.965954524465,0,0,704492.803740793,704493.850812461,5,0,99,4,0
16,393,662.658914574422,1,0,704495.744962033,704496.792033316,5,1,78,8,4
16,394,534.921831684187,0,0,704498.603881767,704499.650906084,5,0,94,0,8
16,395,624.261990655214,0,0,704501.38033985,704502.427412288,5,0,86,8,16
16,396,515.153240296058,0,0,704504.121593119,704505.16862552,5,0,80,8,0
16,397,775.037151062861,1,0,704506.874545396,704507.921613214,5,1,61,16,4
16,398,690.615272149444,1,0,704509.756942064,704510.804001028,5,1,91,8,0
16,399,650.317788706161,0,0,704512.686395002,704513.733465899,5,0,92,4,4
16,400,474.260989692993,1,0,704515.498186863,704516.545273545,5,1,86,16,0
16,401,628.650562488474,0,0,704538.686793053,704539.733857406,6,0,76,8,8
16,402,516.882491647266,1,0,704541.404480845,704542.451557517,6,1,74,8,8
16,403,607.567709404975,1,0,704544.145731034,704545.192774984,6,1,74,8,4
16,404,872.695578495041,0,0,704546.898712953,704547.945756903,6,0,72,4,16
16,405,721.959299291484,0,0,704549.957567936,704551.004636909,6,0,84,16,4
16,406,489.241418195888,0,0,704552.875246412,704553.922319235,6,0,85,0,8
16,407,495.798098505475,1,0,704555.510590738,704556.557661636,6,1,74,4,8
16,408,590.67979187239,1,0,704558.157726079,704559.20475617,6,1,89,8,4
16,409,624.092607176863,0,0,704560.828314486,704561.875385769,6,0,80,4,0
16,410,726.280117756687,0,0,704563.651880809,704564.698955171,6,0,61,16,0
16,411,669.995913864113,1,0,704566.593111287,704567.640179105,6,1,92,16,0
16,412,819.190418347716,0,0,704569.499062268,704570.546096979,6,0,73,16,4
16,413,502.824048162438,1,0,704572.534379492,704573.58144885,6,1,87,4,4
16,414,573.840764700435,1,0,704575.134423147,704576.181497509,6,1,89,16,16
16,415,902.827358804643,1,0,704577.946227327,704578.993300535,6,1,67,0,0
16,416,599.185537081212,0,0,704581.016856772,704582.06392844,6,0,73,4,0
16,417,589.331653434783,0,0,704583.722782807,704584.76985101,6,0,66,8,16
16,418,776.563527062535,0,0,704586.381644873,704587.428720775,6,0,64,4,4
16,419,619.177791639231,0,0,704589.322876891,704590.369935855,6,0,73,4,4
16,420,609.053279389627,1,0,704592.16996288,704593.217046096,6,1,68,0,16
16,421,708.920236444101,1,0,704594.958252784,704596.005332921,6,1,99,4,16
16,422,566.810195683502,0,0,704597.758296362,704598.80536418,6,0,71,0,4
16,423,649.894329952076,0,0,704600.570100542,704601.61717529,6,0,82,0,16
16,424,695.178617024794,1,0,704603.440733528,704604.487801731,6,1,85,4,0
16,425,588.18869991228,0,0,704606.240772487,704607.287852239,6,0,71,0,8
16,426,603.608755627647,1,0,704609.064346124,704610.111421256,6,1,96,0,0
16,427,530.429704929702,0,0,704611.899686523,704612.946759345,6,0,76,8,16
16,428,649.671821622178,0,0,704614.61737393,704615.664449833,6,0,68,8,8
16,429,600.677266600542,1,0,704617.476285195,704618.523312592,6,1,79,16,8
16,430,653.718931833282,0,0,704620.335155269,704621.38218536,6,0,84,4,8
16,431,475.72461690288,1,0,704623.135156501,704624.182246646,6,1,68,8,0
16,432,533.179491758347,1,0,704625.758720975,704626.805793798,6,1,96,8,4
16,433,494.717893889174,1,0,704628.441112331,704629.488216336,6,1,100,4,0
16,434,840.912694227882,1,0,704631.099979787,704632.147080712,6,1,61,4,8
16,435,542.36623540055,1,0,704634.170615391,704635.217683979,6,1,85,4,16
16,436,433.839548262767,1,0,704636.958899906,704638.006029318,6,1,78,16,8
16,437,417.258830857463,1,0,704639.582461301,704640.629539513,6,1,93,0,4
16,438,473.473741556518,0,0,704642.194261709,704643.241335302,6,0,96,0,8
16,439,560.407885233872,1,0,704644.888425987,704645.935496884,6,1,100,8,0
16,440,507.525209570304,1,0,704647.547283433,704648.594367035,6,1,96,8,0
16,441,560.698916902766,0,0,704650.253209083,704651.300284216,6,0,76,4,16
16,442,633.388680289499,0,0,704653.053256126,704654.100321634,6,0,81,0,16
16,443,514.782906393521,0,0,704655.770945073,704656.818048693,6,0,94,16,4
16,444,596.730246674269,0,0,704658.476907679,704659.52394393,6,0,79,4,16
16,445,450.292458175682,0,0,704661.253380777,704662.300455139,6,0,74,0,0
16,446,690.86819246877,1,0,704663.888714323,704664.935789456,6,1,69,4,4
16,447,621.796691208147,1,0,704666.688763291,704667.735854976,6,1,90,8,4
16,448,841.79964766372,0,0,704669.535861213,704670.582968297,6,0,81,8,4
16,449,612.570681259967,1,0,704672.630024566,704673.677105473,6,1,89,4,8
16,450,1080.40706918109,0,0,704675.430066989,704676.477145201,6,0,98,16,0
16,451,609.566049417481,0,0,704678.641919521,704679.688961546,6,0,76,16,16
16,452,611.40270519536,1,0,704681.477220654,704682.524294631,6,1,96,8,0
16,453,657.490023877472,0,0,704684.183143994,704685.230218356,6,0,62,8,8
16,454,603.880923939869,0,0,704686.912642434,704687.95967599,6,0,72,16,16
16,455,664.852815563791,1,0,704689.665587397,704690.712661759,6,1,95,16,8
16,456,689.381082658656,1,0,704692.547976751,704693.595057273,6,1,80,0,4
16,457,819.939940236509,0,0,704695.300975993,704696.348029183,6,0,91,4,4
16,458,776.42840531189,1,0,704698.242204547,704699.289245418,6,1,93,0,8
16,459,717.511443188414,0,0,704701.253992097,704702.30106415,6,0,63,16,16
16,460,733.756088418886,1,0,704704.218781892,704705.265817758,6,1,98,4,0
16,461,695.289101218805,0,0,704707.054070321,704708.101154308,6,0,81,8,16
16,462,539.249579422176,1,0,704710.007062557,704711.05413615,6,1,73,0,8
16,463,797.513568308204,0,0,704712.771812393,704713.818888681,6,0,91,16,16
16,464,620.855457964353,1,0,704715.795392498,704716.842458391,6,1,61,16,0
16,465,674.889556481503,0,0,704718.501356259,704719.54839867,6,0,65,0,4
16,466,741.487674065866,0,0,704721.43077147,704722.477844678,6,0,83,0,16
16,467,968.272514059208,0,0,704724.324932206,704725.372004644,6,0,86,0,0
16,468,630.513780750334,1,0,704727.536766259,704728.583821374,6,1,90,0,0
16,469,796.839883900248,1,0,704730.348610861,704731.395633253,6,1,66,8,0
16,470,1062.25301022641,1,0,704733.325070022,704734.372137456,6,1,61,16,4
16,471,506.367627414875,1,0,704736.489823554,704737.536901766,6,1,64,16,8
16,472,802.580828894861,0,0,704739.207537139,704740.254600722,6,0,97,16,4
16,473,861.180196865462,1,0,704742.184033257,704743.231097995,6,1,89,16,8
16,474,522.382065071724,1,0,704745.23115035,704746.289998019,6,1,76,0,4
16,475,651.080784271471,1,0,704747.984151133,704749.031193158,6,1,80,16,0
16,476,724.777994328178,0,0,704750.807702442,704751.85477334,6,0,65,8,8
16,477,923.949093208648,0,0,704753.678333503,704754.725397857,6,0,85,0,16
16,478,639.501113910228,1,0,704756.760725475,704757.807801377,6,1,87,8,16
16,479,586.850570514798,0,0,704759.537339468,704760.584314511,6,0,78,8,16
16,480,672.257183119655,0,0,704762.254918317,704763.302006153,6,0,100,4,8
16,481,562.439717003144,0,0,704798.208417933,704799.255488831,7,0,68,0,0
16,482,660.772983683273,0,0,704801.020225193,704802.067299171,7,0,84,4,4
16,483,589.307400747202,0,0,704803.914386699,704804.961456827,7,0,89,8,4
16,484,632.216469501145,0,0,704806.667369773,704807.714629687,7,0,98,16,8
16,485,546.402566600591,1,0,704809.514271296,704810.561543597,7,1,69,0,16
16,486,545.21187779028,1,0,704812.208631587,704813.25570287,7,1,90,4,16
16,487,497.826465638354,1,0,704814.938084217,704815.985157039,7,1,66,16,16
16,488,387.113995035179,1,0,704817.549891939,704818.596754924,7,1,79,0,4
16,489,544.430019101128,1,0,704820.126395525,704821.173476047,7,1,83,0,4
16,490,591.279178508557,1,0,704822.879381679,704823.926451807,7,1,80,4,0
16,491,717.032165033743,1,0,704825.573550576,704826.620625323,7,1,91,16,4
16,492,706.161595531739,0,0,704828.373589534,704829.420653887,7,0,61,16,4
16,493,566.954941488802,0,0,704831.173661984,704832.220699005,7,0,96,16,0
16,494,647.365511627868,1,0,704833.950141241,704834.997209829,7,1,75,16,0
16,495,588.147894013673,0,0,704836.679586941,704837.726669772,7,0,83,4,8
16,496,605.988978408277,1,0,704839.373746599,704840.420820961,7,1,77,16,16
16,497,691.148830228485,0,0,704842.04444934,704843.091449789,7,0,80,0,8
16,498,634.011549525894,1,0,704844.832655707,704845.879770491,7,1,90,0,16
16,499,827.608007122763,1,0,704847.562114112,704848.60918193,7,1,89,0,16
16,500,731.38125508558,0,0,704850.609217731,704851.656297098,7,0,89,8,4
16,501,827.941769734025,1,0,704853.550528282,704854.597514488,7,1,81,8,0
16,502,477.618632139638,0,0,704856.585780063,704857.632849806,7,0,76,0,0
16,503,711.115677258931,0,0,704859.256402732,704860.303483638,7,0,80,4,16
16,504,912.1061086189,1,0,704862.103506428,704863.150581946,7,1,77,8,8
16,505,1108.07393491268,1,0,704865.209522775,704866.256509366,7,1,62,8,16
16,506,695.174767402932,0,0,704868.421241725,704869.468328791,7,0,84,4,16
16,507,667.345832334831,1,0,704871.23305245,704872.280127967,7,1,93,16,8
16,508,981.429375358857,0,0,704874.044866639,704875.091939462,7,0,80,8,0
16,509,642.850672127679,0,0,704877.209629025,704878.256687989,7,0,66,0,8
16,510,745.448937639594,1,0,704879.950834173,704880.99791046,7,1,92,0,0
16,511,611.739932210185,1,0,704882.821465619,704883.86856077,7,1,79,16,16
16,512,1264.3475139048,0,0,704885.50386198,704886.550934417,7,0,81,8,16
16,513,731.166445999406,0,0,704888.845106933,704889.892159352,7,0,82,8,8
16,514,802.001845324412,1,0,704891.833373662,704892.880503075,7,1,72,0,4
16,515,656.663124565966,1,0,704894.715788039,704895.762838534,7,1,88,4,4
16,516,762.394599500112,0,0,704897.504127989,704898.551107265,7,0,77,16,8
16,517,749.852908076718,1,0,704900.339176134,704901.386459598,7,1,90,0,8
16,518,585.25220642332,1,0,704903.315881739,704904.36297227,7,1,80,8,16
16,519,822.46952841524,1,0,704906.127699393,704907.17477953,7,1,68,16,4
16,520,959.270937135443,0,0,704909.115982291,704910.163052804,7,0,96,8,8
16,521,733.916617697105,1,0,704912.21013602,704913.257221932,7,1,81,0,16
16,522,896.284152055159,0,0,704915.021955214,704916.06904382,7,0,70,0,16
16,523,656.07567189727,1,0,704918.069061914,704919.116137816,7,1,64,16,16
16,524,549.257833044976,0,0,704920.927923903,704921.975003655,7,0,75,16,0
16,525,931.648727040738,1,0,704923.657403865,704924.704461289,7,1,95,8,8
16,526,641.074840445071,1,0,704926.680954712,704927.728028305,7,1,63,4,8
16,527,458.289667847566,1,0,704929.539823631,704930.586892604,7,1,97,4,0
16,528,775.904856389388,0,0,704932.175159103,704933.222265032,7,0,73,4,4
16,529,880.110340076499,0,0,704935.034021092,704936.081097379,7,0,90,16,4
16,530,609.644196694717,1,0,704938.116416529,704939.1635009,7,1,91,4,4
16,531,1229.19466835447,0,0,704940.892933897,704941.939993246,7,0,68,0,0
16,532,697.566924034618,1,0,704944.175334261,704945.222412473,7,1,76,16,0
16,533,686.701744096354,1,0,704947.081265608,704948.128337661,7,1,75,8,0
16,534,884.275633725338,1,0,704949.869542424,704950.916611782,7,1,71,8,16
16,535,858.273345511407,0,0,704952.857823782,704953.904895835,7,0,67,16,8
16,536,761.695892550051,0,0,704955.834335299,704956.881410046,7,0,94,16,8
16,537,720.581903704442,1,0,704958.681454779,704959.728508738,7,1,84,4,8
16,538,2951.99129742105,0,0,704961.505099634,704962.55208507,7,0,87,4,8
16,539,599.341446883045,0,0,704966.693322016,704967.740537275,7,0,70,4,0
16,540,510.062881861813,0,0,704969.434582983,704970.481692762,7,0,96,0,4
16,541,610.042247921228,0,0,704972.069868025,704973.117006291,7,0,93,0,4
16,542,503.026923281141,0,0,704974.928738484,704975.975812461,7,0,89,4,8
16,543,667.798933107406,1,0,704977.622942027,704978.669987517,7,1,90,8,4
16,544,495.073599275202,0,1,704980.387639508,704981.434708866,7,1,74,8,8
16,545,709.316712804139,1,0,704983.081608445,704984.187485635,7,1,62,4,0
16,546,501.532884081826,0,0,704985.964202764,704987.011270967,7,0,65,0,8
16,547,572.663549683057,1,0,704988.717177369,704989.764248651,7,1,62,8,16
16,548,704.801908228546,0,0,704991.481927205,704992.529003877,7,0,90,4,16
16,549,783.433566917665,1,0,704994.364324258,704995.411394001,7,1,98,16,16
16,550,538.717176415958,0,0,704997.246747874,704998.293925406,7,0,70,0,8
16,551,806.046645739116,0,0,704999.846752647,705000.893833554,7,0,82,4,16
16,552,733.855793601833,0,0,705002.740925702,705003.787994675,7,0,72,8,4
16,553,617.77999298647,0,0,705005.54096158,705006.588030938,7,0,87,8,0
16,554,670.298109413125,1,0,705008.223382193,705009.270429993,7,1,64,16,4
16,555,694.162701140158,0,0,705010.976356028,705012.023512388,7,0,84,4,0
16,556,553.511283011176,0,0,705013.788234506,705014.835221097,7,0,86,4,4
16,557,431.760366074741,0,0,705016.599968623,705017.647024508,7,0,86,8,0
16,558,576.044674729928,0,0,705019.12942364,705020.176486453,7,0,91,0,0
16,559,554.753941949457,1,0,705021.811873895,705022.858876654,7,1,95,8,4
16,560,1216.859316919,1,0,705024.623765077,705025.670704317,7,1,83,16,0
16,561,601.34286666289,0,0,705060.977088612,705062.024172598,8,0,66,8,8
16,562,605.614025029354,1,0,705063.694786028,705064.741854616,8,1,70,0,16
16,563,540.85987736471,1,0,705066.471298391,705067.518438198,8,1,73,4,16
16,564,558.152390294708,0,0,705069.130162383,705070.177231356,8,0,73,8,0
16,565,643.066251068376,1,0,705071.883140837,705072.930218664,8,1,83,4,4
16,566,555.517322383821,1,0,705074.659655125,705075.706725638,8,1,82,8,8
16,567,552.476119017228,1,0,705077.365578466,705078.412655523,8,1,71,16,8
16,568,470.156520139426,0,0,705080.000907393,705081.047984065,8,0,83,0,16
16,569,564.893852570094,0,0,705082.589183901,705083.636249794,8,0,62,4,8
16,570,506.073516095057,0,0,705085.248050972,705086.295121869,8,0,88,4,4
16,571,548.313905135728,0,0,705087.953971232,705089.00104213,8,0,73,16,4
16,572,641.68077125214,1,0,705090.589314403,705091.63638992,8,1,88,16,16
16,573,585.843893699348,0,0,705093.436418484,705094.483470904,8,0,61,4,16
16,574,669.311450561509,1,0,705096.177627097,705097.22469915,8,1,72,8,16
16,575,604.165411321446,1,0,705099.060016836,705100.107100053,8,1,69,16,16
16,576,607.301700278185,0,0,705101.718880827,705102.765954035,8,0,74,8,4
16,577,449.717324227095,1,0,705104.507216927,705105.554242784,8,1,77,4,8
16,578,594.252243405208,1,0,705107.024841663,705108.07191564,8,1,95,0,8
16,579,449.556794948876,1,0,705109.75431662,705110.80136981,8,1,67,0,0
16,580,674.162747338414,0,0,705112.424930435,705113.471998638,8,0,89,16,16
16,581,626.438568229787,0,0,705115.354379908,705116.401451191,8,0,80,8,4
16,582,540.005260729231,1,0,705118.07207155,705119.119149377,8,1,77,0,4
16,583,585.313030518591,1,0,705120.789757803,705121.836815997,8,1,80,16,0
16,584,558.293671463616,1,0,705123.601561983,705124.648632881,8,1,87,8,16
16,585,848.817512975074,0,0,705126.225134157,705127.272202745,8,0,98,16,16
16,586,584.26747249905,1,0,705129.201652218,705130.248721961,8,1,67,16,8
16,587,552.611625869758,1,0,705131.919335776,705132.966409368,8,1,67,8,4
16,588,548.674229998142,1,0,705134.578195918,705135.625275285,8,1,63,4,16
16,589,661.660322104581,0,0,705137.331180531,705138.378247964,8,0,63,0,16
16,590,811.143933446147,0,0,705140.154756093,705141.201825066,8,0,91,16,0
16,591,603.43706223648,1,0,705143.084210571,705144.131283778,8,1,81,8,16
16,592,560.337052214891,1,0,705145.919544426,705146.966621868,8,1,73,0,0
16,593,615.44173117727,0,0,705148.590174024,705149.637247616,8,0,63,4,4
16,594,560.911801178008,0,0,705151.460803545,705152.507928723,8,0,68,0,0
16,595,731.470566359349,1,0,705154.08436956,705155.131448157,8,1,82,8,8
16,596,674.389490275644,0,0,705156.896216856,705157.943271971,8,0,73,0,8
16,597,573.801498510875,1,0,705159.707982541,705160.755057288,8,1,86,4,4
16,598,662.111883051693,0,0,705162.437444409,705163.484515692,8,0,66,16,16
16,599,598.642740049399,1,0,705165.166901273,705166.213976406,8,1,98,0,4
16,600,680.144293815829,0,0,705167.943403628,705168.990480685,8,0,98,0,16
16,601,637.423856533132,0,0,705170.849328046,705171.896404333,8,0,68,4,16
16,602,662.654295098037,1,0,705173.567015453,705174.614090201,8,1,82,4,0
16,603,700.290918233804,1,0,705176.402352773,705177.449424056,8,1,61,4,0
16,604,759.806496906094,0,0,705179.178861672,705180.225940269,8,0,94,16,4
16,605,789.157958468422,1,0,705182.0612568,705183.108333857,8,1,98,16,4
16,606,626.829305198044,0,0,705184.943719682,705185.99074015,8,0,92,8,4
16,607,511.95497228764,1,0,705187.802525082,705188.849602139,8,1,96,4,16
16,608,697.134996182285,1,0,705190.508452272,705191.555519705,8,1,66,4,0
16,609,578.56425398495,1,0,705193.437904054,705194.484974567,8,1,69,8,16
16,610,640.728374244645,0,0,705196.249715934,705197.296788372,8,0,82,0,4
16,611,575.665101758204,0,0,705199.002699778,705200.049779145,8,0,68,0,8
16,612,539.225711720064,1,0,705201.732146248,705202.779224075,8,1,74,16,4
16,613,567.853058921173,1,0,705204.367481335,705205.414557237,8,1,82,16,8
16,614,543.797525810078,1,0,705207.061687188,705208.108729214,8,1,72,0,4
16,615,853.771594702266,1,0,705209.673446405,705210.720575047,8,1,100,8,4
16,616,524.278774973936,0,0,705212.591129116,705213.638219647,8,0,75,0,0
16,617,745.479734614491,0,0,705215.250000421,705216.297073629,8,0,68,8,0
16,618,670.589140965603,0,0,705218.108853557,705219.155927919,8,0,90,16,0
16,619,598.475666251034,0,0,705220.908909838,705221.955974577,8,0,69,8,16
16,620,457.539376104251,0,0,705223.673655825,705224.720730957,8,0,77,16,0
16,621,825.057246023789,1,0,705226.203103527,705227.250177889,8,1,92,8,8
16,622,591.827364987694,0,0,705229.13260266,705230.179631981,8,0,83,4,0
16,623,680.202807998285,0,0,705231.956132411,705233.003202924,8,0,89,4,8
16,624,658.914769883268,1,0,705234.756176759,705235.803254971,8,1,78,8,0
16,625,762.828837148845,1,0,705237.650415257,705238.697413012,8,1,98,4,4
16,626,563.525311183184,1,0,705240.485673274,705241.532746097,8,1,63,8,0
16,627,583.219604799524,0,0,705243.179814839,705244.226898055,8,0,61,0,0
16,628,545.565273263492,1,0,705245.838691149,705246.885768976,8,1,94,8,8
16,629,679.895607987419,0,0,705248.462264863,705249.50934269,8,0,100,0,16
16,630,493.172269780189,0,0,705251.285833495,705252.332907473,8,0,77,0,8
16,631,527.017782791518,0,0,705253.979991613,705255.027066361,8,0,94,4,8
16,632,531.226962106302,0,0,705256.591792021,705257.638873698,8,0,74,16,4
16,633,496.325497166254,0,0,705259.344776635,705260.391850612,8,0,72,0,4
16,634,454.957048059441,0,0,705261.980115186,705263.027186084,8,0,71,16,8
16,635,705.811664578505,1,0,705264.52138316,705265.568399393,8,1,80,0,8
16,636,629.331176169217,0,0,705267.450777969,705268.49785695,8,0,61,4,8
16,637,606.971402536146,0,0,705270.144937626,705271.192002365,8,0,89,16,0
16,638,490.921394317411,1,0,705272.886162407,705273.933239465,8,1,72,4,0
16,639,596.629771403968,0,0,705275.521497879,705276.568564542,8,0,68,8,0
16,640,853.067498421296,1,0,705278.203884615,705279.250959748,8,1,99,16,8
16,641,613.558109849691,1,0,705303.204263803,705304.251336626,9,1,82,0,16
16,642,763.26692441944,0,0,705306.039592269,705307.086683184,9,0,81,16,8
16,643,656.675828271545,0,0,705309.016118414,705310.063191236,9,0,80,0,0
16,644,660.601290408522,1,0,705311.769101488,705312.816172001,9,1,97,16,4
16,645,556.245286366902,1,0,705314.557381768,705315.604449586,9,1,77,4,4
16,646,713.440465391614,1,0,705317.169179866,705318.216263853,9,1,72,4,0
16,647,547.196744126268,1,0,705320.098636268,705321.145712941,9,1,98,0,4
16,648,644.727363949642,1,0,705322.722208058,705323.769267407,9,1,86,16,16
16,649,514.43143573124,1,0,705325.463420135,705326.510495267,9,1,83,4,8
16,650,498.484751442447,1,0,705328.134057818,705329.181125251,9,1,84,8,16
16,651,598.58345577959,0,0,705330.68703096,705331.734107632,9,0,65,4,4
16,652,587.06152997911,0,0,705333.416481664,705334.463557567,9,0,61,8,4
16,653,665.116129908711,1,0,705336.110639397,705337.157720304,9,1,98,4,16
16,654,596.792225609533,0,0,705339.004804753,705340.051887199,9,0,87,8,8
16,655,608.68025070522,0,0,705341.746021065,705342.793095812,9,0,77,0,8
16,656,729.964593308978,0,0,705344.463765061,705345.510781295,9,0,92,4,8
16,657,563.312426791526,1,0,705347.287279029,705348.334359166,9,1,74,16,8
16,658,611.027366830967,1,0,705350.075562774,705351.122634057,9,1,61,8,16
16,659,734.026332036592,1,0,705352.934420914,705353.981498356,9,1,85,4,16
16,660,695.571278687567,1,0,705355.91094475,705356.958011798,9,1,63,0,8
16,661,803.589045419358,1,0,705358.663929363,705359.711007576,9,1,91,16,16
16,662,640.873505035415,0,0,705361.5345585,705362.581668664,9,0,94,8,4
16,663,529.955046135001,1,0,705364.334649428,705365.38168106,9,1,94,4,8
16,664,481.188388890587,0,0,705366.958162318,705368.00523822,9,0,95,0,0
16,665,516.858238959685,0,0,705369.546441136,705370.593518193,9,0,65,0,8
16,666,825.319790397771,0,0,705372.264128543,705373.311205985,9,0,88,16,4
16,667,458.030588226393,0,0,705375.299471945,705376.346587883,9,0,94,4,16
16,668,791.266397689469,0,0,705378.017161662,705379.06423179,9,0,100,16,8
16,669,536.610277020372,1,0,705380.899553711,705381.946677348,9,1,74,4,4
16,670,539.306168910116,0,0,705383.570189469,705384.617254207,9,0,74,4,8
16,671,562.898207339458,1,0,705386.264344892,705387.311418869,9,1,86,0,0
16,672,674.685911275446,1,0,705389.005566978,705390.052632872,9,1,90,4,16
16,673,585.530919255689,0,0,705391.852662976,705392.899733488,9,0,85,16,0
16,674,864.335734047927,0,0,705394.640930937,705395.688008379,9,0,99,16,4
16,675,574.180301628076,0,0,705397.640982907,705398.688059964,9,0,64,4,4
16,676,789.167197421193,1,0,705400.393960207,705401.441040728,9,1,91,4,0
16,677,655.91052302625,0,0,705403.276363034,705404.323444711,9,0,83,8,8
16,678,682.806694065221,1,0,705406.123474045,705407.170542633,9,1,81,8,0
16,679,749.149196548387,0,0,705409.052921978,705410.099995571,9,0,93,8,8
16,680,689.009208930656,1,0,705411.994142833,705413.041218735,9,1,86,16,4
16,681,715.003027929924,0,0,705414.747124752,705415.794206044,9,0,63,0,16
16,682,466.716110822745,0,0,705417.582467846,705418.629534509,9,0,84,0,0
16,683,585.392717737705,1,0,705420.217801393,705421.264863051,9,1,98,8,16
16,684,761.269739130512,1,0,705422.923725118,705423.970791396,9,1,71,8,4
16,685,924.473411985673,0,0,705425.829651461,705426.876726593,9,0,83,4,8
16,686,766.406678012572,0,0,705428.829690727,705429.876770864,9,0,80,0,16
16,687,817.453082883731,1,0,705431.841504839,705432.888574197,9,1,93,4,0
16,688,537.62311313767,0,0,705434.9003783,705435.947446118,9,0,65,4,0
16,689,724.041176144965,0,0,705437.618063398,705438.66519743,9,0,100,4,16
16,690,823.193257907406,1,0,705440.429872583,705441.476943481,9,1,91,8,0
16,691,692.26368132513,1,0,705443.441679381,705444.488755283,9,1,62,8,16
16,692,636.933029512875,1,0,705446.324081439,705447.371161576,9,1,79,0,8
16,693,769.042515894398,0,0,705449.041765382,705450.088839744,9,0,67,16,8
16,694,609.76315010339,0,0,705451.877130419,705452.924169749,9,0,65,16,8
16,695,706.578509882092,0,0,705454.665379132,705455.712453109,9,0,93,0,4
16,696,668.143089627847,1,0,705457.453659797,705458.500736085,9,1,97,8,8
16,697,644.601866253652,1,0,705460.218410788,705461.265477451,9,1,81,8,4
16,698,517.822184949182,0,0,705462.994922382,705464.042047174,9,0,76,0,16
16,699,680.302898283117,1,0,705465.712608634,705466.759683382,9,1,95,16,16
16,700,1595.04603594542,0,0,705468.453828796,705469.500903543,9,0,90,16,0
16,701,1164.1102230642,1,0,705472.112705491,705473.159773309,9,1,75,0,8
16,702,532.492333673872,0,0,705475.383347177,705476.43041692,9,0,85,4,0
16,703,580.988362431526,1,0,705478.171622838,705479.218692196,9,1,67,0,0
16,704,539.562938851304,0,0,705480.842242042,705481.889325259,9,0,98,8,0
16,705,574.627243098803,0,0,705483.501121817,705484.548185785,9,0,69,8,4
16,706,754.742700955831,1,0,705486.21880191,705487.265915539,9,1,83,8,0
16,707,503.743338398635,1,0,705489.065904067,705490.112989978,9,1,86,0,16
16,708,800.261430209503,1,0,705491.783594939,705492.830663527,9,1,81,8,8
16,709,537.235455936752,1,0,705494.701288814,705495.748348163,9,1,81,16,0
16,710,569.573456072249,0,0,705497.407202915,705498.454281127,9,0,73,16,0
16,711,570.055044139735,0,0,705500.148425386,705501.195494359,9,0,62,16,16
16,712,822.469143546186,0,0,705502.866113178,705503.913186001,9,0,90,16,4
16,713,611.717604566365,0,0,705505.877926521,705506.925017437,9,0,66,0,4
16,714,596.891160937957,1,0,705508.736796979,705509.783866337,9,1,61,0,4
16,715,800.819240743294,0,0,705511.536842097,705512.583930318,9,0,80,8,16
16,716,685.781298787333,1,0,705514.395703702,705515.442776139,9,1,98,4,4
16,717,728.840887895785,1,0,705517.242851284,705518.28989023,9,1,82,8,0
16,718,520.696314517409,0,0,705520.148729121,705521.195801559,9,0,94,0,4
16,719,551.260022679344,1,0,705522.81935333,705523.866429618,9,1,64,16,0
16,720,610.058416379616,0,0,705525.572347183,705526.619412306,9,0,83,16,16
