sub_id,Trial,RT,Resp,Error,Fix_onset,Disp_onset,block,tid,tloc,fish_setsize,bird_setsize
3,1,650.687492630823,1,0,13992.636032535,13993.6831172914,1,1,87,0,16
3,2,602.188384202236,0,0,13995.3654955586,13996.4125687661,1,0,78,16,0
3,3,588.399414453306,0,0,13998.0831837359,13999.130251169,1,0,98,4,8
3,4,644.904586810299,1,0,14000.8126429099,14001.8597207369,1,1,84,4,4
3,5,774.481790256687,1,0,14003.5420913049,14004.5891595079,1,1,85,4,4
3,6,601.793027773965,1,0,14006.412723136,14007.4597978834,1,1,75,8,4
3,7,551.287880054588,1,0,14009.0833504246,14010.130425172,1,1,98,8,0
3,8,624.421890102894,1,0,14011.7539819478,14012.801059005,1,1,73,0,8
3,9,499.280993846696,1,0,14014.589321962,14015.6363947846,1,1,64,0,4
3,10,1197.09202040212,0,0,14017.1893613822,14018.2364307401,1,0,63,0,4
3,11,690.157306955371,0,0,14020.4952868011,14021.5423692478,1,0,89,0,8
3,12,677.14750119012,0,0,14023.2482760345,14024.2953480871,1,0,73,0,0
3,13,563.316031588329,0,0,14026.1071426435,14027.1542100766,1,0,86,4,16
3,14,814.683418186178,1,0,14028.9307543919,14029.9777844836,1,1,72,4,16
3,15,650.348725679578,1,0,14031.9189907096,14032.9660631472,1,1,65,0,0
3,16,627.024621178862,0,0,14034.7072794591,14035.7543418877,1,0,77,0,0
3,17,815.651983692078,0,0,14037.4837879729,14038.5308534812,1,0,92,4,0
3,18,549.571717483559,1,0,14040.4367782842,14041.4838418677,1,1,66,0,4
3,19,853.243951221884,0,0,14043.1662216747,14044.2133002717,1,0,80,8,16
3,20,656.569718759783,1,0,14046.2486509879,14047.2956953233,1,1,99,4,0
3,21,626.745138444676,0,0,14049.048659919,14050.0957439055,1,0,92,4,8
3,22,639.236014834751,0,0,14051.8251826765,14052.8722508795,1,0,84,16,4
3,23,493.475375244088,1,0,14054.6016954249,14055.6487609332,1,1,64,8,4
3,24,716.713941090347,1,0,14057.3193870669,14058.3664614293,1,1,87,16,8
3,25,571.817927144366,1,0,14060.2135651259,14061.2606206252,1,1,65,8,0
3,26,575.894679415796,0,0,14062.9312379047,14063.9783018732,1,0,76,8,4
3,27,679.208590110647,1,0,14065.7430459347,14066.7901202972,1,1,69,4,16
3,28,607.169798215182,0,0,14068.6489672731,14069.6960477949,1,0,87,0,16
3,29,1082.84502668721,1,0,14071.42549465,14072.4723543531,1,1,92,0,8
3,30,657.644148937834,1,0,14074.6843622599,14075.7314735787,1,1,93,16,8
3,31,663.663806661134,0,0,14077.5314628768,14078.5785306948,1,0,76,16,16
3,32,729.289124254137,1,0,14080.4138560805,14081.4609377572,1,1,98,4,8
3,33,933.817745442866,0,0,14083.2491895504,14084.2962977895,1,0,83,8,8
3,34,786.411006443814,1,0,14086.331593841,14087.3786597343,1,1,70,16,4
3,35,1043.90430039712,1,0,14089.2022518496,14090.2493031143,1,1,79,4,0
3,36,717.811739110402,1,0,14092.4493754102,14093.4962081311,1,1,89,8,0
3,37,795.342135123065,1,0,14095.3317331974,14096.3788033252,1,1,77,4,4
3,38,876.129583497459,0,0,14098.320011476,14099.3670777542,1,0,92,8,16
3,39,719.211192457806,1,0,14101.3318217388,14102.3788934065,1,1,67,16,4
3,40,758.414227808316,0,0,14104.2495175384,14105.2965822767,1,0,81,4,0
3,41,752.756049820164,1,0,14107.1201528342,14108.1672691575,1,1,63,8,4
3,42,903.045772554833,0,0,14109.9907796608,14111.037846324,1,0,64,16,4
3,43,697.594781355292,0,0,14113.1202340613,14114.1673068838,1,0,63,16,16
3,44,599.625689217646,1,0,14115.9673412225,14117.0144171248,1,1,80,16,16
3,45,700.524345544181,0,0,14118.6262005942,14119.6732768814,1,0,63,8,0
3,46,885.190444521868,0,0,14121.4615475377,14122.5086153558,1,0,62,4,8
3,47,788.271914892903,0,0,14124.5086488475,14125.5557151257,1,0,89,8,4
3,48,720.222488795116,0,0,14127.5086992776,14128.5557694054,1,0,94,16,8
3,49,823.917897270803,1,0,14130.3087374659,14131.3558102884,1,1,71,0,16
3,50,592.779132168289,0,0,14133.2500075956,14134.2970338377,1,0,75,8,16
3,51,558.588692787453,0,0,14135.9441214428,14136.9911946503,1,0,76,4,4
3,52,608.477515634149,0,0,14138.5912202119,14139.6382853352,1,0,95,0,16
3,53,621.662864270547,0,0,14141.2500830482,14142.297153176,1,0,98,0,8
3,54,888.829109533617,0,0,14144.1089469624,14145.156050197,1,0,64,16,0
3,55,760.735936302808,0,0,14147.1678150343,14148.2149186538,1,0,95,8,16
3,56,610.985930912648,1,0,14150.132567488,14151.179646085,1,1,62,0,8
3,57,671.70143750991,0,0,14152.9208901143,14153.9679282902,1,0,77,16,16
3,58,579.159545895891,1,0,14155.7914811394,14156.8385574266,1,1,63,8,8
3,59,595.308260910315,0,0,14158.4974021697,14159.5442748864,1,0,67,16,8
3,60,532.216840625551,1,0,14161.3445097159,14162.3915813836,1,1,74,0,4
3,61,885.395629504274,1,0,14163.9563116635,14165.0033810214,1,1,61,16,0
3,62,690.170780639164,0,0,14167.0034133583,14168.0504896455,1,0,71,4,16
3,63,535.607204861662,1,0,14169.9211118526,14170.9681823654,1,1,84,16,16
3,64,511.157470178659,1,0,14172.7093844338,14173.7564591811,1,1,95,0,0
3,65,707.3528093606,0,0,14175.3682507348,14176.4153235573,1,0,74,16,0
3,66,734.737882672562,1,0,14178.2388887253,14179.2859511539,1,1,73,0,4
3,67,728.592342231423,0,0,14181.0389246038,14182.0860028159,1,0,99,16,0
3,68,593.941718747374,1,0,14184.0036893764,14185.0507541147,1,1,99,4,16
3,69,755.537403472772,0,0,14186.6978351755,14187.7449049184,1,0,74,8,0
3,70,587.202951181098,0,0,14189.580271495,14190.6273073612,1,0,74,0,0
3,71,676.345239458897,1,0,14192.3332153028,14193.3802838908,1,1,69,0,16
3,72,704.14260754842,0,0,14195.1332577257,14196.1803340129,1,0,75,8,8
3,73,919.285798179772,0,0,14198.0862488069,14199.1333150851,1,0,67,8,16
3,74,706.836189761816,1,0,14201.168709687,14202.2157220705,1,1,68,4,0
3,75,604.985521315029,1,0,14204.0275670569,14205.0745898343,1,1,98,16,8
3,76,906.204774362777,0,0,14206.8510802549,14207.8981677061,1,0,91,8,8
3,77,801.108102594299,1,0,14209.992305652,14211.0393846339,1,1,71,4,8
3,78,632.551911936389,0,0,14213.0158919159,14214.0629624287,1,0,72,8,8
3,79,538.606832218647,1,0,14215.8747554452,14216.9218274978,1,1,83,4,4
3,80,594.439860149578,1,0,14218.6277346695,14219.6748144214,1,1,84,16,4
3,81,750.985992506685,0,0,14230.8161603117,14231.8632427583,2,0,73,0,0
3,82,624.882305184656,1,0,14233.6632643932,14234.7103814865,2,1,82,8,8
3,83,714.060394970147,0,0,14236.4162428476,14237.463318365,2,0,75,4,16
3,84,727.169521042015,1,0,14239.3339297931,14240.3810153194,2,1,70,8,16
3,85,612.54887843279,0,0,14242.2986949506,14243.3457619988,2,0,69,8,0
3,86,823.827816058838,0,0,14245.0752038494,14246.1223290269,2,0,82,8,4
3,87,740.30251478689,1,0,14248.1458379134,14249.1929118908,2,1,72,16,0
3,88,662.977803585818,1,0,14251.039999419,14252.087078016,2,1,96,16,4
3,89,771.381302742157,0,0,14253.7576914459,14254.8047596489,2,0,70,4,8
3,90,721.693045326901,1,0,14256.7224381252,14257.7695132576,2,1,96,16,0
3,91,789.502639823695,0,0,14259.522481703,14260.5695595301,2,0,90,16,16
3,92,772.776791598517,1,0,14262.3931173838,14263.4402163838,2,1,63,16,8
3,93,597.603866468489,0,0,14265.275515207,14266.3225814852,2,0,88,4,16
3,94,628.749252922717,1,0,14267.9461459603,14268.9932195528,2,1,68,0,4
3,95,595.869610662703,0,0,14270.7579493708,14271.8050237332,2,0,87,8,16
3,96,878.455526581092,0,0,14273.4285735797,14274.475649097,2,0,81,4,0
3,97,620.622310789258,1,0,14276.4521575338,14277.4992507594,2,1,80,0,16
3,98,566.125872461271,1,0,14279.2757257815,14280.3228032236,2,1,83,0,4
3,99,760.856429547857,1,0,14281.9581302261,14283.0052215269,2,1,69,4,0
3,100,705.836827259191,1,0,14284.9111074487,14285.9581841209,2,1,69,4,8
3,101,729.732600988427,0,0,14287.8641043043,14288.9111871359,2,0,88,0,16
3,102,659.20209194519,0,0,14290.7347276663,14291.7818031836,2,0,98,8,8
3,103,783.50453999883,1,0,14293.5583005335,14294.6053760508,2,1,92,8,0
3,104,827.772526214176,0,0,14296.5230618414,14297.5701354339,2,0,80,8,16
3,105,720.076203066128,1,0,14299.5936832016,14300.6407698828,2,1,70,4,8
3,106,754.153078527452,1,0,14302.4055008556,14303.4525690587,2,1,61,4,4
3,107,864.579555318414,0,0,14305.4173118884,14306.4643793215,2,0,68,8,16
3,108,643.685795714191,1,0,14308.4879524967,14309.5350257042,2,1,99,0,0
3,109,727.681906053476,0,0,14311.2880465045,14312.3350615827,2,0,62,16,16
3,110,532.505562459846,1,0,14314.0762694255,14315.1233391683,2,1,69,16,4
3,111,596.166416704364,1,0,14316.8174826577,14317.86455856,2,1,100,4,0
3,112,561.99137582189,1,0,14319.5116484749,14320.558715908,2,1,85,4,8
3,113,799.940896467888,1,0,14322.205855483,14323.2528778755,2,1,69,16,16
3,114,651.751143859656,1,0,14325.1470243676,14326.1940929556,2,1,99,4,0
3,115,796.05200586775,0,0,14327.9235398108,14328.9706122484,2,0,91,0,0
3,116,818.99268777488,0,0,14330.9235840814,14331.970687701,2,0,79,0,8
3,117,612.319825779196,0,0,14333.9353981939,14334.9824687067,2,0,78,4,16
3,118,577.49111866724,1,0,14336.8060261754,14337.8531020777,2,1,80,0,4
3,119,601.675229265311,1,0,14339.6178738565,14340.6649089528,2,1,99,8,0
3,120,848.917743287529,0,0,14342.4296476249,14343.4767331512,2,0,82,4,4
3,121,527.302025115205,1,0,14345.4532107911,14346.5002936227,2,1,87,0,4
3,122,623.553029867253,1,0,14348.217961397,14349.2650380692,2,1,78,0,8
3,123,617.524902971127,0,0,14350.9238893567,14351.9709625642,2,0,95,0,4
3,124,782.872046704142,0,0,14353.6886719145,14354.7357797686,2,0,69,16,8
3,125,771.512959896427,0,0,14356.571036246,14357.6181183077,2,0,72,8,8
3,126,701.412453901867,0,0,14359.4299032399,14360.4769795272,2,0,93,8,8
3,127,1134.88016479096,0,0,14362.3006020546,14363.3476109734,2,0,77,16,0
3,128,817.529060566812,1,0,14365.5358776261,14366.5829535284,2,1,79,16,4
3,129,847.065688973089,1,0,14368.5123922223,14369.5594708193,2,1,73,8,16
3,130,661.658399454609,1,0,14371.5830332156,14372.6299083053,2,1,97,4,0
3,131,790.940474547824,1,0,14374.3713158057,14375.4183859336,2,1,63,4,4
3,132,726.795337548538,1,0,14377.2654769264,14378.3125455144,2,1,81,16,0
3,133,727.328895492974,0,0,14380.0890501786,14381.1361179966,2,0,69,16,16
3,134,845.573189581046,0,0,14383.0067432834,14384.0538168759,2,0,81,4,4
3,135,588.228876091307,1,0,14385.995021562,14387.0420920748,2,1,89,8,4
3,136,707.703125182888,1,0,14388.7715843555,14389.8186036683,2,1,92,16,8
3,137,728.855271581779,1,0,14391.5833373359,14392.6304347961,2,1,77,8,4
3,138,693.844477233142,1,0,14394.5363303419,14395.5834174081,2,1,94,0,8
3,139,663.454772055047,1,0,14397.3128473249,14398.3599097535,2,1,62,0,0
3,140,541.098309149675,0,0,14400.0540628669,14401.1011322248,2,0,75,0,8
3,141,594.177700724686,0,0,14402.6658675093,14403.7129357123,2,0,75,8,8
3,142,747.227604177169,0,0,14405.3600244723,14406.4071007595,2,0,91,8,4
3,143,577.424520164641,1,0,14408.183593105,14409.2306666975,2,1,93,0,16
3,144,568.01103354519,1,0,14410.8659956248,14411.9130665225,2,1,67,8,0
3,145,557.27443100659,0,0,14413.5836799525,14414.6307512352,2,0,78,8,4
3,146,587.798488080807,1,0,14416.2073033268,14417.254338423,2,1,64,16,16
3,147,631.849740439066,0,0,14418.9131793165,14419.9602756218,2,0,79,0,8
3,148,573.532549864467,0,0,14421.6426346409,14422.6897055386,2,0,69,0,0
3,149,587.926295611396,0,0,14424.3132600047,14425.3603289776,2,0,86,4,8
3,150,680.663363184067,1,0,14427.1133505478,14428.1603752501,2,1,61,0,16
3,151,651.811967925823,0,0,14429.8662870413,14430.9133610188,2,0,98,16,0
3,152,601.51739466346,0,0,14432.6545680916,14433.7016347548,2,0,76,4,16
3,153,651.260701706633,0,0,14435.4546043551,14436.5016760228,2,0,67,16,8
3,154,627.112007652613,1,0,14438.2428869452,14439.2899632325,2,1,97,8,0
3,155,688.589354924261,0,0,14441.1252863084,14442.1723606708,2,0,77,4,4
3,156,726.910056357156,1,0,14444.0429732538,14445.0900568554,2,1,73,16,4
3,157,724.730783966152,0,0,14446.8783113432,14447.9253895553,2,0,99,0,16
3,158,839.888449183491,0,0,14449.7489450992,14450.7960283158,2,0,69,16,4
3,159,768.463672384314,0,0,14452.8313501598,14453.8784214425,2,0,65,16,8
3,160,660.261123626697,0,0,14455.7255135902,14456.7725887225,2,0,70,4,16
3,161,621.566238698506,1,0,14462.2903197077,14463.3373859859,3,1,76,0,8
3,162,651.717267164713,0,0,14464.9609939617,14466.0080217437,3,0,80,4,0
3,163,569.283719381929,0,0,14467.7374612846,14468.7845398816,3,0,66,8,4
3,164,663.907102923986,1,0,14470.5257365604,14471.5728116928,3,1,62,16,0
3,165,641.890715844056,0,0,14473.2669682709,14474.3140372438,3,0,93,4,0
3,166,569.399593076014,1,0,14476.0434717802,14477.0905480674,3,1,75,8,16
3,167,685.490792220662,0,0,14478.855281735,14479.9023534027,3,0,69,4,16
3,168,533.317448251182,0,0,14481.608264424,14482.6553349368,3,0,69,0,4
3,169,622.033583105804,0,0,14484.2435983558,14485.290665404,3,0,90,16,0
3,170,714.753712329184,1,0,14486.9730571448,14488.0201276576,3,1,100,16,8
3,171,608.975657036353,1,0,14489.7495652737,14490.7966404061,3,1,67,16,8
3,172,629.864874084888,0,0,14492.490829706,14493.5378617225,3,0,88,16,4
3,173,731.215476318539,0,0,14495.2202357551,14496.2673120423,3,0,71,4,4
3,174,571.218155657334,1,0,14498.0673367569,14499.1144099645,3,1,92,0,16
3,175,490.680547905868,1,0,14500.8439030151,14501.8909323369,3,1,74,0,0
3,176,580.678222733695,0,0,14503.4909552037,14504.5380218669,3,0,85,0,4
3,177,782.362356430895,0,0,14506.1380574374,14507.1851291051,3,0,81,4,0
3,178,773.449705948224,0,0,14509.0910369697,14510.1381155667,3,0,81,8,4
3,179,543.604799617242,1,0,14511.9969683171,14513.0440434494,3,1,77,4,16
3,180,520.299173314925,1,0,14514.7381900185,14515.7852601463,3,1,67,8,4
3,181,529.277652372912,1,0,14517.3970543947,14518.4441249075,3,1,85,4,8
3,182,522.590469774514,0,0,14520.1147876126,14521.1618153946,3,0,69,0,4
3,183,484.642027025984,0,0,14522.8206713016,14523.86773527,3,0,96,8,8
3,184,652.983023677734,0,0,14525.5265884823,14526.5736643846,3,0,71,4,16
3,185,522.060761453758,1,0,14528.2442774296,14529.2913467875,3,1,84,0,4
3,186,590.472437210337,0,0,14530.867848834,14531.9149243513,3,0,87,8,16
3,187,592.938121657426,1,0,14533.5973026185,14534.6443727463,3,1,66,4,4
3,188,601.901972144333,1,0,14536.3855778943,14537.4326849786,3,1,74,8,8
3,189,562.478738276695,0,0,14539.1738570198,14540.2209352319,3,0,79,0,16
3,190,572.691791890975,0,0,14541.8327252456,14542.8797938336,3,0,76,16,8
3,191,614.842099706948,0,0,14544.4915938564,14545.5386593647,3,0,65,16,0
3,192,528.497718463768,1,0,14547.3269257864,14548.3739947594,3,1,64,0,0
3,193,571.739779768905,1,0,14549.9975673186,14551.0446301322,3,1,86,4,4
3,194,820.589896949969,1,0,14552.7505500076,14553.7976105114,3,1,72,16,16
3,195,560.709450886861,0,0,14555.6564659565,14556.7035418588,3,0,90,0,0
3,196,815.356332537704,0,0,14558.2918021981,14559.3388700161,3,0,72,4,16
3,197,787.187475691098,1,0,14561.2330245924,14562.2800985699,3,1,89,8,16
3,198,813.919652700861,0,0,14564.2684107251,14565.3154431267,3,0,83,8,8
3,199,565.668152115904,0,0,14567.3154716139,14568.3625421267,3,0,85,8,0
3,200,619.027411386924,0,0,14570.0331647957,14571.0802353085,3,0,77,16,4
3,201,495.953763451325,1,0,14572.8332049088,14573.8803370156,3,1,97,8,0
3,202,578.236020995973,0,0,14575.4567766982,14576.5038506756,3,0,97,8,8
3,203,645.549783865135,0,0,14578.1744648755,14579.2215350033,3,0,69,0,8
3,204,887.601079341039,0,0,14580.9745088382,14582.0215801209,3,0,100,16,4
3,205,657.647998563334,0,0,14583.9745531089,14585.0216297811,3,0,84,16,0
3,206,576.462114056994,1,0,14586.8687126897,14587.9157905168,3,1,93,16,4
3,207,818.544206527804,1,0,14589.5393465227,14590.5864189603,3,1,89,4,4
3,208,681.788223442709,0,0,14592.4923345241,14593.5394019572,3,0,83,0,8
3,209,576.618408809736,1,0,14595.3982674113,14596.44532907,3,1,87,0,4
3,210,577.206246460264,1,0,14598.127719656,14599.1747870891,3,1,64,0,8
3,211,613.434677014084,1,0,14600.8807034999,14601.9277686232,3,1,77,16,16
3,212,742.785137583269,0,0,14603.6572212528,14604.7042890709,3,0,100,0,16
3,213,553.319711829317,1,0,14606.5866711107,14607.6337431633,3,1,77,8,4
3,214,759.557181301716,1,0,14609.2573026339,14610.304369682,3,1,71,8,4
3,215,681.537612892498,1,0,14612.2573449797,14613.3044220369,3,1,69,8,0
3,216,589.946193549622,1,0,14615.0338561883,14616.0809397898,3,1,65,4,0
3,217,529.421628327327,1,0,14617.7044942558,14618.7515632288,3,1,65,4,0
3,218,620.637709285802,1,0,14620.4221762738,14621.4692475565,3,1,85,16,8
3,219,576.204189221244,1,0,14623.2575128233,14624.3045860309,3,1,86,8,8
3,220,619.240295616692,1,0,14626.057557171,14627.1046319184,3,1,72,4,8
3,221,773.264923975148,0,0,14628.7634878254,14629.8105510239,3,0,91,8,16
3,222,697.310294110139,1,0,14631.6105899821,14632.6576593401,3,1,91,16,4
3,223,629.037974757011,0,0,14634.5518019825,14635.5988844291,3,0,85,0,0
3,224,628.058630301894,1,0,14637.3165564381,14638.3636315704,3,1,93,0,16
3,225,751.80172792534,1,0,14639.9989539534,14641.0460664271,3,1,79,4,4
3,226,686.142918597398,0,0,14642.9754670097,14644.0225382925,3,0,79,16,16
3,227,576.453259922346,0,0,14645.7402095315,14646.7872942879,3,0,86,4,8
3,228,586.720208277256,1,0,14648.552022181,14649.5990946186,3,1,70,4,8
3,229,750.381986434149,0,0,14651.1991267245,14652.2462010869,3,0,63,4,16
3,230,692.008206378887,0,0,14654.1285815869,14655.1756609538,3,0,76,16,16
3,231,657.353117330786,1,0,14656.8933241086,14657.9404119447,3,1,89,0,8
3,232,677.174448561345,1,0,14659.7874925435,14660.8345726804,3,1,96,16,16
3,233,683.992518392188,0,0,14662.5875368912,14663.6346081739,3,0,100,8,16
3,234,617.613829295806,0,0,14665.4111166878,14666.4581798863,3,0,75,8,0
3,235,668.369587563575,0,0,14668.2111517963,14669.2582296234,3,0,88,0,0
3,236,761.594017589232,0,0,14671.070021485,14672.1171909332,3,0,81,4,8
3,237,730.394736390735,1,0,14674.0230075617,14675.0700788444,3,1,61,16,8
3,238,558.97981463022,0,0,14676.9524670436,14677.9995333218,3,0,96,0,16
3,239,686.315381772147,1,0,14679.6231012615,14680.6701679247,3,1,99,8,0
3,240,603.744402396842,1,0,14682.3878395487,14683.4349154509,3,1,78,16,0
3,241,756.610293799895,0,0,14688.6938242518,14689.7408986142,4,0,67,0,16
3,242,810.037691424441,0,0,14691.5644576228,14692.6115292905,4,0,63,16,0
3,243,737.279789685999,0,0,14694.588030798,14695.6351032356,4,0,90,8,8
3,244,723.314122174997,1,0,14697.4821911487,14698.5292701307,4,1,92,0,4
3,245,514.767647968256,1,0,14700.3175380923,14701.36460899,4,1,74,0,8
3,246,705.030330942463,0,0,14703.0822871584,14704.1293538215,4,0,97,4,16
3,247,781.524293191978,0,0,14705.9999767986,14707.0470500061,4,0,80,16,16
3,248,539.962284979993,1,0,14709.0353213553,14710.0823910982,4,1,87,8,16
3,249,668.289130413541,1,0,14711.6588885251,14712.7059567282,4,1,79,8,0
3,250,541.546020471287,0,0,14714.4118750638,14715.4589451916,4,0,70,0,4
3,251,776.928996509014,0,0,14717.0472089956,14718.0942822031,4,0,82,8,0
3,252,767.41272491563,0,0,14720.0707806309,14721.1178615377,4,0,93,16,16
3,253,624.958912711008,1,0,14723.0943618904,14724.1414431821,4,1,79,0,0
3,254,649.606133127236,0,0,14725.8355751226,14726.8826514098,4,0,92,0,16
3,255,596.643385171774,1,0,14728.6474151045,14729.694519109,4,1,88,16,8
3,256,636.273728836386,1,0,14731.3650717149,14732.4121537766,4,1,81,0,4
3,257,925.858261969552,0,0,14734.2592436145,14735.3063672521,4,0,68,16,16
3,258,546.35805100952,1,0,14737.4357623683,14738.4828274916,4,1,83,0,4
3,259,689.946732498356,0,0,14740.0593333877,14741.1064058253,4,0,79,4,16
3,260,652.521453708687,0,0,14743.0005538573,14744.0476236001,4,0,80,4,16
3,261,564.8581911355,1,0,14745.8711837636,14746.9182554313,4,1,100,16,4
3,262,694.396513377797,0,0,14748.5535812789,14749.600649097,4,0,72,8,4
3,263,614.588024493059,0,0,14751.4124486578,14752.4595191706,4,0,75,4,0
3,264,605.482507828128,0,0,14754.2007297081,14755.2477959863,4,0,83,16,0
3,265,516.982721866952,1,0,14756.9890076787,14758.0360766517,4,1,64,4,4
3,266,522.7475344509,1,0,14759.6361045229,14760.6832181515,4,1,67,16,4
3,267,624.169354738115,1,0,14762.3537973198,14763.400864368,4,1,73,4,4
3,268,482.95820129897,1,0,14765.1420733656,14766.1891842995,4,1,85,8,8
3,269,567.835490670404,1,0,14767.8480001704,14768.8950753028,4,1,98,0,8
3,270,553.204223097055,0,0,14770.5656821883,14771.6127580906,4,0,76,4,8
3,271,710.417110407434,1,0,14773.3774859838,14774.4245653507,4,1,82,16,8
3,272,635.598504712107,1,0,14776.1893059476,14777.2363776153,4,1,92,4,8
3,273,674.195994140973,1,0,14778.9775739092,14780.0246475017,4,1,62,4,4
3,274,702.920736754095,0,0,14781.9070818964,14782.9541181475,4,0,72,8,4
3,275,613.888162772128,0,0,14784.7188406512,14785.7659188633,4,0,65,8,8
3,276,793.102423627715,0,0,14787.4718348891,14788.5188996275,4,0,89,8,0
3,277,623.077986212593,0,0,14790.4248198109,14791.4718857041,4,0,88,16,8
3,278,681.418659496558,0,0,14793.2483842089,14794.2954612661,4,0,82,0,0
3,279,659.312191202844,0,0,14796.0013711325,14797.0484462649,4,0,61,0,16
3,280,573.598763407063,1,0,14798.7661148091,14799.8132011054,4,1,92,16,0
3,281,595.734103881114,0,0,14801.530866185,14802.5779578707,4,0,67,4,4
3,282,559.607688375763,1,0,14804.2132652401,14805.2603376778,4,1,85,0,8
3,283,562.489517224094,0,0,14806.9662440795,14808.0133288359,4,0,85,4,0
3,284,740.12812680121,0,0,14809.7545220501,14810.8016033419,4,0,69,16,16
3,285,596.768497965968,0,0,14812.6369183335,14813.6840215682,4,0,81,4,8
3,286,568.517259156579,0,0,14815.3781477342,14816.4252124726,4,0,92,0,16
3,287,535.932498127295,1,0,14818.1546577879,14819.2017321503,4,1,98,4,16
3,288,496.201294303319,0,0,14820.9194030043,14821.9664762119,4,0,86,8,16
3,289,740.136980937677,0,0,14823.5665113974,14824.6135753659,4,0,91,4,0
3,290,665.270254936331,0,0,14826.4841994978,14827.5312727053,4,0,61,4,16
3,291,614.808607972009,1,0,14829.2489493338,14830.2960183068,4,1,72,8,8
3,292,550.572619837112,0,0,14832.0489921416,14833.0960603447,4,0,93,0,8
3,293,828.651395469933,1,0,14834.8019729058,14835.8490561224,4,1,90,4,8
3,294,638.136947061867,1,0,14837.7784948163,14838.825566869,4,1,73,8,4
3,295,501.389048185956,1,0,14840.5432357982,14841.5903078509,4,1,75,0,8
3,296,634.786233957129,1,0,14843.1785797391,14844.2257053015,4,1,80,8,16
3,297,592.454993791762,0,0,14845.9080269792,14846.9551121206,4,0,74,8,8
3,298,559.736265831816,1,0,14848.6845478118,14849.7316714494,4,1,88,8,4
3,299,491.178689308072,1,0,14851.3434071835,14852.3904865504,4,1,97,16,4
3,300,584.908575019654,1,0,14853.931686386,14854.9787699875,4,1,63,0,0
3,301,641.528851145267,0,0,14856.5787893896,14857.6258622122,4,0,81,16,0
3,302,616.916277349446,1,0,14859.3906289865,14860.437672167,4,1,89,16,0
3,303,494.629877608531,1,0,14862.1318121917,14863.1788853992,4,1,96,16,4
3,304,544.844763644505,1,0,14864.6965875122,14865.7436911318,4,1,68,0,0
3,305,485.189828581497,0,0,14867.4142495121,14868.4613207948,4,0,87,8,4
3,306,503.172194223225,1,1,14870.0260549244,14871.0731231274,4,0,100,16,4
3,307,634.6395632645,1,0,14872.6025565859,14873.6496371077,4,1,66,4,0
3,308,645.042018402819,0,0,14875.4731918817,14876.5202666291,4,0,92,0,4
3,309,800.016349105135,0,0,14878.273239694,14879.3203094369,4,0,81,8,0
3,310,531.098139766982,1,0,14881.2732858895,14882.3203656414,4,1,96,16,8
3,311,619.745751306255,1,0,14884.0615965819,14885.1086382226,4,1,78,4,0
3,312,763.810246373396,1,0,14886.7674887401,14887.8145704168,4,1,90,8,16
3,313,659.336443837674,0,0,14889.7557758728,14890.8028452307,4,0,92,16,16
3,314,688.618997030062,0,0,14892.6146459464,14893.6617156893,4,0,98,16,8
3,315,677.740343353435,1,0,14895.5323352017,14896.5794022498,4,1,92,8,0
3,316,624.897703681199,1,0,14898.4382603896,14899.4853320573,4,1,92,4,4
3,317,709.07474636806,1,0,14901.297132773,14902.3442005911,4,1,63,8,16
3,318,597.846777769519,1,0,14904.0854142083,14905.1324735572,4,1,92,0,0
3,319,617.738557128177,0,0,14906.8972114593,14907.944335097,4,0,62,4,8
3,320,489.718141798221,1,0,14909.7443178506,14910.7914318642,4,1,77,0,16
3,321,612.08884831467,1,0,14925.1327953858,14926.1798601241,5,1,87,4,8
3,322,565.355947575881,1,0,14927.9916616098,14929.0387294279,5,1,84,4,0
3,323,587.072448912295,0,0,14930.685817418,14931.732895245,5,0,66,8,16
3,324,512.473271808631,1,0,14933.3564497111,14934.4035283081,5,1,68,8,16
3,325,475.241244166682,1,0,14935.9447258338,14936.991803276,5,1,76,16,8
3,326,542.99386421917,0,0,14938.4859352935,14939.5330077311,5,0,89,0,8
3,327,716.40250647215,1,0,14941.2153979321,14942.2624688298,5,1,61,4,4
3,328,572.526643001765,1,0,14944.0624939294,14945.1095721414,5,1,95,0,4
3,329,526.824286722331,1,0,14946.7331343067,14947.7801978902,5,1,74,4,0
3,330,545.867608858316,0,0,14949.3331706472,14950.3802373103,5,0,88,0,8
3,331,550.733149175358,1,0,14951.9803159967,14953.027340314,5,1,88,0,4
3,332,586.487305999981,1,0,14954.6744306138,14955.7214988169,5,1,99,0,16
3,333,750.45243456043,1,0,14957.4862355642,14958.5333106965,5,1,82,4,8
3,334,781.239805945006,0,0,14960.3686368521,14961.4157092897,5,0,89,0,16
3,335,743.593558714565,1,0,14963.2863276472,14964.33339816,5,1,82,8,8
3,336,556.420584309308,1,0,14966.1922532201,14967.2393318171,5,1,88,8,16
3,337,614.290833487757,0,0,14968.8393519891,14969.8864236568,5,0,65,4,0
3,338,753.831634885501,0,0,14971.5688092383,14972.6158851405,5,0,73,8,16
3,339,658.529947519128,0,0,14974.498261021,14975.5453380781,5,0,100,0,0
3,340,690.037583633966,1,0,14977.3336083495,14978.3806780923,5,1,67,8,16
3,341,508.438865404969,1,0,14980.2042340212,14981.2513091536,5,1,76,0,0
3,342,540.731824905379,1,0,14982.9219302828,14983.968996561,5,1,84,0,8
3,343,628.337343110616,0,0,14985.6043235635,14986.6513952312,5,0,68,0,4
3,344,597.831379272975,1,0,14988.4867213868,14989.5337911296,5,1,83,0,8
3,345,664.121911966504,1,0,14991.192643572,14992.2397086953,5,1,73,4,8
3,346,720.943523450842,0,0,14994.0868073874,14995.1338855994,5,0,97,8,0
3,347,736.621503907372,0,0,14996.8869067847,14997.933920323,5,0,100,16,16
3,348,668.963584614175,0,0,14999.757485876,15000.8045513843,5,0,75,16,8
3,349,722.72628452447,1,0,15002.6398748451,15003.6869503624,5,1,72,8,8
3,350,677.973630594352,0,0,15005.4516874947,15006.4987664766,5,0,99,4,16
3,351,750.437421025708,1,0,15008.381143127,15009.428222109,5,1,61,8,8
3,352,553.843260751819,0,0,15011.3105991442,15012.3577054586,5,0,79,0,8
3,353,874.108145710125,0,0,15013.9812291276,15015.0283042599,5,0,61,16,16
3,354,710.685044268757,1,0,15016.9577910742,15018.0048296351,5,1,80,4,0
3,355,738.705690573624,1,0,15019.7577896113,15020.804861664,5,1,87,16,4
3,356,732.671404279245,0,0,15022.5578381936,15023.6049040869,5,0,91,8,4
3,357,527.200395032196,1,0,15025.5343504801,15026.5814213778,5,1,75,4,4
3,358,697.241000869326,1,0,15028.1932194758,15029.2402876788,5,1,99,16,4
3,359,735.881221129603,1,0,15031.0756119096,15032.1226843472,5,1,63,8,4
3,360,610.730700813292,1,0,15034.02861146,15035.0756758134,5,1,64,8,0
3,361,701.501380226546,0,0,15036.8757051475,15037.9227775851,5,0,71,8,0
3,362,786.190038001223,0,0,15039.758100661,15040.8051804129,5,0,99,8,0
3,363,574.135401049716,1,0,15042.7110944369,15043.7581653347,5,1,67,4,0
3,364,618.766791812959,1,0,15045.3464326033,15046.3934988815,5,1,62,8,8
3,365,760.03876932009,0,0,15048.1111739702,15049.1582460228,5,0,99,0,0
3,366,662.502759932977,0,0,15050.934741063,15051.9818227397,5,0,78,4,4
3,367,713.981477667403,0,0,15053.6642002369,15054.7112757542,5,0,79,16,0
3,368,677.309185417471,1,0,15056.5818971914,15057.6289711689,5,1,72,4,8
3,369,744.628722723064,0,0,15059.4995876015,15060.5466631188,5,0,77,4,8
3,370,628.570630349714,0,0,15062.3466882184,15063.3937621959,5,0,94,0,0
3,371,701.1810914737,0,0,15065.1349708085,15066.1820463259,5,0,67,4,16
3,372,843.724214966642,0,0,15067.9585398262,15069.0056249675,5,0,81,4,4
3,373,560.698286975821,0,0,15070.9115255179,15071.9586064247,5,0,86,0,16
3,374,669.30389141271,0,0,15073.5468656091,15074.5939430512,5,0,64,16,16
3,375,637.593765051861,0,0,15076.3233852868,15077.3704465605,5,0,76,16,8
3,376,612.934225837307,0,0,15079.1351825379,15080.1822988612,5,0,97,16,0
3,377,585.740093896675,0,0,15081.8881725412,15082.9352780856,5,0,76,0,16
3,378,571.18235415146,0,0,15084.6058634133,15085.6529366208,5,0,78,0,4
3,379,803.78782616026,1,0,15087.3353653181,15088.3823846309,5,1,74,8,4
3,380,682.583170886574,1,0,15090.2883125135,15091.3353734023,5,1,98,16,8
3,381,755.318744804754,0,0,15093.2177577519,15094.2648340391,5,0,85,16,8
3,382,607.445046362045,1,0,15096.0766274405,15097.1236933338,5,1,92,4,4
3,383,541.916354341083,0,0,15098.864906951,15099.9120051811,5,0,95,16,0
3,384,680.618707541726,1,0,15101.6531922359,15102.7002769923,5,1,90,8,4
3,385,550.883284528027,0,0,15104.4179343726,15105.4650014208,5,0,87,8,4
3,386,623.238130589016,1,0,15107.0767960541,15108.1238711864,5,1,75,16,4
3,387,560.100440303358,0,0,15109.7827116949,15110.829789907,5,0,75,0,0
3,388,515.567599926726,0,0,15112.5592367622,15113.6063091998,5,0,96,4,16
3,389,668.79343121218,0,0,15115.3239839034,15116.3710659651,5,0,62,0,16
3,390,660.243800317403,1,0,15118.041669771,15119.0887425936,5,1,84,16,0
3,391,730.122952905731,1,0,15120.9358332014,15121.9829114135,5,1,61,16,16
3,392,721.69650998876,1,0,15123.77117976,15124.8182518127,5,1,89,16,4
3,393,627.635171613292,1,0,15126.5830108878,15127.6301168171,5,1,66,16,0
3,394,485.710682765784,1,0,15129.3241960177,15130.3712792343,5,1,86,4,16
3,395,586.925393259662,0,0,15131.947768962,15132.994846789,5,0,63,16,4
3,396,463.707384407826,1,0,15134.6419609566,15135.689065731,5,1,76,0,4
3,397,703.615593964059,0,0,15137.2302012779,15138.2772806448,5,0,91,16,16
3,398,474.800847130609,1,0,15140.1008392684,15141.1479251797,5,1,85,4,16
3,399,528.178969560031,0,0,15142.724408748,15143.7714781059,5,0,86,8,8
3,400,697.430787353369,0,0,15145.3362180099,15146.3832839031,5,0,68,8,0
3,401,619.706485136703,0,0,15154.9128328503,15155.9599522534,6,0,96,16,16
3,402,650.118133175056,1,0,15157.7246385706,15158.7717171676,6,1,93,0,16
3,403,529.442801260302,0,0,15160.6070371638,15161.6541192254,6,0,74,0,4
3,404,511.666775490085,1,0,15163.265910779,15164.3129759024,6,1,64,16,8
3,405,564.534052758972,1,0,15166.0188923132,15167.0659632109,6,1,78,0,16
3,406,576.65421031561,0,0,15168.6659899273,15169.7130646747,6,0,97,16,4
3,407,621.043459701468,0,0,15171.348383208,15172.3954541058,6,0,98,0,4
3,408,555.442394739657,1,0,15174.1719576151,15175.2190231234,6,1,67,4,0
3,409,632.732844283964,0,0,15176.9367120707,15177.9838203098,6,0,79,4,16
3,410,545.436450920533,1,0,15179.7720463105,15180.8191164383,6,1,68,4,8
3,411,591.891793737886,0,0,15182.4426774487,15183.4897575855,6,0,68,16,0
3,412,690.518016763235,0,0,15185.1250634151,15186.1721477866,6,0,99,8,0
3,413,724.988708803721,1,0,15187.9015784733,15188.9486613049,6,1,99,4,8
3,414,583.13043349699,0,0,15190.8192723481,15191.8663486353,6,0,74,0,8
3,415,479.454273143347,1,0,15193.4899027164,15194.5369728442,6,1,76,16,4
3,416,656.113153301703,1,0,15196.1252408828,15197.1723040813,6,1,71,4,0
3,417,591.624244840204,1,0,15199.007690291,15200.0547134535,6,1,76,0,16
3,418,645.280310154703,0,0,15201.6900323717,15202.7371075041,6,0,72,0,4
3,419,535.874368797522,1,0,15204.5136133232,15205.560673057,6,1,83,8,8
3,420,775.488852008493,0,0,15207.2077679765,15208.2548381043,6,0,70,16,8
3,421,560.404175670556,0,0,15210.2078153268,15211.25488199,6,0,63,0,8
3,422,601.623644299252,0,0,15212.9607949361,15214.0078696835,6,0,84,8,0
3,423,689.055929406095,1,0,15215.7373092244,15216.7843766575,6,1,79,16,8
3,424,555.690310555292,0,0,15218.52558758,15219.572655783,6,0,88,8,16
3,425,689.600651261571,0,0,15221.1726851941,15222.219765331,6,0,72,8,4
3,426,633.559358650018,1,0,15224.0786130768,15225.125689749,6,1,89,8,0
3,427,716.298951576391,1,0,15226.7727773541,15227.8198467121,6,1,94,8,16
3,428,582.937952272914,1,0,15229.6081054345,15230.6551832616,6,1,80,0,8
3,429,609.077672084823,1,0,15232.255210363,15233.3022866502,6,1,79,8,0
3,430,560.264049339821,0,0,15235.0199586591,15236.0670318667,6,0,100,4,0
3,431,591.361315491667,1,0,15237.8317724636,15238.8788414365,6,1,88,16,16
3,432,726.0943209385,1,0,15240.5259298116,15241.5729957048,6,1,61,8,0
3,433,755.567430544033,0,0,15243.4436202217,15244.4906941992,6,0,99,4,16
3,434,689.701126459113,1,0,15246.3142882393,15247.361329495,6,1,72,16,16
3,435,591.641183187676,1,0,15249.1025519663,15250.1495993814,6,1,78,0,0
3,436,524.960683536847,1,0,15251.8319861177,15252.8790566305,6,1,88,4,16
3,437,687.516849557142,0,0,15254.4084947086,15255.4555736905,6,0,82,4,0
3,438,590.877032736898,1,0,15257.1732514739,15258.2203408498,6,1,90,16,8
3,439,584.397344897297,0,0,15259.9615275197,15261.0085984174,6,0,62,8,16
3,440,631.880922397613,0,0,15262.7850946125,15263.8321743644,6,0,71,0,8
3,441,781.524293191978,1,0,15265.620431547,15266.6675066793,6,1,94,4,4
3,442,706.294547606376,1,0,15268.5616539413,15269.6087306135,6,1,78,8,8
3,443,546.475849516355,0,0,15271.4322861575,15272.4793893921,6,0,75,0,4
3,444,672.338550351924,0,0,15274.2205664378,15275.2676423401,6,0,98,16,0
3,445,923.636643710779,0,0,15277.0441493141,15278.0912132825,6,0,93,16,0
3,446,696.593879003558,1,0,15280.0912475442,15281.1383234465,6,1,98,0,4
3,447,662.550495275354,1,0,15282.9971765818,15284.0442509442,6,1,99,16,4
3,448,582.012887523888,1,0,15285.8090400464,15286.8560635937,6,1,84,8,4
3,449,669.619945578233,0,0,15288.5502024635,15289.5972702816,6,0,99,16,4
3,450,544.163380121972,0,0,15291.3855428627,15292.4326145304,6,0,96,16,16
3,451,557.829546851281,1,0,15294.1150151254,15295.1621122006,6,1,89,4,0
3,452,596.251108443539,0,0,15296.8326882892,15297.8797576471,6,0,66,0,0
3,453,508.763003781496,1,0,15299.5268494869,15300.5739696598,6,1,97,4,4
3,454,543.492390583197,1,0,15302.1151159856,15303.1621992021,6,1,98,16,0
3,455,498.851375759841,1,0,15304.8328068577,15305.8799385795,6,1,89,4,4
3,456,516.770607560829,1,0,15307.3857892387,15308.4329028673,6,1,98,0,16
3,457,817.654173359188,1,0,15310.1270247988,15311.1740783732,6,1,91,8,8
3,458,836.908454912191,0,0,15313.1858894059,15314.2329995699,6,0,71,8,4
3,459,688.19938796878,1,0,15316.2565169255,15317.3035928278,6,1,88,4,8
3,460,725.272041161588,0,0,15319.0095015393,15320.056573592,6,0,100,0,16
3,461,640.503696160522,0,0,15321.8801333705,15322.9272115825,6,0,94,4,4
3,462,541.996426529295,0,0,15324.7154733847,15325.762548902,6,0,74,0,0
3,463,774.152647369192,0,0,15327.4684576136,15328.5155269715,6,0,93,16,16
3,464,592.591655458818,0,0,15330.4920381031,15331.5391066911,6,0,71,0,0
3,465,552.285317744463,0,0,15333.2803102992,15334.3273858165,6,0,73,4,16
3,466,541.715788909642,1,0,15335.9627463108,15337.0097841018,6,1,96,0,8
3,467,598.815343277238,1,0,15338.6568690122,15339.7039345204,6,1,72,4,8
3,468,541.76005959016,0,0,15341.4687136136,15342.5157548693,6,0,86,4,4
3,469,673.247831642584,1,0,15344.1393077954,15345.1863786932,6,1,80,0,0
3,470,760.750949839348,0,0,15346.962867189,15348.0099488657,6,0,61,4,8
3,471,591.241592170263,0,0,15349.9040999773,15350.951161636,6,0,85,4,16
3,472,739.591489156737,0,0,15352.7159122419,15353.7629850645,6,0,66,16,0
3,473,583.804502733983,1,0,15355.6806666205,15356.7277313588,6,1,67,16,4
3,474,572.605945264513,0,0,15358.4336485395,15359.4807144328,6,0,87,8,16
3,475,766.135034566105,1,0,15361.210160518,15362.2572314158,6,1,71,8,16
3,476,796.229088589826,0,0,15364.1160891706,15365.1631589135,6,0,79,16,8
3,477,584.965934423963,1,0,15366.9985458932,15368.0455571217,6,1,79,8,8
3,478,638.099220741424,1,0,15369.7632283607,15370.8103019532,6,1,73,8,4
3,479,706.608676959149,0,0,15372.598577999,15373.6456385028,6,0,68,8,4
3,480,729.38036035157,0,0,15375.5397965437,15376.5868608972,6,0,89,8,8
3,481,677.219489167328,0,0,15381.9398949401,15382.9869662229,7,0,75,16,8
3,482,499.026533672804,1,0,15384.8693490326,15385.9164430281,7,1,67,4,8
3,483,497.809667391266,1,0,15387.575269678,15388.6224060194,7,1,65,8,8
3,484,509.512910623016,1,0,15390.1517836583,15391.1988530162,7,1,96,8,0
3,485,599.251120762347,1,0,15392.7988874318,15393.845954095,7,1,99,16,4
3,486,503.064404738325,1,0,15395.5401022039,15396.5871819558,7,1,74,4,0
3,487,682.670172398502,0,0,15398.1283802515,15399.1755088937,7,0,79,0,0
3,488,614.045997373978,1,0,15400.940183277,15401.9872649537,7,1,71,4,8
3,489,569.631725429645,1,0,15403.7284635574,15404.7755406146,7,1,99,16,4
3,490,559.974557583701,1,0,15406.3990962355,15407.4461659783,7,1,66,4,16
3,491,529.847396790501,1,0,15409.1403225564,15410.1874250211,7,1,85,16,0
3,492,673.573894831861,0,0,15411.8344756699,15412.8815519571,7,0,73,16,0
3,493,774.75703840355,0,0,15414.6462848547,15415.6933861645,7,0,89,8,8
3,494,662.035800489321,1,0,15417.5169193806,15418.5639918183,7,1,71,8,16
3,495,556.664650499442,1,0,15420.3522551603,15421.3993510806,7,1,83,4,8
3,496,527.015228095479,1,0,15423.0699506519,15424.1170177001,7,1,75,0,0
3,497,585.666951034,0,0,15425.6582275446,15426.7052930529,7,0,96,8,8
3,498,671.216769793318,0,0,15428.3876751697,15429.4347495321,7,0,98,16,8
3,499,591.004070343843,0,0,15431.1759581448,15432.2230298125,7,0,64,0,16
3,500,514.655238936029,1,0,15433.9642391951,15435.0113023936,7,1,76,16,4
3,501,529.743456929282,0,0,15436.6701644601,15437.7172565308,7,0,97,16,0
3,502,1038.81086231377,0,0,15439.376079331,15440.4231617776,7,0,100,0,16
3,503,705.568508437864,0,0,15442.4702457641,15443.5173185867,7,0,92,4,8
3,504,578.050854061075,1,0,15445.3879419487,15446.4350128464,7,1,85,8,16
3,505,597.952642441669,1,0,15448.1880471204,15449.2350637385,7,1,82,8,8
3,506,600.185809573304,0,0,15451.0115537741,15452.0586327561,7,0,97,16,16
3,507,585.450602140554,1,0,15453.8233660387,15454.8704334718,7,1,77,4,0
3,508,473.610158294832,1,0,15456.5881170296,15457.6351821529,7,1,87,16,16
3,509,804.578923982262,0,0,15459.282280152,15460.3293475851,7,0,91,4,4
3,510,658.884112966916,0,0,15462.3058567919,15463.3529249949,7,0,66,4,16
3,511,683.175243124424,0,0,15465.1647214761,15466.2117927588,7,0,70,4,0
3,512,563.965463230488,1,0,15467.9177014703,15468.9647723681,7,1,93,0,0
3,513,687.422918721495,0,0,15470.6942238428,15471.7412932007,7,0,100,4,4
3,514,668.03851986333,0,0,15473.5766093473,15474.6236890992,7,0,66,8,16
3,515,737.105786660322,0,0,15476.4825453142,15477.529615442,7,0,70,8,0
3,516,760.436435522934,1,0,15479.3531709859,15480.4002534326,7,1,84,16,0
3,517,557.635910741737,1,0,15482.2590996385,15483.3061763107,7,1,66,16,8
3,518,753.989854450992,0,0,15484.9767908956,15486.0238702625,7,0,61,0,8
3,519,659.977406305188,0,0,15487.9415433493,15488.9886184817,7,0,82,0,16
3,520,644.349470967427,1,0,15490.7062854861,15491.7533675478,7,1,61,8,16
3,521,655.125339673759,0,0,15493.5063356082,15494.5534053511,7,0,66,0,4
3,522,676.476511653163,1,0,15496.2710754352,15497.3181521074,7,1,88,16,4
3,523,648.63833754498,1,0,15499.024070058,15500.0711424956,7,1,89,16,8
3,524,540.930850487712,0,0,15501.8947018892,15502.9417808712,7,0,76,4,8
3,525,558.737288292832,1,0,15504.5888650116,15505.6359339846,7,1,86,8,4
3,526,504.45873870558,1,0,15507.2830227446,15508.3300924875,7,1,86,8,0
3,527,608.7912600251,1,0,15509.9065949189,15510.9536916091,7,1,97,0,16
3,528,715.453574050116,1,0,15512.6831092072,15513.73017972,7,1,91,8,16
3,529,647.610102860199,1,0,15515.5419708116,15516.5890505635,7,1,100,16,0
3,530,728.429888080427,0,0,15518.3890814375,15519.4361561849,7,0,66,0,0
3,531,797.095639050895,0,0,15521.3302972875,15522.3773728048,7,0,99,8,4
3,532,656.727168397993,1,0,15524.3068138085,15525.3538931755,7,1,97,4,0
3,533,676.060752213743,1,0,15527.1774460247,15528.224521542,7,1,75,0,8
3,534,552.577889202439,1,0,15529.918698908,15530.9657417035,7,1,77,0,4
3,535,543.625202624753,1,0,15532.6245949158,15533.6716635038,7,1,96,0,4
3,536,587.57636475093,0,0,15535.3658131526,15536.4128790458,7,0,98,8,4
3,537,649.865982775736,0,0,15538.1893894845,15539.2364584574,7,0,62,0,4
3,538,825.037753016659,0,0,15541.0011882754,15542.0482691822,7,0,65,16,4
3,539,579.891359500834,0,0,15544.0483007491,15545.0953728017,7,0,82,0,8
3,540,508.741830848521,0,0,15546.7895205257,15547.8365910385,7,0,85,0,4
3,541,744.226821931079,0,0,15549.4719138064,15550.5189820094,7,0,61,8,0
3,542,598.112016892628,0,0,15552.4131358158,15553.4602036338,7,0,84,8,8
3,543,543.35380410339,1,0,15555.2249426909,15556.2720124338,7,1,84,4,4
3,544,758.434245855824,1,0,15557.9896971464,15559.0367638096,7,1,100,0,8
3,545,727.372396249848,1,0,15560.9779735002,15562.0250420882,7,1,67,16,8
3,546,599.187601959784,0,0,15563.7780147682,15564.8250883607,7,0,61,8,0
3,547,824.177746919304,0,0,15566.5898289576,15567.6368987005,7,0,100,4,16
3,548,578.828093233824,0,0,15569.6251677399,15570.6722478768,7,0,92,0,8
3,549,609.06227358646,0,0,15572.3781550485,15573.4252328756,7,0,65,16,16
3,550,907.617201566609,0,0,15575.1664268597,15576.213502762,7,0,99,4,4
3,551,595.008449676243,1,0,15578.1900115838,15579.2370801718,7,1,69,0,16
3,552,529.728058430919,1,0,15580.978282625,15582.0253554476,7,1,86,4,16
3,553,587.339997811796,1,0,15583.6136219463,15584.6606963088,7,1,64,4,0
3,554,585.266590091123,1,0,15586.4136639842,15587.4607360369,7,1,93,0,0
3,555,700.367665831436,0,0,15589.0725306702,15590.1196034928,7,0,65,4,16
3,556,666.827428018223,0,0,15591.8490403389,15592.8961805299,7,0,85,8,4
3,557,751.952248238013,0,0,15594.7079046381,15595.754984775,7,0,79,16,16
3,558,667.738249156173,0,0,15597.5432943125,15598.5903201697,7,0,97,4,4
3,559,784.921971713629,0,0,15600.3079994929,15601.3551300598,7,0,81,16,16
3,560,761.254095750701,1,0,15603.1786305541,15604.2256979872,7,1,63,8,4
3,561,749.552007408056,1,0,15631.9790810372,15633.0261527048,8,1,99,8,8
3,562,600.149238141967,0,0,15634.8026496698,15635.8497278818,8,0,64,8,8
3,563,686.49400434515,0,0,15637.5321038392,15638.5791762769,8,0,72,8,8
3,564,560.034996686227,1,0,15640.4498050283,15641.4969101877,8,1,96,16,8
3,565,506.140254656202,0,0,15643.1086636301,15644.1557349128,8,0,86,4,16
3,566,581.747648398959,1,0,15645.7440006416,15646.7910730792,8,1,87,16,4
3,567,586.740611288405,1,0,15648.4969925697,15649.5440515336,8,1,90,16,8
3,568,532.007421057642,0,0,15651.3205596625,15652.3676251708,8,0,73,0,4
3,569,503.822780749033,1,0,15653.9559459492,15655.0029664169,8,1,69,4,0
3,570,719.802494770192,1,0,15656.5559303197,15657.6030069919,8,1,81,8,16
3,571,577.871461562609,1,0,15659.3677395046,15660.4148273407,8,1,85,8,0
3,572,491.034328391834,1,0,15662.0854303767,15663.1325001196,8,1,95,0,4
3,573,626.708567013338,0,0,15664.6737088093,15665.7207874063,8,0,65,16,4
3,574,600.729761505136,1,1,15667.4267376938,15668.4737608562,8,0,90,4,8
3,575,725.767872787401,1,0,15670.1326136835,15671.1797238474,8,1,71,4,16
3,576,609.793702227762,1,0,15673.0738356929,15674.1209112102,8,1,87,8,16
3,577,659.684834847212,0,0,15675.7327089232,15676.7798121578,8,0,72,0,4
3,578,554.040746486862,0,0,15678.6033319002,15679.6504093424,8,0,84,0,0
3,579,597.65583639637,1,0,15681.379851578,15682.4269143915,8,1,73,16,16
3,580,671.533978846128,0,0,15684.0857722234,15685.132844661,8,0,72,16,4
3,581,594.082230038111,0,0,15686.8622876665,15687.9093593342,8,0,97,0,0
3,582,611.607645258118,1,0,15689.5447286826,15690.591762239,8,1,91,0,16
3,583,575.86003279539,1,0,15692.2976701806,15693.3447326092,8,1,86,8,4
3,584,662.522777978666,0,0,15694.9447647151,15695.9918344579,8,0,94,16,4
3,585,523.060508918206,1,0,15697.8154003958,15698.8624739883,8,1,65,0,16
3,586,517.244496328203,0,0,15700.4272015735,15701.4742713164,8,0,74,8,16
3,587,497.816596713164,0,0,15703.1566515084,15704.2037362648,8,0,76,4,4
3,588,598.472726702312,1,0,15705.7567017075,15706.8037722203,8,1,61,4,8
3,589,545.602754697029,1,0,15708.5567414356,15709.6038134883,8,1,64,16,8
3,590,501.880645226265,0,0,15711.1803132249,15712.2273818129,8,0,65,4,8
3,591,699.766354495296,1,0,15713.8274143038,15714.8744917459,8,1,80,4,16
3,592,679.207050261539,0,0,15716.6980499845,15717.7451189575,8,0,81,0,0
3,593,676.347934197111,1,0,15719.4627925063,15720.5098711033,8,1,61,8,8
3,594,583.161230490077,0,0,15722.3451922543,15723.3922635371,8,0,65,16,16
3,595,722.684708580346,0,0,15725.1335148806,15726.1805388129,8,0,70,16,16
3,596,623.31858773905,1,0,15727.9688033098,15729.0158761324,8,1,82,4,4
3,597,612.076144552702,1,0,15730.6629664323,15731.7100404098,8,1,81,16,0
3,598,539.441430793886,0,0,15733.4747763871,15734.5218434353,8,0,96,0,8
3,599,628.745018337213,1,0,15736.1924668742,15737.2395366171,8,1,63,8,16
3,600,607.209449346556,1,0,15739.0278057336,15740.0748770163,8,1,73,8,0
3,601,550.967976265383,1,0,15741.7690220455,15742.8160917884,8,1,64,4,0
3,602,588.703919745967,1,0,15744.5102807033,15745.5573134898,8,1,97,0,8
3,603,501.374419613057,1,0,15747.1926374126,15748.2397102352,8,1,77,16,16
3,604,709.10092381564,0,0,15749.8750303083,15750.9221050557,8,0,62,8,0
3,605,651.189868616711,0,0,15752.8397862268,15753.8868559696,8,0,68,4,0
3,606,721.520967115794,0,0,15755.6633544744,15756.7104292218,8,0,61,16,0
3,607,497.159465823643,0,0,15758.6398709955,15759.6869472827,8,0,65,0,0
3,608,569.268320883566,0,0,15761.357557633,15762.4046277608,8,0,95,0,16
3,609,617.082581124123,0,0,15764.0399524535,15765.087026816,8,0,61,4,4
3,610,488.16135367997,0,0,15766.8046988249,15767.851775882,8,0,74,4,8
3,611,548.969251261951,1,0,15769.5459212962,15770.5929914241,8,1,69,0,4
3,612,633.174011243682,1,0,15772.2518542604,15773.2989159191,8,1,69,4,4
3,613,971.612588176868,1,0,15774.9342433065,15775.9813165141,8,1,67,0,0
3,614,574.916104886142,0,0,15778.0519382592,15779.0990126216,8,0,96,0,8
3,615,906.621688689484,1,0,15780.7931518764,15781.8402270088,8,1,90,16,8
3,616,591.600762130838,0,0,15783.8402570358,15784.8873360178,8,0,75,8,4
3,617,558.937468760632,0,0,15786.6638364474,15787.7109054204,8,0,84,0,8
3,618,493.530809835647,1,0,15789.3462301131,15790.3933013958,8,1,87,0,8
3,619,610.874676767708,0,0,15791.9580409148,15793.0051129675,8,0,94,0,16
3,620,588.546085145936,1,0,15794.7463115711,15795.7933901682,8,1,63,16,16
3,621,737.20741674515,0,0,15797.4875340425,15798.5346107147,8,0,76,16,8
3,622,722.512245407415,0,0,15800.3111022902,15801.3581731879,8,0,89,16,0
3,623,609.601990930969,0,0,15803.217049421,15804.2641029954,8,0,88,8,0
3,624,683.696482272353,0,0,15805.9229642919,15806.9700336498,8,0,100,16,4
3,625,665.446952696584,1,0,15808.7112418775,15809.7583104655,8,1,72,8,8
3,626,713.179215936179,1,0,15811.5465784271,15812.5936427805,8,1,91,4,4
3,627,635.136934743059,0,0,15814.4995645038,15815.5466361715,8,0,67,8,16
3,628,536.616961349864,0,0,15817.2760799469,15818.3231446853,8,0,77,0,16
3,629,667.19968669895,0,0,15820.0172970288,15821.0643613822,8,0,73,16,0
3,630,548.467645197888,1,0,15822.9232226017,15823.9702908047,8,1,77,4,0
3,631,552.119013969786,1,0,15825.6173837993,15826.6644577768,8,1,87,8,4
3,632,705.333681347838,0,0,15828.3233102192,15829.3703749575,8,0,72,8,4
3,633,604.282964855884,1,0,15831.1821660492,15832.2292477259,8,1,92,4,16
3,634,794.682309495329,0,0,15834.0057489254,15835.0528205931,8,0,88,8,0
3,635,609.516529268149,1,0,15836.8999119709,15837.9469859484,8,1,63,4,16
3,636,534.781845384714,0,0,15839.6646999182,15840.7117411738,8,0,65,8,4
3,637,685.876139625179,1,0,15842.2647031519,15843.3118079263,8,1,98,16,0
3,638,640.557590902972,1,0,15845.2059251612,15846.2529902846,8,1,99,0,4
3,639,685.479243345981,0,0,15848.0530311676,15849.1000978308,8,0,93,4,8
3,640,490.307134336035,1,0,15850.8530689709,15851.9001425634,8,1,75,4,0
3,641,597.113809279108,1,0,15880.2770562117,15881.3241271095,9,1,85,0,16
3,642,536.628510224546,0,0,15883.0535681902,15884.1006398579,9,0,84,0,4
3,643,644.489597296342,0,0,15885.7947802675,15886.84185463,9,0,62,16,16
3,644,493.821841442696,0,0,15888.559535493,15889.6066094705,9,0,65,0,0
3,645,424.340355055392,1,0,15891.3007583493,15892.3478230877,9,1,77,0,4
3,646,460.574560047462,1,0,15893.8537418852,15894.9008081635,9,1,78,8,8
3,647,613.247585266436,0,0,15896.547891149,15897.5949735957,9,0,67,16,16
3,648,531.784142840479,1,0,15899.3714674809,15900.4185391486,9,1,69,0,8
3,649,677.041636519789,0,0,15901.9950350357,15903.0421151725,9,0,93,4,8
3,650,512.980267345483,1,0,15904.7480242691,15905.7950955518,9,1,65,4,8
3,651,663.809707426481,0,0,15907.4421812321,15908.4892933208,9,0,78,4,16
3,652,656.938127816829,0,0,15910.195165076,15911.2422833241,9,0,84,16,0
3,653,716.734344097858,1,0,15912.9952117334,15914.0422895605,9,1,92,16,0
3,654,597.884504088142,1,0,15915.854082192,15916.901151165,9,1,63,4,4
3,655,620.727405535945,1,0,15918.5482433897,15919.5953458544,9,1,91,16,0
3,656,513.203930526288,1,0,15921.2659281024,15922.3129966903,9,1,75,8,0
3,657,553.797835184014,1,0,15924.0071906098,15925.0542168519,9,1,93,0,8
3,658,801.824132739057,0,0,15926.7013086916,15927.7483776646,9,0,63,4,0
3,659,601.382657809154,1,0,15929.7366413146,15930.7837237612,9,1,77,16,8
3,660,580.403359548654,1,0,15932.5013938453,15933.5484743671,9,1,82,4,8
3,661,502.496585133486,1,0,15935.2543753794,15936.3014497419,9,1,73,0,16
3,662,498.411748651051,1,0,15937.8426565067,15938.8897258646,9,1,76,0,8
3,663,590.621417673901,1,0,15940.4073956408,15941.4544707731,9,1,64,4,4
3,664,509.255370747269,1,0,15943.1486184971,15944.19568747,9,1,74,8,16
3,665,786.313610946308,0,0,15945.7486567623,15946.7957357443,9,0,89,8,0
3,666,657.148702272025,1,0,15948.5957646935,15949.6428332815,9,1,94,16,4
3,667,729.504703222119,0,0,15951.4663915201,15952.5134670375,9,0,100,0,8
3,668,611.629973082017,0,0,15954.3723194028,15955.4193945352,9,0,65,4,0
3,669,589.513110802727,0,0,15957.2311860118,15958.2782646088,9,0,95,8,8
3,670,650.214758748916,1,0,15959.960642491,15961.0077103091,9,1,88,8,16
3,671,538.363535953977,0,0,15962.6783298984,15963.7254050308,9,0,97,8,16
3,672,607.446971174795,1,0,15965.3254348269,15966.3725076495,9,1,90,0,4
3,673,588.531456573037,1,0,15968.0901804283,15969.1372470915,9,1,95,0,0
3,674,559.129565021067,1,0,15970.7725764037,15971.8196457617,9,1,65,16,0
3,675,697.955491163157,1,0,15973.5608909458,15974.6079345112,9,1,96,16,8
3,676,550.236547622262,1,0,15976.3844264717,15977.4314973694,9,1,96,4,8
3,677,478.944967830103,1,0,15979.0785849745,15980.1256604919,9,1,86,8,0
3,678,548.076908316943,1,0,15981.6315696654,15982.6786363285,9,1,63,0,4
3,679,695.003984112191,0,0,15984.2786715141,15985.3257481863,9,0,99,8,4
3,680,567.620681626067,0,0,15987.1728276302,15988.2199335596,9,0,73,0,16
3,681,625.313463120619,0,0,15989.9963970328,15991.0434767847,9,0,67,8,0
3,682,553.940271287502,0,0,15992.6905659297,15993.7376452966,9,0,98,4,16
3,683,562.842912746419,0,0,15995.4317922506,15996.4788812416,9,0,65,8,16
3,684,548.226273745968,0,0,15998.2082996096,15999.2553689675,9,0,69,0,4
3,685,587.134812827571,0,0,16001.0083377979,16002.0554063859,9,0,94,16,8
3,686,708.828370406991,0,0,16003.7495452557,16004.796692761,9,0,72,8,8
3,687,569.963563055353,1,0,16006.6084276481,16007.655497006,9,1,73,4,0
3,688,700.446583132361,1,0,16009.3849430913,16010.4320409364,9,1,91,16,16
3,689,500.428181927418,1,0,16012.2790961277,16013.3261781894,9,1,67,4,0
3,690,680.304963148956,0,0,16014.8791459418,16015.9262149148,9,0,100,4,16
3,691,631.78391186193,0,0,16017.6556552256,16018.7027461414,9,0,74,16,4
3,692,611.501780587787,0,0,16020.5027566124,16021.5498325146,9,0,83,8,0
3,693,601.32799314124,0,0,16023.1851525878,16024.2322227157,9,0,72,4,0
3,694,562.009084094825,0,0,16025.9734313283,16027.0205657449,9,0,83,16,16
3,695,647.841465288366,1,0,16028.773475291,16029.8205527332,9,1,70,0,0
3,696,638.300556098329,0,0,16031.5029267658,16032.5499980485,9,0,80,16,4
3,697,572.732982871457,0,0,16034.2794445187,16035.3265250405,9,0,88,0,16
3,698,572.679088129007,0,0,16037.0677267239,16038.1147926171,9,0,65,16,8
3,699,687.253150283141,1,0,16039.8559969952,16040.903077902,9,1,71,4,4
3,700,654.428942612867,1,0,16042.6678042553,16043.7148782328,9,1,77,16,4
3,701,495.981480748014,1,0,16045.4443223932,16046.4913936759,9,1,76,4,4
3,702,920.320962188271,1,0,16048.0208390682,16049.0679003419,9,1,95,4,8
3,703,707.323937176625,0,0,16051.1267618694,16052.1738308424,9,0,71,16,16
3,704,696.717451946824,0,0,16053.9856354077,16055.0327024558,9,0,61,4,16
3,705,556.459850478859,0,0,16056.8327333298,16057.8798038426,9,0,71,8,4
3,706,516.578511302214,0,0,16059.4445406669,16060.4916088699,9,0,74,8,16
3,707,585.856737518043,0,0,16062.1151668006,16063.1622423179,9,0,97,4,16
3,708,614.724686160116,0,0,16064.8563908118,16065.9034628645,9,0,75,16,4
3,709,505.82458545432,1,0,16067.6093708061,16068.6564474783,9,1,65,0,0
3,710,560.009589165929,1,0,16070.2800042541,16071.3270728421,9,1,74,8,4
3,711,648.406590153172,1,0,16072.9976912765,16074.0447583247,9,1,72,8,4
3,712,582.73700187965,1,0,16075.7742044099,16076.8212780024,9,1,68,0,16
3,713,634.74196327661,0,0,16078.4213089534,16079.4683729218,9,0,73,4,4
3,714,499.699063060689,0,0,16081.1154628367,16082.1625298849,9,0,64,0,0
3,715,630.827280192534,0,0,16083.6802435467,16084.7273421618,9,0,61,8,4
3,716,569.353782546386,0,0,16086.3626075703,16087.4096699989,9,0,83,16,0
3,717,510.884916768191,1,0,16089.0449950766,16090.0920648195,9,1,71,0,8
3,718,685.005354578607,1,0,16091.6921015449,16092.7391766772,9,1,99,8,8
3,719,516.093843585622,1,0,16094.6097888753,16095.6568655475,9,1,73,16,8
3,720,463.866373898782,0,0,16097.1980607635,16098.2451505244,9,0,84,8,8
