sub_id,Trial,RT,Resp,Error,Fix_onset,Disp_onset,block,tid,tloc,fish_setsize,bird_setsize
11,1,546.751925605349,1,0,537299.087964526,537300.135045818,1,1,100,8,8
11,2,611.280100187287,1,0,537301.876249426,537302.923314165,1,1,73,16,16
11,3,547.793633886613,1,0,537304.546904047,537305.593951462,1,1,63,16,8
11,4,574.475765926763,0,0,537307.193984338,537308.241046767,1,0,89,8,8
11,5,485.109044471756,0,0,537309.829317885,537310.876395712,1,0,81,16,4
11,6,483.473339118063,0,0,537312.488181106,537313.535258548,1,0,67,8,0
11,7,590.265770326369,1,0,537315.229399728,537316.276474091,1,1,89,8,4
11,8,540.559419780038,0,0,537317.935328458,537318.982395121,1,0,78,4,16
11,9,434.560011024587,0,0,537320.664813424,537321.71185699,1,0,69,8,4
11,10,358.866000780836,0,0,537323.276588039,537324.323667791,1,0,66,0,8
11,11,842.305301455781,0,0,537325.747221949,537326.794279373,1,0,74,8,8
11,12,908.768682158552,1,0,537328.7707932,537329.817857938,1,1,92,16,4
11,13,591.56232397072,1,0,537331.923781509,537332.970853562,1,1,94,4,16
11,14,589.883887674659,1,0,537334.735598008,537335.782714717,1,1,81,8,4
11,15,747.302729752846,0,0,537337.406213748,537338.453288111,1,0,97,4,0
11,16,558.021316188388,1,0,537340.253313595,537341.300399121,1,1,69,8,0
11,17,617.719751899131,1,0,537342.99455262,537344.041662784,1,1,81,0,0
11,18,438.743397942744,1,0,537345.700523695,537346.747547243,1,1,83,8,8
11,19,543.321910197847,0,0,537348.276978776,537349.324048134,1,0,61,16,16
11,20,425.240840180777,1,0,537351.018196243,537352.065255592,1,1,86,0,4
11,21,448.648866498843,0,0,537353.653534794,537354.700601073,1,0,86,0,8
11,22,453.6272007972,0,0,537356.300627019,537357.347699457,1,0,74,4,4
11,23,641.310250503011,0,0,537358.830083575,537359.877153703,1,0,96,4,16
11,24,557.411920512095,1,0,537361.641886986,537362.688967123,1,1,89,16,16
11,25,513.020361424424,1,0,537364.430173426,537365.477248558,1,1,77,4,8
11,26,476.396574405953,1,0,537367.006679322,537368.053756379,1,1,97,0,4
11,27,439.443644485436,1,0,537369.559690575,537370.60673491,1,1,89,0,16
11,28,694.701461703517,0,0,537372.065580885,537373.112653708,1,0,81,16,8
11,29,448.804776300676,0,0,537374.98327553,537376.030354512,1,0,67,0,16
11,30,744.198777596466,0,0,537377.606849244,537378.653922452,1,0,73,8,16
11,31,729.845837922767,0,0,537380.489246682,537381.536324894,1,0,84,0,0
11,32,664.923076867126,0,0,537383.348107902,537384.395184189,1,0,70,8,0
11,33,758.382334024645,0,0,537386.112865822,537387.15993287,1,0,91,4,16
11,34,485.348876100034,1,0,537389.030543144,537390.077638294,1,1,78,0,8
11,35,554.028100683354,0,0,537391.654118013,537392.701243575,1,0,68,4,0
11,36,799.566385918297,1,0,537394.383576032,537395.430646929,1,1,98,8,16
11,37,641.401101602241,1,0,537397.383626462,537398.430697359,1,1,75,16,0
11,38,650.320296525024,1,0,537400.230727848,537401.277798361,1,1,92,16,4
11,39,575.736902770586,0,0,537403.007244062,537404.054311495,1,0,63,8,0
11,40,572.733810753562,1,0,537405.819057096,537406.866177654,1,1,88,4,4
11,41,661.66937421076,0,0,537408.560281877,537409.607338146,1,0,90,4,0
11,42,629.622405744158,0,0,537411.40736825,537412.454431834,1,0,63,16,0
11,43,580.745264189318,0,0,537414.219239799,537415.266255262,1,0,94,16,0
11,44,602.536063292064,1,0,537416.866280824,537417.913349412,1,1,79,0,16
11,45,521.368657005951,1,0,537419.607500216,537420.654571498,1,1,87,16,16
11,46,604.433543165214,0,0,537422.266362667,537423.313422016,1,0,99,0,0
11,47,519.869613228366,0,0,537425.04288273,537426.089944773,1,0,83,0,8
11,48,574.200517730787,1,0,537427.654670434,537428.701772513,1,1,72,0,8
11,49,472.055352991447,1,0,537430.454726715,537431.501798383,1,1,75,8,16
11,50,488.69073507376,1,0,537433.043000528,537434.090085285,1,1,95,8,8
11,51,400.747604784556,1,0,537435.737157491,537436.784232624,1,1,76,4,16
11,52,712.780067813583,0,0,537438.243082448,537439.290148726,1,0,70,4,8
11,53,511.077456059866,1,0,537441.113716204,537442.160787487,1,1,98,4,4
11,54,614.370578783564,0,0,537443.678458418,537444.725530855,1,0,94,8,4
11,55,610.427793348208,0,0,537446.443205559,537447.490284541,1,0,91,16,4
11,56,422.750518191606,0,0,537449.302072553,537450.349149995,1,0,65,0,0
11,57,555.855517392047,0,0,537451.819769662,537452.86688021,1,0,83,4,8
11,58,481.270968914032,0,0,537454.537452064,537455.584521422,1,0,77,4,4
11,59,440.262844669633,1,0,537457.243386184,537458.290448997,1,1,70,8,16
11,60,547.052966314368,0,0,537459.831644598,537460.878726275,1,0,93,0,4
11,61,603.707503993064,1,0,537462.525829663,537463.572891707,1,1,63,4,8
11,62,491.962530883029,0,0,537465.290562946,537466.337635384,1,0,78,4,0
11,63,427.730007329956,1,0,537468.02001904,537469.067084934,1,1,74,8,16
11,64,526.974480017088,0,0,537470.690643634,537471.737721461,1,0,63,16,16
11,65,801.528154639527,0,0,537473.325980261,537474.373052698,1,0,92,8,4
11,66,436.462495359592,1,0,537476.373084265,537477.420164402,1,1,95,4,4
11,67,531.417331658304,1,0,537478.879014227,537479.92608166,1,1,81,0,4
11,68,487.786843325011,1,0,537481.596706639,537482.643776766,1,1,82,0,0
11,69,694.728024071082,1,0,537484.302625744,537485.349701261,1,1,67,4,8
11,70,718.882877496071,1,0,537487.149730981,537488.196794564,1,1,67,16,8
11,71,703.337324201129,0,0,537490.032111865,537491.079183533,1,0,94,16,0
11,72,464.026576257311,1,0,537492.926279146,537493.973358897,1,1,84,16,0
11,73,378.311608685181,1,0,537495.643971557,537496.691052849,1,1,86,0,16
11,74,533.030709251761,1,0,537498.23225076,537499.279324352,1,1,93,0,16
11,75,401.182227418758,0,0,537500.879404964,537501.926426586,1,0,76,0,4
11,76,536.456489935517,1,1,537503.34997497,537504.397048177,1,0,100,16,8
11,77,447.361167171039,1,0,537505.997066424,537507.044146176,1,1,87,16,4
11,78,787.740339757875,0,0,537508.620645528,537509.667725665,1,0,70,16,8
11,79,624.793436960317,0,0,537511.585399907,537512.632470804,1,0,93,8,0
11,80,642.87127321586,1,0,537514.279560334,537515.326630847,1,1,92,4,0
11,81,2500,-1,-1,537550.162467848,537551.209541825,2,1,89,16,4
11,82,532.536032493226,1,0,537555.315487339,537556.362563627,2,1,77,16,0
11,83,463.868356775492,0,0,537557.986118863,537559.033197075,2,0,74,0,0
11,84,1531.76379774231,0,0,537560.539099319,537561.586222956,2,0,96,4,8
11,85,976.050878176466,1,0,537564.197977554,537565.24506077,2,1,93,0,16
11,86,1238.45321324188,1,0,537567.327439653,537568.374511706,2,1,61,8,16
11,87,944.161744206212,0,0,537570.76279291,537571.809864193,2,0,99,16,8
11,88,619.512522127479,1,0,537573.939304735,537574.986381407,2,1,89,4,16
11,89,465.469030546956,1,0,537576.786411126,537577.833483564,2,1,67,16,16
11,90,748.277069767937,0,0,537579.32762559,537580.374704187,2,0,100,16,16
11,91,485.09210604243,0,0,537582.221786711,537583.268867618,2,0,83,8,0
11,92,421.96057527326,0,0,537584.763005025,537585.810075922,2,0,62,4,16
11,93,516.433438519016,0,0,537587.292454266,537588.339524779,2,0,86,16,4
11,94,385.043061920442,1,0,537590.033674428,537591.080746481,2,1,76,8,16
11,95,428.598867612891,0,0,537592.551358448,537593.598433195,2,0,74,4,16
11,96,480.058722198009,0,0,537595.127874738,537596.174952565,2,0,70,0,4
11,97,427.399324602447,1,0,537597.810263399,537598.857336222,2,1,77,8,8
11,98,508.905882830732,0,0,537600.433877149,537601.48091648,2,0,92,0,16
11,99,643.392127356492,1,0,537603.116234244,537604.163306296,2,1,80,4,0
11,100,520.328103448264,1,0,537606.010393439,537607.057462797,2,1,88,4,8
11,101,552.73770657368,0,0,537608.728085851,537609.775155979,2,0,68,16,16
11,102,661.227822303772,1,0,537611.516357278,537612.56343318,2,1,76,0,4
11,103,421.649140655063,0,0,537614.328165692,537615.37524121,2,0,76,4,0
11,104,532.474823412485,0,0,537616.834314313,537617.881154233,2,0,61,0,4
11,105,666.926806326956,0,0,537619.445893367,537620.493000066,2,0,90,0,0
11,106,634.489485993981,1,0,537622.281222217,537623.328309668,2,1,82,0,4
11,107,514.782719546929,1,0,537625.151869832,537626.19893919,2,1,65,16,8
11,108,652.430660557002,1,0,537627.893083064,537628.940155887,2,1,86,16,4
11,109,689.014796400443,1,0,537630.775477423,537631.82255294,2,1,77,8,8
11,110,577.76834955439,0,0,537633.516696044,537634.563783881,2,0,72,16,0
11,111,581.663784570992,1,0,537636.210906517,537637.257935839,2,1,88,8,8
11,112,597.856459789909,0,0,537639.022675281,537640.069741559,2,0,72,8,16
11,113,567.153010284528,0,0,537641.681533498,537642.728602856,2,0,89,0,0
11,114,638.961979537271,1,0,537644.434515802,537645.481592859,2,1,92,16,4
11,115,746.507012518123,1,0,537647.316933258,537648.363987988,2,1,100,8,4
11,116,499.526272993535,1,0,537650.211075901,537651.258148723,2,1,69,0,8
11,117,631.899073603563,1,0,537652.787587571,537653.834667323,2,1,100,4,16
11,118,647.793018026277,0,0,537655.481755313,537656.528819282,2,0,81,4,0
11,119,444.945912691765,1,0,537658.293561033,537659.340635396,2,1,63,0,8
11,120,576.592674362473,0,0,537660.928891886,537661.975961244,2,0,89,4,4
11,121,746.42694031354,0,0,537663.728939698,537664.776004436,2,0,81,8,4
11,122,684.236642555334,0,0,537666.564274708,537667.61134676,2,0,86,4,0
11,123,677.699210355058,1,0,537669.446712182,537670.493743429,2,1,80,16,8
11,124,582.112650736235,0,0,537672.270243473,537673.317310906,2,0,79,16,16
11,125,501.44608062692,0,0,537675.034986765,537676.082070751,2,0,87,4,4
11,126,658.194703282788,0,0,537677.729152197,537678.776221555,2,0,61,16,0
11,127,560.948185622692,0,0,537680.623314088,537681.670384986,2,0,63,0,16
11,128,442.293906467967,1,0,537683.435115573,537684.482195325,2,1,65,4,16
11,129,623.313641292043,1,0,537686.046927145,537687.094004972,2,1,81,8,4
11,130,634.923338657245,0,0,537688.88226177,537689.929339982,2,0,97,8,4
11,131,686.593382619321,1,0,537691.658781448,537692.705849266,2,1,74,16,0
11,132,659.038540907204,0,0,537694.58823169,537695.635311057,2,0,86,16,16
11,133,441.781521541998,0,0,537697.329456471,537698.37652352,2,0,78,0,8
11,134,704.040265525691,1,0,537699.953022486,537701.000085685,2,1,94,0,16
11,135,414.360261755064,1,0,537702.870722136,537703.917792263,2,1,85,8,8
11,136,578.281504567713,0,0,537705.411933135,537706.458993639,2,0,69,8,0
11,137,609.097363078035,0,0,537708.106097412,537709.153163306,2,0,71,8,0
11,138,597.288640215993,1,0,537710.870843399,537711.917911217,2,1,96,4,4
11,139,585.588091751561,1,0,537713.588529266,537714.635607863,2,1,90,16,8
11,140,466.099984012544,0,0,537716.365046634,537717.412125231,2,0,90,0,8
11,141,558.924823068082,0,0,537718.9180294,537719.965100683,2,0,71,16,0
11,142,665.680682985112,1,0,537721.65926958,537722.706322769,2,1,90,0,16
11,143,483.81441575475,1,0,537724.412247649,537725.459308923,2,1,67,4,8
11,144,547.256611404009,1,0,537727.141698354,537728.188761168,2,1,98,0,0
11,145,374.27258270327,0,0,537729.847605911,537730.894682583,2,0,62,0,0
11,146,513.578172074631,0,0,537732.412351974,537733.459423257,2,0,74,16,8
11,147,417.178571806289,0,0,537735.09474718,537736.141823467,2,0,67,4,8
11,148,629.452637280338,0,0,537737.706550282,537738.753625415,2,0,93,16,4
11,149,637.238502735272,1,0,537740.494829023,537741.541906465,2,1,92,8,16
11,150,447.086303960532,1,0,537743.247899868,537744.294885689,2,1,76,4,4
11,151,647.746052592993,1,0,537745.777275197,537746.824351485,2,1,80,4,0
11,152,948.449071031064,1,0,537748.671425539,537749.718497207,2,1,80,8,4
11,153,511.154448497109,1,0,537751.812648241,537752.859731458,2,1,100,8,0
11,154,450.105564435944,0,0,537754.506813289,537755.553891116,2,0,73,0,8
11,155,574.876511702314,1,0,537757.095092106,537758.142168778,2,1,92,4,4
11,156,577.208999195136,0,0,537759.777481922,537760.82455513,2,0,95,0,4
11,157,549.012425006367,1,0,537762.565765282,537763.612839645,2,1,94,4,8
11,158,410.470601171255,0,0,537765.189331682,537766.236398345,2,0,85,8,0
11,159,508.508601575159,1,0,537767.695252019,537768.742327537,2,1,95,8,8
11,160,715.696928324178,0,0,537770.40117459,537771.448250492,2,0,79,8,16
11,161,582.514936570078,1,0,537806.389969873,537807.437043465,3,1,84,16,16
11,162,507.707494776696,0,0,537809.095907457,537810.142969115,3,0,88,0,16
11,163,590.76237201225,0,0,537811.707722493,537812.754779532,3,0,63,16,4
11,164,551.025008666329,1,0,537814.378328224,537815.425401431,3,1,74,16,16
11,165,414.638974587433,1,0,537817.154846746,537818.201918799,3,1,66,0,16
11,166,673.250969382934,0,0,537819.684290599,537820.731365346,3,0,93,4,0
11,167,477.621909929439,0,0,537822.554925895,537823.601997562,3,0,83,16,0
11,168,481.297916267067,0,0,537825.202023509,537826.249095177,3,0,66,4,16
11,169,440.598916844465,1,0,537827.766768032,537828.813844705,3,1,84,0,8
11,170,581.211453769356,0,0,537830.402108509,537831.449184411,3,0,94,4,16
11,171,967.041987110861,1,0,537833.049204198,537834.096273941,3,1,79,8,4
11,172,592.438113410026,0,0,537836.272787305,537837.319860513,3,0,91,4,8
11,173,588.07687391527,1,0,537839.096361712,537840.14343646,3,1,73,4,8
11,174,1158.89071533456,1,0,537841.849346326,537842.89640914,3,1,91,16,4
11,175,453.965582884848,0,0,537845.108213551,537846.155285219,3,0,76,8,0
11,176,387.129558366723,0,0,537847.767076772,537848.814156524,3,0,76,8,8
11,177,642.139074625447,1,0,537850.367126971,537851.414194405,3,1,100,4,16
11,178,392.188349738717,0,0,537853.073030678,537854.120130833,3,0,66,0,8
11,179,499.320702976547,1,0,537855.637790985,537856.684868043,3,1,83,8,8
11,180,716.718618641607,1,0,537858.26136316,537859.308441757,3,1,86,16,8
11,181,711.463496438228,1,0,537861.190816867,537862.237889305,3,1,97,0,8
11,182,778.569764457643,1,0,537864.002647995,537865.04969849,3,1,80,16,4
11,183,783.044567913748,1,0,537866.88502349,537867.932142893,3,1,62,16,8
11,184,718.505999306217,0,0,537869.908601285,537870.955669103,3,0,66,8,16
11,185,626.769449096173,1,0,537872.76746135,537873.814548801,3,1,98,8,16
11,186,973.195611848496,0,0,537875.591038837,537876.638115124,3,0,96,8,16
11,187,967.819611309096,1,0,537878.638144381,537879.685221438,3,1,73,16,4
11,188,838.315165718086,0,0,537881.802902532,537882.849973815,3,0,64,8,16
11,189,519.853829755448,1,0,537884.885298738,537885.932374641,3,1,83,16,8
11,190,719.553097034805,0,0,537887.520637675,537888.567710113,3,0,70,16,16
11,191,838.225854444318,0,0,537890.414794946,537891.461870078,3,0,94,4,4
11,192,812.345599289984,1,0,537893.367788337,537894.414858465,3,1,86,4,4
11,193,805.228798650205,1,0,537896.367833762,537897.414900426,3,1,62,8,4
11,194,1707.77748094406,1,0,537899.25023428,537900.297306718,3,1,65,4,16
11,195,2847.68399666063,0,0,537903.156172172,537904.203256159,3,0,65,4,4
11,196,1242.87989642471,1,0,537908.168011307,537909.215125706,3,1,88,8,4
11,197,673.096984392032,1,0,537911.532773616,537912.579847208,3,1,93,8,0
11,198,724.225771264173,1,0,537914.39163599,537915.438716897,3,1,65,0,4
11,199,942.389762261882,1,0,537917.344627841,537918.391694505,3,1,81,8,8
11,200,438.005424803123,1,0,537920.379970088,537921.427059849,3,1,64,16,8
11,201,1289.70210836269,0,0,537922.968234277,537924.015305945,3,0,70,0,8
11,202,1454.0903106099,1,0,537926.450654197,537927.497721631,3,1,74,16,0
11,203,856.986229075119,0,0,537930.050711711,537931.097777604,3,0,86,16,16
11,204,489.304750110023,0,0,537933.121333071,537934.168413978,3,0,78,0,16
11,205,568.058441975154,1,0,537935.697847821,537936.744923339,3,1,71,4,0
11,206,394.371856818907,0,0,537938.380246107,537939.427317389,3,0,86,0,4
11,207,580.353757366538,1,0,537940.827345722,537941.874412386,3,1,83,4,0
11,208,372.531782486476,0,0,537943.592150223,537944.639163762,3,0,63,16,16
11,209,431.893376167864,0,0,537946.109775729,537947.156853171,3,0,77,0,8
11,210,553.50339692086,0,0,537948.792179018,537949.839242602,3,0,91,4,0
11,211,691.033924464136,1,0,537951.427506791,537952.474577689,3,1,75,8,0
11,212,893.057595007122,0,0,537954.321668296,537955.368741889,3,0,94,4,4
11,213,884.293540031649,1,0,537957.392298896,537958.439374028,3,1,65,0,16
11,214,854.814271093346,1,0,537960.474705881,537961.521821049,3,1,91,16,0
11,215,1763.40724877082,1,0,537963.404153814,537964.451245115,3,1,81,8,4
11,216,1366.39894580003,0,0,537967.263043906,537968.310118653,3,0,72,8,8
11,217,1323.46831914037,0,0,537970.768980412,537971.81604823,3,0,91,8,0
11,218,899.713210645132,0,0,537974.286685219,537975.333768051,3,0,97,8,16
11,219,1796.80851497687,0,0,537977.39261187,537978.439724344,3,0,67,4,16
11,220,1002.05932580866,0,0,537981.298557461,537982.345630669,3,0,80,0,16
11,221,441.710688406602,0,0,537984.486837972,537985.533917724,3,0,90,0,4
11,222,630.039704963565,1,0,537987.004524302,537988.051651019,3,1,98,8,4
11,223,691.43582531251,0,0,537989.733982321,537990.781050524,3,0,65,16,4
11,224,1075.63180814032,1,0,537992.651673886,537993.698741704,3,1,74,0,0
11,225,2562.38332553767,0,0,537995.887015286,537996.934085414,3,0,99,16,0
11,226,916.149567230605,1,0,538000.581205741,538001.628278948,3,1,81,0,4
11,227,469.273229362443,0,0,538003.745949263,538004.793040179,3,0,90,0,0
11,228,666.568406275474,1,0,538006.404823264,538007.451898396,3,1,77,4,8
11,229,545.719456276856,1,0,538009.310743447,538010.357829743,3,1,95,16,0
11,230,505.5366915185,0,0,538012.016676411,538013.063750004,3,0,93,4,8
11,231,560.062772012316,0,0,538014.593187697,538015.640263214,3,0,96,4,0
11,232,456.809685449116,0,0,538017.334469068,538018.381478371,3,0,75,0,0
11,233,427.466693101451,1,0,538019.910914909,538020.957989272,3,1,66,8,8
11,234,902.835256187245,1,0,538022.440428055,538023.487435819,3,1,86,0,0
11,235,596.406691242009,1,0,538025.522767287,538026.569842804,3,1,71,0,4
11,236,797.616166295484,1,0,538028.228692937,538029.27576345,3,1,100,4,8
11,237,1240.45771267265,0,0,538031.075787394,538032.122871766,3,0,94,8,0
11,238,1027.70013432018,0,0,538034.499377739,538035.546464805,3,0,86,4,4
11,239,1195.98261662759,0,0,538037.711192159,538038.758269986,3,0,100,0,0
11,240,712.475562701002,0,0,538041.146535792,538042.193609385,3,0,73,16,8
11,241,603.10927242972,0,0,538077.064740127,538078.111803326,4,0,92,0,0
11,242,462.209553574212,0,0,538079.923602117,538080.970682253,4,0,65,8,0
11,243,582.524560624734,0,0,538082.535412918,538083.582485356,4,0,82,0,8
11,244,582.11996499449,0,0,538085.323693969,538086.370759862,4,0,93,0,16
11,245,887.648872681893,0,0,538088.100202098,538089.147276845,4,0,71,0,16
11,246,592.210215632804,1,0,538091.088498469,538092.135559358,4,1,74,0,0
11,247,567.867115605623,0,0,538093.865016222,538094.912129466,4,0,98,0,16
11,248,561.000540503301,0,0,538096.571006931,538097.618003916,4,0,61,16,8
11,249,442.559915594757,1,0,538099.265081897,538100.312150485,4,1,65,16,4
11,250,555.137562565506,1,0,538101.935713805,538102.982780468,4,1,72,0,8
11,251,926.618235884234,1,0,538104.712228478,538105.759295526,4,1,90,16,0
11,252,684.9226456834,0,0,538107.735799344,538108.782921441,4,0,77,4,16
11,253,1186.98180967476,0,0,538110.547608914,538111.594683661,4,0,97,16,4
11,254,1216.95075102616,0,0,538113.888890823,538114.935910521,4,0,92,16,16
11,255,1600.58237891644,0,0,538117.324219827,538118.371250689,4,0,61,4,8
11,256,1482.65259910841,1,0,538121.0301193,538122.077192892,4,1,70,8,4
11,257,2433.43784555327,0,0,538124.583120544,538125.630191827,4,0,64,16,0
11,258,749.005418736488,1,0,538129.206716201,538130.253800187,4,1,79,0,4
11,259,549.30153186433,1,0,538132.183234262,538133.230307085,4,1,77,4,8
11,260,949.652463663369,1,0,538134.795028125,538135.842112882,4,1,72,16,8
11,261,1380.56748860981,1,0,538137.948025674,538138.995102346,4,1,65,16,16
11,262,1287.91049309075,1,0,538141.571608627,538142.618726105,4,1,63,0,0
11,263,1165.50513997208,1,0,538144.959897916,538146.006975743,4,1,72,0,8
11,264,1051.48542381357,1,0,538148.207005693,538149.25408275,4,1,87,4,16
11,265,2284.08050187863,0,0,538151.348237634,538152.395314306,4,0,88,4,0
11,266,2054.7964858124,0,0,538155.830656399,538156.877741926,4,0,78,8,8
11,267,846.578384516761,0,0,538159.97189527,538161.018967323,4,0,73,16,4
11,268,975.409145816229,1,0,538162.971941081,538164.019020833,4,1,66,4,8
11,269,1814.5741467597,1,0,538166.124930545,538167.172005292,4,1,82,8,4
11,270,900.147063424811,0,0,538170.066173727,538171.113235771,4,0,80,16,0
11,271,848.599052405916,0,0,538173.19565777,538174.24270249,4,0,94,0,4
11,272,2016.00497530308,0,0,538176.219206693,538177.2662799,4,0,85,8,16
11,273,1609.87614223268,0,0,538180.407506067,538181.45457966,4,0,85,8,0
11,274,680.504046729766,0,0,538184.195798281,538185.242871489,4,0,66,4,8
11,275,1292.28251171298,1,0,538186.995843014,538188.042918531,4,1,67,16,8
11,276,932.938934187405,0,0,538190.419436823,538191.466504641,4,0,93,16,16
11,277,1252.17250478454,1,0,538193.595943258,538194.643014541,4,1,90,8,4
11,278,925.171931972727,1,0,538196.901878686,538197.948951124,4,1,99,16,4
11,279,1633.37001507171,1,0,538199.960746758,538201.007818426,4,1,82,8,16
11,280,1734.00381731335,1,0,538203.737343813,538204.784351192,4,1,65,16,0
11,281,2311.26500968821,1,0,538207.713812984,538208.760882342,4,1,63,8,8
11,282,2669.03486067895,0,0,538212.207998126,538213.255065559,4,0,78,0,8
11,283,1836.88541513402,0,0,538217.055131465,538218.102207367,4,0,99,8,4
11,284,1372.50137049705,1,0,538221.031655685,538222.078732742,4,1,69,8,16
11,285,1353.76062884461,0,0,538224.561116861,538225.608216246,4,0,62,0,8
11,286,859.185134642757,1,0,538228.078832062,538229.12590065,4,1,82,8,0
11,287,645.142551627941,0,0,538231.125920283,538232.17300273,4,0,79,4,4
11,288,1564.35240851715,0,0,538233.996570593,538235.043641106,4,0,96,16,16
11,289,914.341013645753,0,0,538237.643697849,538238.690769902,4,0,95,4,0
11,290,1361.7066385923,1,0,538240.726083662,538241.773154944,4,1,77,8,8
11,291,869.10369200632,1,0,538244.149650908,538245.196759147,4,1,96,8,16
11,292,599.643840454519,1,0,538247.173239482,538248.22030961,4,1,99,4,16
11,293,1842.31800516136,0,0,538249.867394905,538250.914473117,4,0,84,16,0
11,294,1426.91696668044,1,0,538253.949874264,538254.996893961,4,1,95,4,4
11,295,2139.6233451087,1,0,538257.479278465,538258.526367841,4,1,61,4,0
11,296,476.70839400962,0,0,538261.797004908,538262.844118921,4,0,96,0,16
11,297,551.44038319122,1,0,538264.385272176,538265.432346539,4,1,64,8,0
11,298,1054.02579100337,1,0,538267.114709407,538268.161793779,4,1,76,4,16
11,299,1874.60826989263,1,0,538270.244180746,538271.291251259,4,1,92,16,4
11,300,1314.95795433875,0,0,538274.22071382,538275.267783563,4,0,70,8,8
11,301,1421.76039482001,0,0,538277.656063228,538278.70313451,4,0,71,8,16
11,302,768.821745412424,1,0,538281.326702835,538282.373777968,4,1,96,8,8
11,303,704.549570917152,1,0,538284.314996512,538285.362057016,4,1,77,0,16
11,304,880.471632932313,1,0,538287.103268708,538288.150341916,4,1,71,0,0
11,305,834.63338483125,1,0,538290.068005764,538291.115077816,4,1,80,16,8
11,306,1773.56255799532,1,0,538293.162181051,538294.209255798,4,1,68,16,16
11,307,447.989040869288,1,0,538297.138787268,538298.185785793,4,1,97,4,0
11,308,959.948669071309,1,0,538299.750539171,538300.797594285,4,1,62,0,4
11,309,445.601118961349,1,0,538302.927036367,538303.974113424,4,1,64,8,0
11,310,888.412253232673,0,0,538305.57413937,538306.621209883,4,0,79,0,0
11,311,1640.96763392445,0,0,538308.609470068,538309.656550975,4,0,79,4,4
11,312,1012.0887523517,0,0,538312.315416506,538313.362488944,4,0,99,0,4
11,313,1001.01107300725,1,0,538315.515465704,538316.562544686,4,1,74,4,0
11,314,1097.42568677757,0,0,538318.633163352,538319.68023425,4,0,98,4,8
11,315,1123.40372242033,0,0,538321.844969303,538322.8920479,4,0,65,16,8
11,316,798.251354368404,0,0,538325.092083625,538326.139162222,4,0,86,4,4
11,317,2022.11124950554,0,0,538328.033354139,538329.080375377,4,0,88,8,4
11,318,2507.14236986823,0,0,538332.245130448,538333.292202116,4,0,94,0,4
11,319,2118.39651595801,1,0,538336.856981671,538337.904056419,4,1,82,4,4
11,320,1258.57673992869,0,0,538341.127685336,538342.174692715,4,0,99,4,16
11,321,2618.26408887282,0,0,538377.598772732,538378.645844785,5,0,66,8,8
11,322,645.434353151359,0,0,538382.363546436,538383.410618873,5,0,78,8,8
11,323,775.89812502265,1,0,538385.140065343,538386.187137781,5,1,75,0,8
11,324,1783.43337995466,0,0,538388.069519821,538389.116596878,5,0,85,0,8
11,325,1762.48410879634,1,0,538391.975465412,538393.02253554,5,1,62,4,8
11,326,2134.63230698835,0,0,538395.987288378,538397.034363126,5,0,68,16,8
11,327,1000.30967150815,0,0,538400.269741482,538401.316785818,5,0,80,4,8
11,328,590.790859190747,1,0,538403.399165086,538404.446266396,5,1,100,16,8
11,329,1661.35678475257,1,0,538406.081564911,538407.128632344,5,1,78,8,16
11,330,805.975240771659,1,0,538409.811092223,538410.858111921,5,1,62,16,4
11,331,1973.85004791431,1,0,538412.716957357,538413.764031719,5,1,80,0,0
11,332,2509.79861081578,1,0,538416.91706122,538417.964094776,5,1,81,0,4
11,333,2370.63507258426,1,0,538421.517169163,538422.564164223,5,1,80,4,4
11,334,2155.84566234611,1,0,538426.034807757,538427.081888664,5,1,64,8,8
11,335,1736.21927620843,1,0,538430.352515722,538431.399597014,5,1,77,16,0
11,336,2155.60467599425,1,0,538434.176107067,538435.223183739,5,1,91,8,8
11,337,605.875997454859,1,0,538438.493818881,538439.54093636,5,1,98,16,0
11,338,1141.15395571571,1,0,538441.211504749,538442.258583731,5,1,66,16,16
11,339,2025.56821226608,0,0,538444.529206554,538445.576280146,5,0,63,8,16
11,340,1561.29927141592,0,0,538448.623388001,538449.670462363,5,0,99,0,4
11,341,1081.53443713672,1,0,538452.246980963,538453.294050706,5,1,68,8,0
11,342,853.843780700117,1,0,538455.411727565,538456.458832725,5,1,71,8,0
11,343,1184.29554183967,1,0,538458.32941913,538459.376492338,5,1,90,8,8
11,344,1237.1297122445,0,0,538461.682418527,538462.729490579,5,0,76,0,0
11,345,478.558138594963,1,0,538465.105994242,538466.153068605,5,1,100,16,8
11,346,576.041793101467,0,0,538467.788385213,538468.835461501,5,0,80,4,0
11,347,2312.40642326884,1,0,538470.447250745,538471.494321642,5,1,69,16,0
11,348,445.905624190345,1,0,538474.929672204,538475.976751186,5,1,100,8,0
11,349,601.315732346848,0,0,538477.506187725,538478.553264397,5,0,81,8,4
11,350,1120.83140341565,0,0,538480.341519655,538481.388590167,5,0,91,0,4
11,351,2689.23653487582,1,0,538483.706308141,538484.753352476,5,1,78,4,4
11,352,1528.72220950667,0,0,538488.635765698,538489.682841985,5,0,96,16,0
11,353,2221.27926873509,0,0,538492.377058232,538493.424068691,5,0,65,4,0
11,354,729.612550698221,0,0,538496.800634718,538497.847708696,5,0,95,16,16
11,355,504.99543431215,0,0,538499.659463601,538500.706565296,5,0,76,8,16
11,356,530.249355593696,0,0,538502.235966032,538503.283045784,5,0,98,8,4
11,357,1134.05062875245,0,0,538504.918365858,538505.96544099,5,0,76,0,8
11,358,2118.26639866922,0,0,538508.283121622,538509.330192905,5,0,73,16,0
11,359,1547.34823247418,0,0,538512.647894325,538513.694973692,5,0,95,4,0
11,360,1349.24771403894,1,0,538516.247951068,538517.295021581,5,1,68,16,4
11,361,509.298544609919,0,0,538519.800947693,538520.848012431,5,0,71,0,8
11,362,399.530738475733,0,0,538522.459808219,538523.506880657,5,0,66,16,4
11,363,678.466825513169,1,0,538525.012803304,538526.059861883,5,1,95,8,4
11,364,516.661721165292,0,0,538527.930528361,538528.977553063,5,0,74,16,16
11,365,560.371126863174,0,0,538530.671685004,538531.718772455,5,0,83,4,8
11,366,647.303345729597,1,0,538533.459984917,538534.50705543,5,1,89,16,16
11,367,626.792931812815,1,0,538536.236491506,538537.283565484,5,1,82,0,8
11,368,927.707679453306,1,0,538539.036534314,538540.083610986,5,1,79,16,8
11,369,539.95040920563,0,0,538542.201314793,538543.248366443,5,0,74,0,4
11,370,467.867731465958,1,0,538544.954297097,538546.001353366,5,1,99,0,0
11,371,695.939885801636,0,0,538547.660259703,538548.707277091,5,0,90,4,0
11,372,465.477884747088,0,0,538550.589646812,538551.636729644,5,0,94,16,8
11,373,789.747918955982,1,0,538553.260289114,538554.307362707,5,1,61,16,4
11,374,611.364022130147,1,0,538556.189736278,538557.236811025,5,1,87,0,16
11,375,575.007783947513,0,0,538558.88389786,538559.930967988,5,0,76,16,16
11,376,610.677249031141,0,0,538561.719240569,538562.766314162,5,0,97,4,4
11,377,576.089143520221,0,0,538564.436953769,538565.484006574,5,0,61,4,16
11,378,923.685592017137,1,0,538567.178169311,538568.225274086,5,1,100,0,16
11,379,2533.51191221736,1,0,538570.319369686,538571.366437119,5,1,89,8,0
11,380,570.199218112975,1,0,538575.06061333,538576.107691927,5,1,61,0,16
11,381,682.425009319559,1,0,538577.813597944,538578.860671536,5,1,100,4,8
11,382,714.353794348426,0,0,538580.57834701,538581.62574782,5,0,70,4,4
11,383,521.303598419763,1,0,538583.366629985,538584.413703192,5,1,76,0,16
11,384,887.252361280844,0,0,538586.025487432,538587.072563719,5,0,69,8,16
11,385,482.769242720678,0,0,538589.049072156,538590.096136124,5,0,67,4,4
11,386,726.803864701651,1,0,538591.755022443,538592.802125678,5,1,95,8,4
11,387,441.098598064855,1,0,538594.578554505,538595.625632717,5,1,85,4,16
11,388,437.894170754589,1,0,538597.166834862,538598.213967739,5,1,87,0,0
11,389,560.083559947088,1,0,538599.672753659,538600.719838031,5,1,69,0,0
11,390,426.75297264941,1,0,538602.41398383,538603.461071281,5,1,65,4,0
11,391,486.461417516693,0,0,538605.096393279,538606.143440309,5,0,85,4,8
11,392,683.177995961159,0,0,538607.837586493,538608.884656621,5,0,93,8,4
11,393,559.397171949968,0,0,538610.649395678,538611.696470811,5,0,78,0,4
11,394,660.836315480992,0,0,538613.425903807,538614.473002807,5,0,62,16,4
11,395,571.731368545443,1,0,538616.320066468,538617.367142755,5,1,96,8,0
11,396,455.36530634854,1,0,538619.014228435,538620.061299718,5,1,66,4,16
11,397,612.771059735678,0,0,538621.6378418,538622.684879206,5,0,91,8,16
11,398,377.491638530046,0,0,538624.32019697,538625.367268253,5,0,66,4,16
11,399,702.491176663898,0,0,538626.884978065,538627.932029329,5,0,90,0,16
11,400,570.197678171098,0,0,538629.661453087,538630.708524755,5,0,74,4,16
11,401,2923.71407919563,1,0,538665.438466672,538666.485563747,6,1,90,16,16
11,402,968.265012837946,0,0,538670.462078728,538671.509148856,6,0,81,0,8
11,403,622.397430590354,1,0,538673.568005379,538674.615077431,6,1,67,8,16
11,404,666.992250015028,1,0,538676.262242799,538677.309240554,6,1,99,4,8
11,405,1338.38368894067,0,0,538679.132801487,538680.179868535,6,0,100,8,8
11,406,768.551886780187,1,0,538682.544611981,538683.591686343,6,1,94,4,4
11,407,1669.88947731443,1,0,538685.403490139,538686.450556802,6,1,84,0,4
11,408,663.161873701029,1,0,538689.321190943,538690.368259146,6,1,100,16,16
11,409,1053.39753220323,1,0,538692.085940394,538693.133009367,6,1,97,16,8
11,410,937.774447374977,0,0,538695.321282949,538696.368408511,6,0,96,8,16
11,411,1003.86710942257,0,0,538698.474323228,538699.521372568,6,0,89,16,8
11,412,747.443626169115,1,0,538701.650787317,538702.69786091,6,1,93,16,0
11,413,475.833759410307,0,0,538704.533179751,538705.580264508,6,0,74,0,0
11,414,489.589622360654,0,0,538707.262638925,538708.309709438,6,0,64,16,0
11,415,812.50497372821,0,0,538709.909740389,538710.956811287,6,0,66,4,8
11,416,1204.99458746053,1,0,538712.85094623,538713.898023672,6,1,84,0,8
11,417,850.650517269969,1,0,538716.133373156,538717.180437895,6,1,96,8,16
11,418,970.691816066392,0,0,538719.192250467,538720.239314051,6,0,79,0,8
11,419,1089.95587565005,1,0,538722.309929637,538723.356996685,6,1,83,8,4
11,420,963.903773226775,0,1,538725.498217077,538726.545286435,6,1,87,16,4
11,421,569.376553292386,0,0,538728.686499128,538729.733572336,6,0,63,0,16
11,422,1054.45040448103,0,0,538731.333597513,538732.380666486,6,0,97,4,0
11,423,2193.99852014612,0,0,538734.463056148,538735.510150143,6,0,97,16,4
11,424,530.743647366762,0,0,538738.816119833,538739.86314107,6,0,69,4,4
11,425,1229.45664089639,0,0,538741.451391786,538742.498469613,6,0,78,16,16
11,426,642.257643048652,0,0,538744.898513729,538745.945581162,6,0,88,4,16
11,427,1108.63425338175,0,0,538747.616199597,538748.663268955,6,0,76,8,0
11,428,1049.22646423802,1,0,538750.804480878,538751.851556395,6,1,73,16,4
11,429,678.283583372831,1,0,538754.098650314,538755.145720442,6,1,91,4,0
11,430,1372.19763500616,1,0,538756.945754395,538757.992822984,6,1,69,16,0
11,431,612.020767875947,1,0,538760.451689361,538761.498766804,6,1,73,0,8
11,432,592.711821664125,1,0,538763.28703438,538764.334105278,6,1,74,0,0
11,433,1025.60940326657,0,0,538765.981185184,538767.028261086,6,0,80,8,4
11,434,2057.81921080779,1,0,538769.193063508,538770.240073967,6,1,66,0,4
11,435,595.763803925365,1,0,538773.451925343,538774.499025113,6,1,88,0,0
11,436,618.773009162396,1,0,538776.14604997,538777.193120098,6,1,94,4,4
11,437,538.352429983206,1,0,538778.887265127,538779.934336794,6,1,62,16,4
11,438,776.484037865885,0,0,538781.546121419,538782.593203865,6,0,61,16,0
11,439,710.338636068627,0,0,538784.487350742,538785.53442395,6,0,83,0,4
11,440,594.200856401585,0,0,538787.381516098,538788.428585456,6,0,90,4,16
11,441,637.520680204034,1,0,538790.110967572,538791.158041935,6,1,98,4,0
11,442,1183.18608007394,1,0,538792.840418662,538793.887493409,6,1,96,0,16
11,443,566.028149914928,1,0,538796.22876685,538797.275783083,6,1,73,8,4
11,444,938.641382846981,0,0,538798.864039958,538799.91111047,6,0,99,8,4
11,445,573.308944702148,1,0,538802.052319699,538803.099400991,6,1,62,8,16
11,446,508.738809148781,1,0,538804.781789267,538805.828844381,6,1,93,4,0
11,447,694.005064549856,1,0,538807.440704843,538808.487717227,6,1,61,8,16
11,448,1021.04336372577,1,0,538810.346573827,538811.393647419,6,1,95,4,4
11,449,569.687987910584,0,0,538813.593680064,538814.640763665,6,0,75,0,4
11,450,1308.6622786941,0,0,538816.393731726,538817.440799544,6,0,73,4,4
11,451,1398.22802552953,0,0,538819.817303592,538820.864377955,6,0,80,0,16
11,452,1005.71300438605,0,0,538823.452657542,538824.499727285,6,0,99,8,8
11,453,1658.77330175135,0,0,538826.605643927,538827.652731378,6,0,90,4,8
11,454,1031.71182784718,1,0,538830.511589133,538831.558657336,6,1,71,0,8
11,455,1757.91267980821,1,0,538833.723405093,538834.77048061,6,1,88,0,16
11,456,1415.54440616164,1,0,538837.605802916,538838.652883053,6,1,98,16,8
11,457,512.439068057574,1,0,538841.15880955,538842.205880448,6,1,77,16,8
11,458,471.788189024664,1,0,538843.770608033,538844.8176874,6,1,66,4,8
11,459,524.295526440255,0,0,538846.347118163,538847.3941983,6,0,88,4,8
11,460,830.740644596517,0,0,538849.123638611,538850.170714898,6,0,82,16,16
11,461,1028.2279177336,0,0,538852.064859081,538853.111930748,6,0,63,8,0
11,462,518.334768014029,0,0,538855.159075944,538856.206089097,6,0,62,16,0
11,463,490.00499676913,0,0,538857.759061084,538858.806135062,6,0,86,4,16
11,464,546.008563018404,0,0,538860.453216123,538861.500296644,6,0,89,8,4
11,465,1140.51183837,0,0,538863.135617872,538864.182688385,6,0,77,0,0
11,466,1213.49686791655,1,0,538866.335666686,538867.382736429,6,1,63,4,0
11,467,1186.44786684308,1,0,538869.688655688,538870.735729666,6,1,79,8,0
11,468,2500,-1,-1,538872.971050663,538874.018133879,6,0,92,4,16
11,469,684.30516589433,0,0,538878.135846155,538879.182913203,6,0,98,16,8
11,470,593.752760090865,0,0,538881.01828055,538882.065319881,6,0,71,8,8
11,471,641.435363213532,1,0,538883.747687754,538884.79477482,6,1,96,8,0
11,472,906.669482123107,0,0,538886.571273325,538887.618356541,6,0,69,4,16
11,473,681.335950503126,1,0,538889.559552373,538890.606621731,6,1,61,16,16
11,474,802.839336683974,0,0,538892.383128705,538893.430213847,6,0,62,8,8
11,475,1035.99645989016,0,0,538895.336165597,538896.383180675,6,0,69,8,0
11,476,667.390685994178,0,0,538898.5596925,538899.606762243,6,0,88,0,0
11,477,1308.72772214934,1,0,538901.39502597,538902.442143448,6,1,73,8,8
11,478,557.212895015255,1,0,538904.959784737,538906.006861024,6,1,80,0,16
11,479,735.165248974226,1,0,538907.759828314,538908.806894593,6,1,82,16,4
11,480,441.320721409284,0,0,538910.618699158,538911.665768901,6,0,77,0,4
11,481,1494.58258517552,1,0,538946.231006176,538947.278079384,7,1,77,8,4
11,482,492.90992342867,1,0,538949.795770333,538950.84284739,7,1,89,16,0
11,483,571.664770133793,1,0,538952.489966947,538953.536994344,7,1,82,0,0
11,484,544.555329950526,1,0,538955.289964714,538956.337044851,7,1,80,4,8
11,485,1014.80735710356,1,0,538958.05472071,538959.101781599,7,1,90,0,4
11,486,443.710953230038,0,0,538961.195946107,538962.24301123,7,0,86,16,16
11,487,500.997214345261,1,0,538963.772451233,538964.819523671,7,1,98,8,0
11,488,483.317429199815,1,0,538966.337190752,538967.384272429,7,1,80,4,16
11,489,451.7073930474,0,0,538969.054885089,538970.101956756,7,0,68,0,0
11,490,1126.39449560083,1,0,538971.749041667,538972.796119494,7,1,86,16,16
11,491,1286.01917275228,0,0,538974.984386147,538976.031461279,7,0,63,8,0
11,492,1173.60090021975,1,0,538978.513849632,538979.560922455,7,1,76,4,0
11,493,512.835194473155,1,0,538981.925685148,538982.97276336,7,1,63,4,4
11,494,447.376565542072,1,0,538984.50218219,538985.549255398,7,1,82,0,16
11,495,701.394033734687,0,0,538987.066924019,538988.113994147,7,0,66,16,4
11,496,485.165249090642,0,0,538989.961085525,538991.008159887,7,0,61,0,8
11,497,453.367736190557,0,0,538992.608188528,538993.655258271,7,0,94,0,16
11,498,490.021550212987,0,1,538995.302342797,538996.349425243,7,1,80,8,8
11,499,525.122425751761,0,0,538997.902377982,538998.949459659,7,0,88,8,16
11,500,453.36388645228,0,0,539000.573009121,539001.620076169,7,0,95,0,8
11,501,572.668752167374,1,0,539003.0906993,539004.137769812,7,1,88,16,4
11,502,673.608599463478,0,0,539005.843685068,539006.890752501,7,0,70,16,8
11,503,607.013946399093,0,0,539008.620191657,539009.667267945,7,0,83,4,4
11,504,623.967307503335,1,0,539011.373184355,539012.420265647,7,1,92,16,4
11,505,810.310687753372,0,0,539014.079100381,539015.126173974,7,0,100,16,4
11,506,651.586052961648,0,0,539017.055624217,539018.102697424,7,0,92,8,4
11,507,718.564898474142,0,0,539019.808605751,539020.855673954,7,0,62,8,16
11,508,688.077027909458,1,0,539022.679234887,539023.726313099,7,1,100,4,8
11,509,547.716641565785,1,0,539025.573399857,539026.620481919,7,1,79,4,8
11,510,602.830559597351,0,0,539028.220496317,539029.267572604,7,0,62,16,0
11,511,494.146807817742,1,0,539030.902889597,539031.94996396,7,1,100,4,0
11,512,532.94986707624,1,0,539033.644107834,539034.691185276,7,1,72,0,4
11,513,547.966097132303,0,0,539036.397086674,539037.444165656,7,0,62,0,16
11,514,516.285612829961,0,0,539039.055954129,539040.103028877,7,0,72,16,4
11,515,593.11795711983,1,0,539041.808931814,539042.856012336,7,1,90,0,4
11,516,489.080317085609,1,0,539044.456042517,539045.5031138,7,1,87,8,0
11,517,386.617943295278,1,0,539047.079605452,539048.126683279,7,1,77,4,16
11,518,623.630080372095,1,0,539049.644379233,539050.691422798,7,1,71,4,16
11,519,578.941715182737,0,0,539052.514985656,539053.562061559,7,0,70,0,0
11,520,689.854784402996,0,0,539055.162082116,539056.209163407,7,0,100,16,8
11,521,895.031682448462,0,0,539058.068009998,539059.11508667,7,0,64,16,16
11,522,849.01057719253,0,0,539061.068061968,539062.115134791,7,0,90,8,0
11,523,654.238444170915,0,0,539064.138694877,539065.18576693,7,0,69,16,8
11,524,699.454592890106,1,0,539066.997559946,539068.044632769,7,1,66,0,16
11,525,833.132801344618,1,0,539069.93878465,539070.985851699,7,1,80,4,4
11,526,1196.80181669537,0,0,539072.832944616,539073.880134852,7,0,96,0,4
11,527,793.405447038822,1,0,539076.209468683,539077.256539195,7,1,62,8,16
11,528,587.308103917167,0,0,539079.056567759,539080.103644047,7,0,98,16,8
11,529,404.682305874303,0,0,539081.880183743,539082.927216529,7,0,66,0,8
11,530,781.311081955209,1,0,539084.456646138,539085.503725505,7,1,67,4,4
11,531,551.449622260407,1,0,539087.480233557,539088.527300605,7,1,88,16,8
11,532,635.061925044283,1,0,539090.256739376,539091.303816433,7,1,98,0,0
11,533,1717.41732547525,0,0,539093.080317633,539094.12738853,7,0,90,8,16
11,534,1757.88265268784,1,0,539096.950962167,539097.99808465,7,1,61,0,8
11,535,682.153225876391,1,0,539100.915728865,539101.962797838,7,1,95,8,8
11,536,473.242192179896,1,0,539103.786358001,539104.833435058,7,1,75,4,8
11,537,594.658961868845,0,0,539106.4570311,539107.504063117,7,0,67,4,0
11,538,1270.03899670672,1,0,539109.280560082,539110.327629825,7,1,74,16,16
11,539,861.815582960844,0,0,539112.762990396,539113.810037041,7,0,61,8,4
11,540,636.356938746758,0,0,539115.845366969,539116.892438252,7,0,67,4,16
11,541,742.756708292291,0,0,539118.680705444,539119.727822537,7,0,81,4,4
11,542,590.079063549638,1,0,539121.492510779,539122.539583602,7,1,72,8,16
11,543,940.029557445087,1,0,539124.245501937,539125.292571295,7,1,77,16,0
11,544,800.337080843747,0,0,539127.25730989,539128.304383098,7,0,68,0,0
11,545,723.814631346613,0,0,539130.139708868,539131.186785541,7,0,71,8,0
11,546,624.527812818997,1,0,539133.069165271,539134.116235013,7,1,90,8,8
11,547,1023.40087376069,0,0,539135.869196145,539136.916272432,7,0,98,8,4
11,548,534.800766501576,1,0,539139.151610752,539140.198715527,7,1,96,0,16
11,549,956.870894413441,0,0,539141.904586512,539142.951690901,7,0,88,0,8
11,550,2098.04085688666,0,0,539145.069348128,539146.11641864,7,0,84,4,0
11,551,683.562573394738,1,0,539149.398828244,539150.445901066,7,1,93,4,16
11,552,792.827618424781,0,0,539152.304760746,539153.351828949,7,0,75,8,8
11,553,739.678548648953,1,0,539155.210686319,539156.257750287,7,1,79,8,8
11,554,613.665327429771,1,0,539158.10484359,539159.151909868,7,1,77,4,0
11,555,1165.17060773913,1,0,539160.940178599,539161.987245648,7,1,78,4,8
11,556,858.700851793401,0,0,539164.1755635,539165.222602446,7,0,94,8,4
11,557,1248.21894057095,0,0,539167.104981021,539168.152050379,7,0,80,16,16
11,558,826.674671377987,0,0,539170.516799214,539171.563866262,7,0,74,0,4
11,559,961.51392639149,0,0,539173.516825007,539174.563902449,7,0,84,16,0
11,560,1235.42702349368,0,0,539176.716928485,539177.764008622,7,0,64,16,0
11,561,2152.83063647803,0,0,539213.129211327,539214.176293004,8,0,100,8,0
11,562,597.042264300399,0,0,539217.49398557,539218.541062242,8,0,72,16,16
11,563,427.711529191583,0,0,539220.22343666,539221.270509867,8,0,76,0,4
11,564,532.298510661349,1,0,539222.90583302,539223.952904688,8,1,69,0,16
11,565,501.456859521568,0,0,539225.623523892,539226.670595945,8,0,90,8,8
11,566,577.390316524543,1,0,539228.223554458,539229.270625741,8,1,69,4,8
11,567,455.184373888187,0,0,539230.870661312,539231.917730669,8,0,74,0,8
11,568,435.784191591665,0,0,539233.40015136,539234.44718915,8,0,64,4,16
11,569,790.867004776374,1,0,539235.906025886,539236.953105638,8,1,98,8,8
11,570,544.40827423241,1,0,539238.788426789,539239.835499997,8,1,98,16,8
11,571,718.805500073358,0,0,539241.459098349,539242.506139989,8,0,80,0,16
11,572,875.4367090296,0,0,539244.247333588,539245.294411031,8,0,66,0,8
11,573,1289.45650230162,1,0,539247.341505411,539248.388577079,8,1,64,8,8
11,574,702.827633940615,0,0,539250.765084977,539251.812161649,8,0,68,0,8
11,575,740.742969792336,1,0,539253.623951201,539254.671023638,8,1,67,0,16
11,576,476.771527901292,0,0,539256.61222101,539257.659295757,8,0,66,4,8
11,577,510.591633385047,1,0,539259.318158594,539260.365226412,8,1,97,16,0
11,578,833.940452546813,1,0,539261.988804361,539263.0358537,8,1,81,4,0
11,579,607.951714890078,0,0,539265.035945706,539266.082960785,8,0,62,0,4
11,580,503.4767575562,1,0,539267.718279703,539268.765359455,8,1,90,4,4
11,581,1669.37324265018,0,0,539270.365381167,539271.412457454,8,0,65,8,16
11,582,1303.07108408306,1,0,539274.212492562,539275.259573854,8,1,97,16,16
11,583,1356.59433726687,0,0,539277.741961823,539278.78903734,8,0,75,4,0
11,584,1105.35206354689,1,0,539281.330252959,539282.377335405,8,1,70,4,4
11,585,898.700374527834,1,0,539284.600953929,539285.647967468,8,1,98,0,0
11,586,1585.69203165825,1,0,539287.706830535,539288.753899893,8,1,94,8,16
11,587,518.900277791545,0,0,539291.471579216,539292.518671287,8,0,69,0,0
11,588,1760.47114015091,1,0,539294.142216514,539295.189291646,8,1,71,8,4
11,589,2717.90969243739,1,0,539298.071687544,539299.118751128,8,1,71,8,16
11,590,1661.10270959325,0,0,539303.036475415,539304.083545928,8,0,93,0,4
11,591,2064.8844265379,0,0,539306.777692497,539307.824786492,8,0,87,16,0
11,592,1330.55663260166,0,0,539311.024849164,539312.071903893,8,0,92,8,8
11,593,527.901854598895,0,0,539314.495468445,539315.542546273,8,0,61,0,8
11,594,1918.15368155949,0,0,539317.213160472,539318.260234065,8,0,77,4,8
11,595,1603.63782581408,1,0,539321.236747891,539322.283821869,8,1,94,16,0
11,596,1705.83072584122,1,0,539325.095641447,539326.142701566,8,1,75,8,16
11,597,1118.34878055379,0,0,539328.978041581,539330.025115173,8,0,80,16,4
11,598,1069.72571427468,0,0,539332.201668574,539333.24869982,8,0,68,16,8
11,599,671.767324092798,1,0,539335.354652648,539336.40168428,8,1,86,4,16
11,600,449.206292047165,1,0,539338.084066397,539339.131139219,8,1,76,4,8
11,601,582.706647808664,0,0,539340.766499714,539341.813532885,8,0,66,8,0
11,602,527.801379328594,0,0,539343.413570765,539344.460633194,8,0,71,4,0
11,603,1028.58439297415,0,0,539346.154777838,539347.201851816,8,0,92,4,16
11,604,705.401107668877,0,0,539349.401882536,539350.448961518,8,0,100,16,4
11,605,1742.18811886385,1,0,539352.248987772,539353.296061749,8,1,75,16,4
11,606,1341.94112697151,0,0,539356.143157747,539357.190242888,8,0,95,0,0
11,607,1464.42578232381,1,0,539359.71969059,539360.766768417,8,1,86,8,0
11,608,510.751392808743,0,0,539363.39036215,539364.437414569,8,0,85,16,8
11,609,928.938019438647,0,0,539366.002187195,539367.049216132,8,0,81,8,16
11,610,539.353717351332,1,0,539369.166896456,539370.213971203,8,1,94,4,0
11,611,1330.98124619573,0,0,539371.802291982,539372.84930475,8,0,99,8,4
11,612,786.920369719155,0,0,539375.202293752,539376.24936619,8,0,91,16,4
11,613,978.159702382982,1,0,539378.178795645,539379.225886176,8,1,88,4,4
11,614,618.234061752446,0,0,539381.272967083,539382.320031821,8,0,76,8,0
11,615,907.899437006563,1,0,539384.073004116,539385.120077709,8,1,80,4,0
11,616,1126.75135582685,0,0,539387.061298563,539388.108359067,8,0,81,0,8
11,617,1198.79630708601,1,0,539390.32019851,539391.367265943,8,1,78,4,16
11,618,803.309375885874,1,0,539393.743740734,539394.790817406,8,1,99,0,16
11,619,998.602363048121,1,0,539396.767317374,539397.814387502,8,1,95,16,0
11,620,1101.47703159601,0,0,539399.95560135,539401.002671478,8,0,97,16,16
11,621,1841.16581256967,0,0,539403.155649393,539404.20272491,8,0,74,16,4
11,622,495.781743316911,1,0,539407.14394692,539408.191081721,8,1,86,8,4
11,623,1776.69769199565,1,0,539409.838103113,539410.885179785,8,1,94,8,8
11,624,824.360662139952,1,0,539413.779342831,539414.826414498,8,1,66,4,8
11,625,1077.66171509866,1,0,539416.697036705,539417.744154954,8,1,65,8,4
11,626,1760.4699851945,0,0,539419.838241699,539420.885352633,8,0,69,0,4
11,627,1028.15785468556,1,0,539423.767725819,539424.814805186,8,1,92,16,8
11,628,1009.51720320154,0,0,539426.897192923,539427.944263821,8,0,62,0,0
11,629,568.998905131593,1,0,539429.967823907,539431.01494562,8,1,80,0,4
11,630,671.90398578532,0,0,539432.66198934,539433.709058313,8,0,65,8,0
11,631,1237.70292138215,1,0,539435.509086492,539436.556158929,8,1,78,4,4
11,632,1808.75197483692,0,0,539438.92090584,539439.968022163,8,0,93,4,4
11,633,1875.6730761379,1,0,539442.826890697,539443.873928873,8,1,85,16,16
11,634,723.615990718827,1,0,539446.768082294,539447.815153192,8,1,86,0,0
11,635,2111.08030471951,0,0,539449.744602665,539450.791668173,8,0,78,16,16
11,636,461.210576002486,0,0,539454.003485288,539455.050560421,8,0,86,8,4
11,637,627.848498872481,1,0,539456.697647641,539457.744781672,8,1,85,16,8
11,638,599.345879512839,1,0,539459.568279472,539460.615356914,8,1,92,16,0
11,639,633.666051202454,1,0,539462.23890907,539463.285976888,8,1,68,0,16
11,640,458.751050988212,1,0,539465.050752517,539466.097798777,8,1,69,4,16
11,641,819.943987997249,0,0,539500.792428859,539501.83951785,9,0,64,8,0
11,642,478.634361177683,0,0,539503.827774571,539504.874849318,9,0,86,8,0
11,643,519.307183101773,0,0,539506.416058778,539507.463130445,9,0,86,0,0
11,644,635.956577723846,1,0,539509.110219205,539510.157287408,9,1,63,4,4
11,645,1621.78187561221,0,0,539511.804373089,539512.85145977,9,0,89,4,0
11,646,456.185276270844,1,0,539515.580900466,539516.627973673,9,1,78,4,4
11,647,586.51392639149,0,0,539518.098589875,539519.145660003,9,0,82,16,4
11,648,495.091890450567,0,0,539520.780987005,539521.828054438,9,0,64,8,8
11,649,514.298821683042,0,0,539523.381099568,539524.428095398,9,0,94,0,0
11,650,569.468559348024,1,0,539526.004640945,539527.051664878,9,1,93,0,8
11,651,435.522417188622,1,0,539528.710513856,539529.757584368,9,1,87,0,8
11,652,636.490135686472,0,0,539531.298787284,539532.345862031,9,0,64,8,4
11,653,913.444821024314,0,0,539534.004714473,539535.051785371,9,0,83,4,4
11,654,858.25583525002,0,0,539537.145937561,539538.193011538,9,0,75,0,4
11,655,523.011291748844,0,0,539540.134221229,539541.181294821,9,0,87,0,16
11,656,1032.14683546685,0,0,539542.793082525,539543.840160352,9,0,71,4,16
11,657,1468.28387584537,0,0,539545.969603589,539547.016697969,9,0,67,16,16
11,658,1012.84751330968,0,0,539549.499065534,539550.546144131,9,0,79,0,16
11,659,428.663926199079,1,0,539552.581465206,539553.628540723,9,1,75,0,16
11,660,950.564054655842,0,0,539555.240330352,539556.28740048,9,0,83,4,0
11,661,520.708061405458,0,0,539558.252195664,539559.299215747,9,0,66,16,0
11,662,1033.60314841848,1,0,539561.005176043,539562.052281973,9,1,99,0,4
11,663,725.171623984352,1,0,539564.275766145,539565.322854366,9,1,96,8,4
11,664,1922.326289583,1,0,539567.134635833,539568.181705191,9,1,86,8,8
11,665,983.727029291913,0,0,539571.169987704,539572.217107877,9,0,64,16,0
11,666,1184.69744257163,1,0,539574.358268986,539575.405344888,9,1,94,4,8
11,667,1521.48876525462,0,0,539577.605379457,539578.652441116,9,0,91,16,8
11,668,836.21365565341,0,0,539581.287784672,539582.334862114,9,0,77,0,4
11,669,998.719776514918,0,0,539584.276076424,539585.323141933,9,0,88,16,16
11,670,1130.37385244388,0,0,539587.417291427,539588.464366175,9,0,68,8,0
11,671,1591.91417950206,1,0,539590.640864141,539591.687976229,9,1,91,8,0
11,672,495.245490572415,0,0,539594.417402297,539595.464475119,9,0,69,0,0
11,673,714.144759811461,1,0,539597.005680729,539598.052751242,9,1,100,16,16
11,674,413.748171413317,0,0,539599.852776341,539600.899913838,9,0,69,4,16
11,675,651.838588295504,1,0,539602.346940696,539603.394040466,9,1,72,8,8
11,676,522.095851018094,1,0,539605.123449979,539606.170518568,9,1,69,4,8
11,677,408.136188983917,1,0,539607.817598473,539608.864680535,9,1,62,0,16
11,678,735.596021986566,0,0,539610.28821968,539611.335292887,9,0,87,8,16
11,679,551.307186251506,0,0,539613.182391194,539614.229465942,9,0,72,4,8
11,680,442.795512499288,1,0,539615.864789479,539616.911869231,9,1,63,0,8
11,681,537.470866111107,1,0,539618.406000864,539619.453078691,9,1,81,16,0
11,682,652.676651603542,0,0,539621.158986248,539622.206072159,9,0,99,16,4
11,683,580.476175411604,1,0,539624.053146983,539625.100218651,9,1,93,8,16
11,684,424.112515291199,1,0,539626.782600768,539627.82968052,9,1,64,8,4
11,685,616.693827090785,1,0,539629.323873361,539630.370893059,9,1,94,8,8
11,686,409.640237223357,1,0,539632.170917774,539633.21800022,9,1,67,4,4
11,687,579.046424943954,0,0,539634.747429444,539635.794501882,9,0,99,16,4
11,688,611.61809717305,1,0,539637.582826433,539638.629844591,9,1,83,16,4
11,689,439.739295747131,0,0,539640.441680338,539641.48871043,9,0,64,0,16
11,690,618.124347529374,0,0,539643.100503523,539644.147574806,9,0,61,16,0
11,691,607.807353953831,1,0,539645.947601445,539646.994673498,9,1,84,16,4
11,692,521.123820915818,1,0,539648.712351281,539649.759424874,9,1,88,4,16
11,693,595.379226491787,0,0,539651.324162083,539652.371224512,9,0,93,8,16
11,694,634.788216790184,1,0,539654.100673677,539655.1477388,9,1,69,4,16
11,695,655.138101428747,1,0,539656.877174491,539657.924250393,9,1,73,4,8
11,696,584.531754837371,1,0,539659.68898945,539660.736062658,9,1,92,16,8
11,697,474.351268960163,1,0,539662.441970215,539663.489046502,9,1,94,8,8
11,698,740.854608942755,0,0,539665.065548548,539666.11262753,9,0,64,16,8
11,699,511.932842549868,1,0,539667.924411308,539668.971517237,9,1,67,4,0
11,700,413.541446672753,0,0,539670.653867787,539671.700939455,9,0,76,4,0
11,701,692.330477992073,0,0,539673.206843239,539674.253917216,9,0,61,16,16
11,702,738.599883858114,0,0,539676.018655118,539677.065716007,9,0,91,8,0
11,703,546.174481860362,1,0,539679.006932627,539680.054008144,9,1,63,8,16
11,704,619.372395682149,1,0,539681.806974665,539682.854046718,9,1,88,0,0
11,705,714.411153807305,1,0,539684.524669387,539685.571735665,9,1,72,4,4
11,706,628.470598137937,1,0,539687.324711424,539688.371783092,9,1,69,16,8
11,707,443.759458488785,1,0,539690.183573414,539691.230636612,9,1,68,4,0
11,708,399.166948976927,1,0,539692.713016881,539693.760095863,9,1,96,0,8
11,709,485.119823482819,0,0,539695.207182006,539696.254254443,9,0,66,4,8
11,710,408.188543864526,0,0,539697.771923834,539698.818997042,9,0,77,0,4
11,711,463.407171773724,0,0,539700.289615168,539701.336689146,9,0,94,8,4
11,712,544.0683523193,1,0,539702.972000365,539704.019082042,9,1,90,8,4
11,713,601.50898352731,1,0,539705.59556869,539706.642646902,9,1,95,16,8
11,714,646.353643503971,0,0,539708.44268047,539709.489748288,9,0,70,4,16
11,715,489.599631400779,1,0,539711.160387896,539712.207438776,9,1,95,0,4
11,716,415.27300758753,1,0,539713.842760389,539714.889831286,9,1,67,0,0
11,717,485.416629468091,0,0,539716.442800579,539717.501645553,9,0,64,16,16
11,718,397.242521750741,0,0,539719.195785193,539720.24285763,9,0,77,8,16
11,719,652.354053105228,1,0,539721.76054011,539722.807599844,9,1,70,16,0
11,720,559.777129790746,1,0,539724.631188495,539725.678238989,9,1,83,0,8
