sub_id,Trial,RT,Resp,Error,Fix_onset,Disp_onset,block,tid,tloc,fish_setsize,bird_setsize
6,1,716.779416732606,0,0,93497.2338014146,93498.2808811665,1,0,95,0,16
6,2,568.580425024265,1,0,93500.1750888676,93501.22211203,1,1,83,8,16
6,3,557.101614889689,1,0,93502.8103715994,93503.8574475017,1,1,64,16,16
6,4,444.813074762351,1,0,93505.5045270226,93506.551632182,1,1,74,0,4
6,5,637.962206135853,0,0,93508.104614948,93509.1516411902,1,0,67,16,4
6,6,469.879519281676,0,0,93510.8575960972,93511.9046296536,1,0,86,4,4
6,7,414.359850779874,0,0,93513.5870106155,93514.6340884426,1,0,65,16,0
6,8,575.838506934815,0,0,93516.2576864094,93517.304717656,1,0,98,0,8
6,9,480.362046611845,1,0,93518.9988623003,93520.0459324281,1,1,65,16,0
6,10,507.308647691389,0,0,93521.5400775343,93522.5871518967,1,0,91,4,8
6,11,441.526265436551,0,0,93524.2107021282,93525.2577772605,1,0,85,8,8
6,12,510.262464536936,1,0,93526.7401609942,93527.7872322769,1,1,100,8,8
6,13,706.213737517828,1,0,93529.3990226756,93530.4460939583,1,1,92,4,8
6,14,469.267429012689,1,0,93532.2461236774,93533.293196885,1,1,85,0,0
6,15,683.957133878721,0,0,93534.8344074995,93535.8814818619,1,0,67,8,16
6,16,540.241799739306,0,0,93537.5991527159,93538.6462243836,1,0,87,8,8
6,17,651.029371307231,0,0,93540.2462545647,93541.2933223827,1,0,73,4,8
6,18,749.358018365456,1,0,93543.0227653883,93544.069836671,1,1,80,8,0
6,19,590.053630105103,1,0,93545.9522194807,93546.9992992326,1,1,63,8,4
6,20,442.947546762298,1,1,93548.6463868378,93549.6934546558,1,0,87,4,4
6,21,508.361135012819,0,0,93551.3287770388,93552.3758525561,1,0,74,4,16
6,22,676.027292502113,1,0,93554.0700014349,93555.1170704079,1,1,99,16,4
6,23,760.577748762444,0,0,93556.9994628417,93558.0465341244,1,0,97,0,4
6,24,654.130243783584,0,0,93559.8700877435,93560.91717173,1,0,79,8,4
6,25,529.771206245641,1,0,93562.7642965995,93563.8113894401,1,1,85,8,16
6,26,552.847009981633,0,0,93565.4231259441,93566.4701979968,1,0,77,0,0
6,27,574.29442256398,0,0,93568.0466908041,93569.0937694011,1,0,88,8,0
6,28,581.400059338193,1,0,93570.7055597999,93571.7526299277,1,1,92,8,4
6,29,667.000693138107,0,0,93573.4820717783,93574.5291480656,1,0,99,8,0
6,30,594.562695201603,1,0,93576.3174110227,93577.3644819204,1,1,91,0,4
6,31,602.058683885843,0,0,93579.046865962,93580.0939368598,1,0,69,4,0
6,32,528.9931971638,1,0,93581.799849036,93582.8469218586,1,1,74,16,8
6,33,578.774615481962,0,0,93584.4940098487,93585.5411427254,1,0,77,16,16
6,34,697.021989268251,0,0,93587.3058190336,93588.3528907013,1,0,89,16,0
6,35,633.445056839264,1,0,93590.1764558692,93591.2235190677,1,1,89,8,4
6,36,542.697860131739,1,0,93592.8941463564,93593.9412538255,1,1,94,0,8
6,37,509.146843367489,0,0,93595.6236551905,93596.6706683439,1,0,65,4,16
6,38,590.490947433864,1,0,93598.3295211712,93599.3765901441,1,1,81,16,8
6,39,467.34377167013,1,0,93600.9883867023,93602.0354541354,1,1,72,16,4
6,40,436.030926546664,0,1,93603.5766601303,93604.6237325679,1,1,84,16,0
6,41,722.64431953954,0,0,93606.2002296099,93607.2473020475,1,0,90,8,4
6,42,475.295940850629,0,0,93609.141454314,93610.1885232869,1,0,76,4,0
6,43,515.58841993392,1,0,93611.7532597262,93612.8003375533,1,1,69,0,0
6,44,485.551725301775,0,0,93614.4121256423,93615.4591930754,1,0,65,16,4
6,45,604.107069055317,0,0,93617.0945216177,93618.14159752,1,0,72,4,4
6,46,761.425436066929,1,0,93619.8592676041,93620.9063442763,1,1,99,8,8
6,47,694.819234166062,1,0,93622.8240223676,93623.8710982699,1,1,80,0,0
6,48,501.683191512711,1,0,93625.5770350837,93626.6240821138,1,1,96,0,8
6,49,451.173424255103,0,0,93628.3064546066,93629.3535335885,1,0,87,8,16
6,50,424.724964570487,1,0,93630.9888763745,93632.0359345685,1,1,77,8,8
6,51,429.984706424875,1,0,93633.6477191928,93634.6947943251,1,1,88,16,0
6,52,452.580077020684,1,0,93636.1889671486,93637.2360064795,1,1,87,0,8
6,53,423.803749436047,1,1,93638.8007483083,93639.8478165113,1,0,79,4,16
6,54,516.324853073456,1,0,93641.3772511247,93642.4243285668,1,1,74,16,4
6,55,679.366456752177,1,0,93644.0831783144,93645.1302526768,1,1,67,4,0
6,56,491.370432631811,0,0,93646.8361571538,93647.8832376756,1,0,69,0,8
6,57,582.184227838297,1,0,93649.5773869394,93650.6244555274,1,1,72,4,4
6,58,653.880788115202,1,0,93652.25978176,93653.3068507329,1,1,69,4,8
6,59,557.137801370118,1,0,93655.0833542422,93656.1304236001,1,1,68,8,16
6,60,694.168262678431,1,0,93657.8834001298,93658.9304679478,1,1,95,16,16
6,61,526.214923200314,1,0,93660.7893245478,93661.8363915959,1,1,82,0,16
6,62,557.366469060071,0,0,93663.4481873841,93664.4952609766,1,0,94,16,16
6,63,449.145442107692,1,0,93666.2482355814,93667.2952991649,1,1,97,16,8
6,64,627.768015678157,0,0,93668.9306477253,93669.9777594291,1,0,90,4,4
6,65,455.852642742684,1,0,93671.7424326575,93672.7895147192,1,1,86,0,16
6,66,581.698790192604,0,0,93674.3307376525,93675.3777866074,1,0,62,16,16
6,67,446.458019287093,0,0,93676.9660496415,93678.0131205392,1,0,63,4,16
6,68,496.104700752767,0,0,93679.6131445609,93680.6602150737,1,0,77,4,0
6,69,692.438241458149,1,0,93682.3308327382,93683.3779117202,1,1,99,8,0
6,70,493.972008829587,0,0,93685.2602964547,93686.3073611931,1,0,61,0,4
6,71,634.762013345608,1,0,93687.9426912753,93688.9897540889,1,1,81,16,8
6,72,558.195678167976,1,0,93690.8250910234,93691.8721561467,1,1,96,8,0
6,73,684.321308348444,0,0,93693.6368955887,93694.6839649466,1,0,70,4,8
6,74,485.222197457915,0,0,93696.4839942808,93697.5310732628,1,0,69,4,0
6,75,812.879131233785,0,0,93699.2134588442,93700.2605335916,1,0,91,0,16
6,76,602.634202732588,1,0,93702.1546754641,93703.2017494416,1,1,79,0,0
6,77,519.573936093366,0,0,93704.954718272,93706.0017853201,1,0,75,16,8
6,78,619.405861492851,1,0,93707.5547557673,93708.6018262801,1,1,100,4,16
6,79,441.623660924961,0,0,93710.3665730364,93711.4136377748,1,0,65,0,16
6,80,468.626081579714,0,0,93712.966607837,93714.0136791197,1,0,76,0,4
6,81,458.064251986798,0,0,93731.813963684,93732.8610368915,2,0,73,8,4
6,82,771.573815989541,0,0,93734.3434194703,93735.3904876733,2,0,99,8,4
6,83,529.74579873262,0,0,93737.2963997725,93738.3434702853,2,0,62,16,16
6,84,592.751831864007,1,0,93740.0140906446,93741.0612050431,2,1,91,0,8
6,85,518.724708948866,1,0,93742.8141388419,93743.8612182088,2,1,97,8,0
6,86,707.49219780555,1,0,93745.5435853121,93746.5906569798,2,1,68,8,4
6,87,504.476094036363,0,0,93748.3436354342,93749.3907074868,2,0,87,0,8
6,88,464.195163847762,1,0,93750.9436694649,93751.9907403626,2,1,91,0,4
6,89,459.274958877359,0,0,93753.6025380756,93754.6496174426,2,0,77,8,8
6,90,502.308370530955,1,0,93756.1555208417,93757.2025932793,2,1,88,16,4
6,91,588.215434429003,0,0,93758.8026226904,93759.849695128,2,0,80,0,0
6,92,574.88495495636,0,0,93761.5320891787,93762.5792001125,2,0,61,0,4
6,93,577.49731009244,0,0,93764.3203548304,93765.3674264981,2,0,62,8,16
6,94,436.576418345794,1,1,93766.9792149721,93768.0262958788,2,0,99,4,16
6,95,545.423779185512,0,0,93769.626314511,93770.6733942629,2,0,95,16,8
6,96,633.219853814808,1,0,93772.2616542173,93773.3087308895,2,1,63,8,0
6,97,470.101257655188,0,0,93774.967581792,93776.0146492251,2,0,72,16,0
6,98,506.412455142709,0,0,93777.5793814298,93778.6264504028,2,0,91,0,4
6,99,750.388947781175,1,0,93780.3323675835,93781.3794365564,2,1,86,4,16
6,100,620.376736769686,1,0,93783.1794728199,93784.2265429477,2,1,63,16,0
6,101,473.7329933414,0,0,93785.8618691803,93786.9089450826,2,0,75,4,4
6,102,456.69917514897,1,0,93788.4501429933,93789.4972108114,2,1,94,4,8
6,103,1392.86162315693,1,0,93791.0619530251,93792.1090308522,2,1,76,4,4
6,104,491.617578518344,1,0,93794.5678933806,93795.6150062393,2,1,85,0,16
6,105,680.839323045802,1,0,93797.2267481327,93798.2738686906,2,1,91,4,16
6,106,460.621557489503,1,0,93799.9679836928,93801.015039192,2,1,76,16,8
6,107,800.927587231854,1,0,93802.6386025122,93803.6856749498,2,1,99,16,8
6,108,658.425269764848,0,0,93805.6621764573,93806.7092538995,2,0,67,8,8
6,109,494.954817942926,1,0,93808.4975083873,93809.5445850595,2,1,83,0,0
6,110,574.285568436608,1,0,93811.0622609951,93812.1093395921,2,1,93,16,0
6,111,423.47075692669,1,0,93813.87407018,93814.9211368432,2,1,93,8,16
6,112,456.395054818131,1,0,93816.4152831042,93817.4623563118,2,1,63,16,0
6,113,555.078637262341,0,0,93819.0623864928,93820.1094546959,2,0,72,16,4
6,114,766.126982387505,0,0,93821.7094833371,93822.7565569296,2,0,89,4,8
6,115,656.408451526659,0,0,93824.5330565893,93825.580127487,2,0,68,4,8
6,116,496.428839134751,1,0,93827.3331028618,93828.3801741445,2,1,61,0,16
6,117,510.190476546995,1,0,93829.9802031706,93831.0272694489,2,1,76,4,4
6,118,443.759432557272,1,0,93832.6508300743,93833.6979028969,2,1,74,0,0
6,119,506.627264170675,1,0,93835.1567692749,93836.2038201546,2,1,64,8,0
6,120,597.913793273619,1,0,93837.8744378191,93838.9215133364,2,1,78,0,8
6,121,554.270216118312,0,0,93840.6862531634,93841.7333221364,2,0,67,16,8
6,122,580.775265290868,1,0,93843.4274737099,93844.4745900333,2,1,82,0,0
6,123,724.067140748957,0,0,93846.0863300019,93847.1335090741,2,0,100,8,4
6,124,692.847841492039,1,0,93848.9804980519,93850.0275747241,2,1,96,4,8
6,125,584.236462615081,0,0,93851.7570127251,93852.8040867026,2,0,83,4,0
6,126,485.282636553166,1,0,93854.5570597675,93855.6041248908,2,1,84,16,16
6,127,571.304419267108,0,0,93857.2159237587,93858.262989267,2,0,81,8,8
6,128,564.781230670633,1,0,93859.9336100113,93860.9806851436,2,1,64,8,16
6,129,719.708211006946,0,0,93862.7336605184,93863.7807237169,2,0,66,0,8
6,130,615.172429505037,1,0,93865.5689874439,93866.6160660409,2,1,79,8,8
6,131,491.377361962805,0,0,93868.3219801419,93869.3690491148,2,0,82,8,16
6,132,959.489767919877,0,0,93870.9926066606,93872.0396814079,2,0,100,8,16
6,133,587.338489989634,0,0,93874.0867719388,93875.133848996,2,0,87,4,0
6,134,501.073411011021,1,0,93876.9221096432,93877.9691863154,2,1,93,4,16
6,135,556.071070444887,0,0,93879.569211492,93880.6162835446,2,0,65,16,4
6,136,510.73827809887,1,0,93882.3104774641,93883.3575021664,2,1,77,8,4
6,137,531.999753846321,1,0,93884.9810566324,93886.0281275301,2,1,71,4,16
6,138,618.065037298948,0,0,93887.6869803575,93888.7340558748,2,0,86,16,16
6,139,657.127561367815,0,0,93890.5340852089,93891.5811537969,2,0,99,4,4
6,140,583.968913721037,0,0,93893.4283048439,93894.4753260815,2,0,61,0,4
6,141,627.425014143228,1,0,93896.2635848039,93897.3106564716,2,1,97,16,0
6,142,480.465986474883,1,0,93898.9695081441,93900.0165794268,2,1,76,8,0
6,143,593.191458974616,0,0,93901.5577896563,93902.6048551646,2,0,88,4,0
6,144,570.571835734881,0,0,93904.3813594438,93905.4284303416,2,0,73,16,8
6,145,563.879263660056,1,0,93907.0519921219,93908.0990680242,2,1,88,0,16
6,146,489.08991512144,1,0,93909.8520356997,93910.8991119869,2,1,75,0,16
6,147,524.002159072552,0,0,93912.4050161559,93913.4520874386,2,0,72,4,4
6,148,566.813832367188,1,0,93915.1580046193,93916.2050728224,2,1,88,0,8
6,149,648.279969536816,0,0,93917.9815717121,93919.0286456896,2,0,69,4,0
6,150,495.382511217031,1,1,93920.7816168297,93921.828692732,2,0,89,0,4
6,151,483.485246906639,1,0,93923.4875363202,93924.5346226165,2,1,96,0,16
6,152,534.022346502752,0,0,93926.1699380701,93927.2170728716,2,0,87,4,0
6,153,522.591271728743,0,0,93928.8052762365,93929.8523471343,2,0,65,8,0
6,154,527.91491735843,1,0,93931.5229621041,93932.5700634139,2,1,97,16,4
6,155,645.972119702492,0,0,93934.1347621269,93935.1818384141,2,0,100,8,8
6,156,633.490097432514,1,0,93936.9583415385,93938.0054124362,2,1,87,16,16
6,157,496.161290226155,0,0,93939.7466141196,93940.793688482,2,0,86,0,0
6,158,600.494581478415,0,1,93942.4172521872,93943.4643196203,2,1,90,4,8
6,159,696.864154670038,0,0,93945.0878717765,93946.1349827104,2,0,88,16,4
6,160,690.568863836234,0,0,93947.8761555215,93948.9232314238,2,0,62,16,16
6,161,610.571358396555,0,0,93954.9350905768,93955.9821657092,3,0,80,4,8
6,162,432.111238958896,0,0,93957.6645455162,93958.7116206486,3,0,63,0,4
6,163,524.900276461267,1,0,93960.1586987066,93961.2057692194,3,1,96,4,4
6,164,530.847561254632,0,0,93962.8528660637,93963.8999850817,3,0,83,16,16
6,165,510.560425449512,1,0,93965.4999786913,93966.5470361154,3,1,71,4,4
6,166,405.878743200446,0,0,93968.2176560897,93969.2647196732,3,0,83,16,0
6,167,444.984383066185,0,0,93970.7706249971,93971.817704749,3,0,64,8,0
6,168,533.842569042463,1,0,93973.3589088191,93974.4059777921,3,1,77,8,16
6,169,470.862328409567,0,0,93976.0765935318,93977.123669819,3,0,66,8,4
6,170,442.465573782101,1,0,93978.6060631767,93979.6531248354,3,1,83,8,4
6,171,609.651298160315,1,0,93981.2178539604,93982.264926398,3,1,82,0,8
6,172,677.128285096842,0,0,93983.8884831739,93984.9355621558,3,0,98,0,8
6,173,595.810743441689,0,0,93986.629738752,93987.6767815475,3,0,82,8,8
6,174,516.939253138844,0,0,93989.3356255206,93990.382701038,3,0,97,0,4
6,175,618.169362132903,1,0,93991.9591930754,93993.0062739822,3,1,98,8,16
6,176,589.393419504631,0,0,93994.7592435825,93995.8063114005,3,0,78,8,0
6,177,532.632632079185,0,0,93997.5357913625,93998.582824149,3,0,65,0,4
6,178,494.752327693277,1,0,94000.147563283,94001.1946403402,3,1,86,4,0
6,179,596.661510440754,1,0,94002.8887815197,94003.9358543423,3,1,96,4,16
6,180,641.732528296416,0,0,94005.6417692133,94006.6888374163,3,0,61,8,16
6,181,661.803315204452,0,0,94008.3594554658,94009.4065275184,3,0,69,8,0
6,182,506.788178478018,1,0,94011.1124373849,94012.1595117473,3,1,73,0,0
6,183,568.025694155949,0,0,94013.8771841412,94014.9242608134,3,0,86,16,8
6,184,508.632533543278,1,0,94016.5595835813,94017.6066533242,3,1,72,0,4
6,185,472.049167612568,0,0,94019.1713897635,94020.2185199455,3,0,77,4,16
6,186,491.616808591061,0,0,94021.8655405671,94022.9126384123,3,0,83,0,8
6,187,414.532698923722,0,0,94024.5008852779,94025.5479500163,3,0,75,8,0
6,188,608.809000332258,0,0,94027.1244867093,94028.1715325845,3,0,80,0,0
6,189,785.539098535082,0,0,94029.8068503479,94030.8539254803,3,0,99,16,4
6,190,506.696172451484,0,0,94032.818678319,94033.8657318935,3,0,87,8,16
6,191,625.861681663082,0,0,94035.4892886693,94036.5364223159,3,0,63,8,8
6,192,575.867379113333,0,0,94038.1952185538,94039.2422821372,3,0,99,4,16
6,193,616.422402570606,0,0,94040.9717247578,94042.0188021999,3,0,83,16,8
6,194,578.160985343857,1,0,94043.6658871103,94044.7129576231,3,1,61,16,16
6,195,466.933786665322,0,0,94046.3953751565,94047.442417567,3,0,67,4,8
6,196,459.265719764517,1,0,94049.1130286872,94050.160099585,3,1,65,16,4
6,197,649.345160622033,0,0,94051.8307195593,94052.8777939217,3,0,92,8,16
6,198,520.21836322092,1,0,94054.5719424156,94055.619005999,3,1,97,0,8
6,199,804.693289843271,1,0,94057.348455164,94058.395523367,3,1,99,8,4
6,200,558.996785010095,1,0,94060.2661444192,94061.3132730613,3,1,97,16,4
6,201,498.390992695931,1,0,94062.9367778672,94063.98384838,3,1,62,0,16
6,202,494.699972798117,1,0,94065.5132953122,94066.5603600505,3,1,64,8,4
6,203,590.429353440413,0,0,94068.2427479418,94069.289814605,3,0,63,4,4
6,204,604.179826943437,0,0,94071.0427869,94072.0898566429,3,0,96,16,0
6,205,490.572020527907,0,0,94073.8075351961,94074.8546033992,3,0,95,0,8
6,206,590.686123396154,0,0,94076.525218369,94077.5723050502,3,0,82,16,16
6,207,608.134546127985,0,0,94079.3017376617,94080.3488054798,3,0,69,4,4
6,208,520.216053453623,1,0,94082.0076586921,94083.0547338244,3,1,72,4,4
6,209,709.809671694529,1,0,94084.5841738273,94085.6312420303,3,1,77,16,16
6,210,539.092686842196,1,0,94087.3606888855,94088.4077574735,3,1,82,0,0
6,211,411.869528747047,0,0,94090.0901353557,94091.137210103,3,0,84,0,16
6,212,607.539009230095,1,0,94092.5843004799,94093.6313736874,3,1,69,16,4
6,213,661.985402432038,1,0,94095.3019844227,94096.3490618648,3,1,71,4,0
6,214,433.042463104357,1,0,94098.2079142302,94099.2549893625,3,1,85,4,16
6,215,482.662582173361,1,0,94100.8550426413,94101.9021678188,3,1,88,4,0
6,216,647.6316927874,0,0,94103.5491753517,94104.5962439397,3,0,77,16,4
6,217,668.398106805398,1,0,94106.3962763536,94107.4433457115,3,1,98,8,8
6,218,452.594320639037,0,0,94109.1492628922,94110.1963318651,3,0,66,4,8
6,219,643.164203633205,1,0,94111.7845960541,94112.8316665669,3,1,61,4,8
6,220,423.771027621115,0,1,94114.5611099574,94115.6081858597,3,1,64,8,4
6,221,478.08999827248,1,0,94117.1376266324,94118.1846932956,3,1,96,0,0
6,222,562.14962741069,1,0,94119.737661433,94120.7847331007,3,1,87,8,8
6,223,552.096333223744,0,0,94122.4435905476,94123.4906587506,3,0,67,4,8
6,224,438.263323769206,1,0,94125.208336149,94126.2554066618,3,1,97,0,4
6,225,406.873871121206,1,0,94127.8319160225,94128.8789776812,3,1,97,0,16
6,226,552.997915263404,1,0,94130.4907657702,94131.5378497566,3,1,91,0,16
6,227,565.626608207822,0,0,94133.1731698298,94134.2202395727,3,0,94,4,0
6,228,493.963154687663,0,0,94135.7967296853,94136.8438225259,3,0,95,0,0
6,229,675.285469886148,0,0,94138.3732486701,94139.4203164882,3,0,69,16,0
6,230,641.755241085775,1,0,94141.1379927317,94142.185068634,3,1,100,0,16
6,231,473.686027937219,1,0,94143.9380424688,94144.9851129816,3,1,64,16,8
6,232,549.36194496986,0,0,94146.5380841988,94147.5851562514,3,0,85,4,0
6,233,620.137675097794,0,0,94149.3263625543,94150.3734257529,3,0,91,16,8
6,234,415.759189258097,0,1,94152.0087527554,94153.0558286576,3,1,63,16,16
6,235,821.317508001812,1,0,94154.5382027672,94155.5852794394,3,1,89,16,0
6,236,533.072259189794,1,0,94157.5735453992,94158.620626306,3,1,96,4,16
6,237,612.393770585186,1,0,94160.3500673867,94161.3971382845,3,1,97,16,8
6,238,503.914433837053,1,0,94163.1265751306,94164.1736514178,3,1,75,8,8
6,239,655.012192743015,1,0,94165.6795513522,94166.7266368786,3,1,77,16,0
6,240,395.52132866811,0,0,94168.5148956011,94169.5619676537,3,0,63,8,0
6,241,466.911073890515,1,0,94174.5385269056,94175.5855970334,4,1,67,0,8
6,242,443.94652430492,0,0,94177.2444437013,94178.2915684938,4,0,77,0,4
6,243,479.441216448322,1,0,94179.7738921734,94180.8209684606,4,1,65,4,0
6,244,497.310403137817,1,0,94182.3739304386,94183.4210090356,4,1,97,8,16
6,245,605.8370902756,1,0,94185.1033796035,94186.1505197946,4,1,63,16,16
6,246,475.846052184352,0,0,94187.8563734565,94188.9035028685,4,0,70,4,4
6,247,479.042780323653,1,0,94190.4211210597,94191.4681915725,4,1,68,0,16
6,248,444.754945434397,1,0,94192.9623328291,94194.0094664757,4,1,85,4,0
6,249,484.884200428496,1,0,94195.4682543214,94196.5153229094,4,1,87,4,4
6,250,423.917698324658,1,1,94198.1624555551,94199.2094875717,4,0,99,4,16
6,251,672.418654561625,0,0,94200.644805797,94201.6918763098,4,0,82,16,8
6,252,595.13898397563,1,0,94203.5272040053,94204.5742783677,4,1,98,4,16
6,253,524.692011778825,1,0,94206.2095988258,94207.2566739582,4,1,81,4,8
6,254,452.488455965067,0,0,94208.9508201423,94209.997891425,4,0,94,0,4
6,255,580.515030684182,0,0,94211.5626247846,94212.609699147,4,0,86,16,8
6,256,436.589122095029,0,0,94214.3744782402,94215.4215029424,4,0,93,0,8
6,257,420.612410773174,0,0,94217.0215338934,94218.0686055611,4,0,75,4,0
6,258,671.358468011022,0,0,94219.6568709049,94220.7039379531,4,0,91,8,0
6,259,574.172389475279,0,0,94222.551027791,94223.5981025384,4,0,90,4,0
6,260,628.178000682965,0,0,94225.3628415954,94226.4099097985,4,0,72,16,0
6,261,460.771692843991,0,0,94228.1981792999,94229.2452632864,4,0,84,8,8
6,262,612.646690919064,1,0,94230.8335190061,94231.8805848994,4,1,96,16,16
6,263,557.396496136789,1,0,94233.5864982305,94234.6335737478,4,1,63,0,16
6,264,468.557173298905,0,0,94236.3865364188,94237.4336188654,4,0,64,4,4
6,265,528.618628697586,1,0,94238.9983468355,94240.0454188882,4,1,82,0,16
6,266,565.938042811467,0,0,94241.7160373227,94242.7631143798,4,0,95,16,4
6,267,491.155238618376,0,0,94244.4337262699,94245.480804097,4,0,67,0,0
6,268,630.694885141565,0,0,94247.0102799014,94248.0573165375,4,0,91,16,16
6,269,677.177560297423,1,0,94249.8338065731,94250.8808774709,4,1,99,0,0
6,270,593.485955250799,1,0,94252.7044484133,94253.7515170013,4,1,76,8,4
6,271,574.167769926135,0,0,94255.492724844,94256.5397965117,4,0,95,16,0
6,272,793.979400099488,1,0,94258.2339396161,94259.2810740327,4,1,90,0,0
6,273,436.188376188511,0,0,94261.1045706774,94262.1516454247,4,0,64,4,4
6,274,442.735432457994,1,0,94263.6222620114,94264.6693336791,4,1,76,0,4
6,275,662.477769408724,0,0,94266.2223041263,94267.2693719443,4,0,88,8,4
6,276,823.452894663205,0,0,94268.9635146638,94270.0105944157,4,0,78,8,0
6,277,431.911443447461,0,0,94271.8930172615,94272.940111642,4,0,65,16,0
6,278,761.967078229645,1,0,94274.4577221339,94275.5047980362,4,1,71,8,0
6,279,470.479675728711,1,0,94277.3754190884,94278.4224907561,4,1,87,16,16
6,280,547.722004965181,0,0,94280.0931053409,94281.1401839379,4,0,94,4,8
6,281,441.073549591238,0,0,94282.8696180893,94283.9166882172,4,0,75,4,16
6,282,482.523610728094,0,0,94285.5402576967,94286.5873193554,4,0,97,0,8
6,283,599.80703855399,1,0,94288.210919632,94289.2579601177,4,1,88,8,8
6,284,705.155860734521,1,0,94291.022686471,94292.0697627582,4,1,90,8,4
6,285,463.078387794667,1,0,94293.9756783221,94295.0227484499,4,1,75,4,16
6,286,567.880178336054,0,0,94296.6698606927,94297.7169681619,4,0,73,8,8
6,287,711.007289850386,1,0,94299.3287015861,94300.3757797982,4,1,81,4,4
6,288,580.215914858854,1,0,94302.1993318774,94303.2464116294,4,1,77,16,0
6,289,612.460754055064,1,0,94304.9640855631,94306.011154921,4,1,87,8,16
6,290,448.370512705878,0,0,94307.7641299107,94308.811196189,4,0,77,16,8
6,291,459.324619019753,1,0,94310.3171061324,94311.3641828046,4,1,83,0,8
6,292,440.289766076603,1,0,94312.8583190567,94313.9053949589,4,1,78,16,8
6,293,566.237928564078,0,1,94315.4113010527,94316.4583715655,4,1,61,8,8
6,294,508.94435311784,1,0,94318.1995813331,94319.2466572354,4,1,66,8,16
6,295,543.167129348149,0,0,94320.8113879003,94321.8584634176,4,0,68,8,16
6,296,488.12250449555,1,0,94323.4702538163,94324.5173289487,4,1,61,4,8
6,297,608.661559715983,1,0,94326.1879473831,94327.2350148162,4,1,66,4,16
6,298,880.597104682238,0,0,94328.8468140691,94329.8938776526,4,0,79,16,4
6,299,999.573597320705,0,0,94331.95273995,94332.9998120026,4,0,87,8,0
6,300,591.285509915906,0,0,94335.0821951203,94336.129267173,4,0,69,4,0
6,301,620.790956367273,0,0,94337.8116608386,94338.8587328913,4,0,83,8,4
6,302,1022.62591835461,1,0,94340.6117205848,94341.6587737743,4,1,96,0,4
6,303,684.960730970488,1,0,94343.8352752048,94344.8823468725,4,1,91,4,8
6,304,521.71663705667,1,0,94346.7647366116,94347.8118098191,4,1,64,0,16
6,305,516.402230525273,1,0,94349.4118380754,94350.4589082032,4,1,62,8,8
6,306,593.190689047333,0,0,94352.0942375155,94353.1413084132,4,0,76,16,4
6,307,415.571327597718,1,0,94354.7766215571,94355.8236997691,4,1,73,4,8
6,308,468.885931230034,1,0,94357.3413676204,94358.3884958776,4,1,75,16,4
6,309,644.030754090636,0,0,94359.9061159936,94360.9531861214,4,0,70,0,0
6,310,443.176984394086,0,0,94362.6591013773,94363.7061722751,4,0,79,0,0
6,311,539.18584776693,1,0,94365.1650255644,94366.2121006967,4,1,78,16,8
6,312,641.196275624679,0,0,94367.8591790628,94368.9062530402,4,0,79,8,4
6,313,532.543705761782,1,0,94370.6827561646,94371.7298297571,4,1,77,0,16
6,314,653.727958037052,1,0,94373.3416224656,94374.3886902836,4,1,99,16,16
6,315,604.14979988127,0,0,94376.1651907133,94377.2122654607,4,0,100,8,16
6,316,590.820090321358,0,0,94378.9064790132,94379.9534848523,4,0,97,8,0
6,317,470.28565465007,1,0,94381.7417478094,94382.7888279462,4,1,74,0,8
6,318,812.236243960797,0,0,94384.330025472,94385.3770975246,4,0,62,0,4
6,319,450.093219638802,0,0,94387.3888946987,94388.4359740656,4,0,95,16,0
6,320,412.022743781563,0,0,94390.0830628257,94391.1301321836,4,0,96,16,4
6,321,483.768579273601,0,0,94421.660027597,94422.7070946451,5,0,83,0,8
6,322,564.563341933535,0,0,94424.3542130472,94425.4012569976,5,0,92,4,8
6,323,508.72453955526,0,0,94427.1542269829,94428.2013021152,5,0,71,4,4
6,324,775.457317125984,1,0,94429.7425007959,94430.7895751583,5,1,100,16,16
6,325,429.423046225565,0,0,94432.6013643252,94433.6484409974,5,0,96,16,16
6,326,396.384414460044,0,0,94435.0955252148,94436.1425961126,5,0,96,8,8
6,327,477.836308025871,0,0,94437.6720353455,94438.7191070132,5,0,73,8,16
6,328,393.571878856164,0,0,94440.2603083886,94441.3073792863,5,0,84,16,16
6,329,399.1750072164,0,0,94442.8015274722,94443.8486029896,5,0,92,16,0
6,330,564.79393443442,1,1,94445.2839196751,94446.330999427,5,0,99,16,8
6,331,471.161059263977,0,0,94448.0016074675,94449.0486791351,5,0,84,0,8
6,332,477.822834334802,0,0,94450.6957636606,94451.7428430275,5,0,94,0,0
6,333,839.892330826842,1,0,94453.2369912134,94454.284053642,5,1,88,0,0
6,334,839.32066160196,0,0,94456.1664464607,94457.2135150487,5,0,79,8,16
6,335,492.7085620875,1,0,94459.0958986284,94460.1429722209,5,1,91,0,4
6,336,644.369906018255,1,0,94461.6724126087,94462.7194785019,5,1,98,8,4
6,337,574.083463143324,1,0,94464.5195109158,94465.5665852782,5,1,99,4,8
6,338,774.50568995846,0,0,94467.1901366645,94468.2372141067,5,0,90,16,0
6,339,518.319343493204,0,0,94470.0372492152,94471.084319728,5,0,83,16,4
6,340,402.233148866799,0,0,94472.7784632174,94473.8255429693,5,0,75,0,16
6,341,422.73047415074,1,0,94475.3079082247,94476.3549856669,5,1,69,16,4
6,342,640.234254489769,1,0,94477.8961920468,94478.9432671791,5,1,90,16,4
6,343,628.001302917255,0,0,94480.6374118234,94481.6844850309,5,0,94,0,4
6,344,508.988623798359,1,0,94483.3903941274,94484.4374700297,5,1,75,4,4
6,345,771.038333245087,1,0,94486.1316150589,94487.1787102093,5,1,71,16,0
6,346,418.410810583737,1,0,94489.0610745408,94490.108141204,5,1,86,4,16
6,347,674.779629232944,1,0,94491.6375862114,94492.6846763572,5,1,91,4,8
6,348,528.414598607924,1,0,94494.5199774903,94495.567049158,5,1,69,4,16
6,349,483.090660403832,0,0,94497.2023753905,94498.2494574522,5,0,65,8,8
6,350,512.200365454191,1,0,94499.8612309126,94500.9083114344,5,1,95,0,4
6,351,423.262107273331,1,0,94502.4730405594,94503.520113382,5,1,85,0,8
6,352,684.348255716031,0,0,94505.0260187059,94506.0730934533,5,0,83,0,0
6,353,580.041141918628,1,0,94507.96724341,94509.014321622,5,1,73,8,0
6,354,519.334489450557,0,0,94510.6849358219,94511.732004025,5,0,85,4,0
6,355,561.942517626449,1,0,94513.3202724485,94514.3673464259,5,1,70,4,16
6,356,389.678753665066,1,0,94516.0026657292,94517.049735857,5,1,96,0,16
6,357,508.723384671612,0,0,94518.6145131024,94519.661543964,5,0,74,8,4
6,358,420.814516066457,1,0,94521.2615756849,94522.3086446579,5,1,75,0,16
6,359,472.972692514304,0,0,94523.8733722431,94524.9204877965,5,0,73,0,16
6,360,485.816964428523,1,0,94526.5204806362,94527.5675904151,5,1,67,4,0
6,361,648.911307944218,1,0,94529.1322810439,94530.1793557913,5,1,92,8,8
6,362,509.617652438465,1,0,94532.0264460142,94533.0735592578,5,1,96,16,4
6,363,504.561940673739,1,0,94534.767663481,94535.8147328389,5,1,84,16,8
6,364,731.835297876387,0,0,94537.4382934644,94538.4854082478,5,0,80,4,8
6,365,530.937642455683,1,0,94540.3442190373,94541.3912922448,5,1,91,16,8
6,366,598.474298574729,0,0,94543.0148521003,94544.0619160687,5,0,67,8,4
6,367,634.87365245237,1,0,94545.850187495,94546.8972630123,5,1,100,0,8
6,368,604.503195398138,1,0,94548.6266998584,94549.6737780705,5,1,70,8,16
6,369,696.555414790055,1,0,94551.3796890918,94552.4267542151,5,1,70,8,0
6,370,699.49883762456,1,0,94554.1914971218,94555.2385691745,5,1,72,16,16
6,371,624.145519104786,1,0,94557.0738910955,94558.1209681526,5,1,92,8,16
6,372,482.20370693889,1,0,94559.920995177,94560.9680656898,5,1,82,8,0
6,373,634.216906531947,0,0,94562.5328002043,94563.5798745667,5,0,71,8,8
6,374,428.892952928436,0,0,94565.3210754801,94566.3682152862,5,0,82,16,4
6,375,447.235643412569,1,1,94567.9446472695,94568.9917200921,5,0,73,16,16
6,376,559.422553458717,1,0,94570.6035093359,94571.6505902427,5,1,91,4,0
6,377,661.586966307368,0,0,94573.3565004941,94574.4035710069,5,0,87,16,8
6,378,439.987570542144,0,0,94576.1918397384,94577.2389033219,5,0,82,0,4
6,379,633.569784666179,0,0,94578.8624651022,94579.9095344601,5,0,65,4,4
6,380,728.293643391225,0,0,94581.6625071401,94582.709586507,5,0,79,4,4
6,381,574.732509834575,0,0,94584.5802464404,94585.6272792269,5,0,71,8,16
6,382,711.260595155181,1,0,94587.2155353316,94588.2626096941,5,1,97,16,0
6,383,596.384722433868,0,0,94590.0155804492,94591.062651347,5,0,74,0,8
6,384,775.917732200469,0,0,94592.6979718051,94593.7450665706,5,0,70,4,4
6,385,541.997228487162,1,0,94595.6039039224,94596.6509794397,5,1,72,8,4
6,386,641.057689135778,0,0,94598.2157147241,94599.2627817723,5,0,70,4,0
6,387,544.694660333334,1,0,94600.9922236229,94602.039291441,5,1,67,8,8
6,388,624.14205443929,1,0,94603.6157954123,94604.6628674649,5,1,94,8,0
6,389,624.194794290815,1,0,94606.4746604814,94607.521733304,5,1,67,4,16
6,390,1066.19404283992,1,0,94609.3335259355,94610.3805949084,5,1,68,0,16
6,391,727.44826588314,0,0,94612.5924012446,94613.6394709875,5,0,94,4,16
6,392,529.989864924573,0,0,94615.5218634213,94616.5689316243,5,0,89,0,4
6,393,607.31149642379,0,0,94618.2513172058,94619.2983857938,5,0,98,8,0
6,394,473.413089552196,1,0,94621.0042941203,94622.0513696376,5,1,86,8,4
6,395,610.911665193271,1,0,94623.686697795,94624.7337671529,5,1,68,4,0
6,396,577.258633391466,1,0,94626.4043763483,94627.451448401,5,1,94,16,0
6,397,682.801091665169,0,0,94629.0397145147,94630.0868400771,5,0,90,16,8
6,398,430.613735050429,1,0,94631.9221111831,94632.9691820809,5,1,94,0,0
6,399,479.214088612935,0,0,94634.4162709179,94635.4633441254,5,0,78,4,8
6,400,521.587674636976,0,0,94636.9810189061,94638.0280847993,5,0,86,0,0
6,401,522.866519881063,0,0,94642.9458217899,94643.9928865283,6,0,70,0,0
6,402,754.674349707784,1,0,94645.651755139,94646.6988167977,6,1,88,4,8
6,403,564.23727874062,1,0,94648.5694328454,94649.6165002785,6,1,97,16,4
6,404,454.518747879774,0,0,94651.2871229476,94652.3341938453,6,0,78,0,8
6,405,409.657534532016,0,0,94653.89892682,94654.9459992576,6,0,96,8,4
6,406,397.350670202286,0,0,94656.3930827051,94657.4401512931,6,0,67,4,8
6,407,491.519798059016,1,0,94658.9460600817,94659.993135599,6,1,97,16,8
6,408,651.95982552541,0,0,94661.5813955533,94662.628467606,6,0,100,16,16
6,409,731.161228643032,1,0,94664.3343828619,94665.3814510649,6,1,70,16,0
6,410,519.849184245686,0,0,94667.2756245043,94668.322737363,6,0,90,0,4
6,411,634.661538148066,0,0,94669.8638782993,94670.9109526617,6,0,79,16,4
6,412,428.373253642349,0,0,94672.710980841,94673.7580509688,6,0,66,16,4
6,413,401.908240557532,1,0,94675.1933734288,94676.2404462513,6,1,88,8,4
6,414,520.219133162755,0,0,94677.6639988695,94678.7110713071,6,0,80,0,8
6,415,494.289987793309,1,0,94680.3581577574,94681.4052328898,6,1,96,16,16
6,416,506.783173972508,0,0,94682.9346740475,94683.9817403257,6,0,74,4,0
6,417,413.52024769003,1,1,94685.6876536568,94686.7347287891,6,0,97,16,0
6,418,505.430800913018,0,0,94688.2288708156,94689.275945563,6,0,98,16,16
6,419,648.450892869732,0,0,94690.9347991603,94691.9818712129,6,0,61,8,16
6,420,512.284287280636,1,0,94693.7819043967,94694.8289706749,6,1,70,0,8
6,421,548.543514829362,0,0,94696.4407618435,94697.4878400556,6,0,71,0,8
6,422,647.765659727156,1,0,94699.0525645611,94700.0996393085,6,1,91,4,8
6,423,520.207199311699,1,0,94701.8408448414,94702.8879985061,6,1,78,16,16
6,424,543.13209776592,1,0,94704.5350083489,94705.582075782,6,1,61,4,4
6,425,561.28923635697,1,0,94707.2997601097,94708.3468279277,6,1,67,4,4
6,426,588.899897658848,0,0,94709.9233519171,94710.9704135757,6,0,97,4,8
6,427,468.303868008661,0,0,94712.6998442625,94713.7469113106,6,0,86,8,16
6,428,493.845356177189,1,0,94715.2292919645,94716.2763670969,6,1,94,8,0
6,429,466.943025778164,0,0,94717.9823143047,94719.0293540205,6,0,97,4,16
6,430,643.0290818098,1,0,94720.6999689903,94721.7470379632,6,1,80,8,8
6,431,465.203380488674,1,0,94723.4058846312,94724.4529666928,6,1,94,0,8
6,432,463.436787831597,0,0,94726.0765173092,94727.123587822,6,0,84,8,0
6,433,714.891945870477,0,0,94728.7942104911,94729.8412852385,6,0,79,8,8
6,434,589.788390978356,0,0,94731.6530801798,94732.7002095918,6,0,83,4,4
6,435,544.166491861688,1,0,94734.3707714368,94735.4178392549,6,1,81,0,16
6,436,581.2083480414,0,0,94737.0649207006,94738.1119915984,6,0,86,0,4
6,437,450.725327973487,1,0,94739.806194372,94740.8532183043,6,1,71,16,16
6,438,476.616362037021,0,0,94742.4532527199,94743.5003163034,6,0,73,4,16
6,439,509.590705070877,0,0,94745.1474027537,94746.1944801958,6,0,94,0,0
6,440,715.447446680628,0,0,94747.8415658761,94748.8886402385,6,0,95,8,8
6,441,784.356878881226,1,0,94750.7474899091,94751.7945661964,6,1,71,16,0
6,442,455.481538956519,0,0,94753.7004829152,94754.747553043,6,0,84,16,4
6,443,346.741197659867,0,0,94756.3711040444,94757.4181772519,6,0,92,0,16
6,444,375.332743264153,0,0,94758.7946762956,94759.8417479633,6,0,72,8,16
6,445,506.105640073656,1,0,94761.2888271763,94762.335908853,6,1,70,16,8
6,446,726.400013139937,1,0,94763.9594556198,94765.0065334469,6,1,90,8,8
6,447,716.719362593722,1,0,94766.9242404104,94767.9712882104,6,1,96,0,16
6,448,494.033602823038,1,0,94769.8066001224,94770.8536844938,6,1,90,4,16
6,449,455.124293803237,1,0,94772.5007682493,94773.5478449215,6,1,81,4,0
6,450,520.078236892005,1,0,94775.0537487055,94776.1008238379,6,1,63,8,16
6,451,503.551799221896,1,1,94777.6302549866,94778.6773355084,6,0,69,8,4
6,452,449.473430096987,1,0,94780.3832472997,94781.4303197373,6,1,65,16,8
6,453,432.016923165065,0,0,94783.0068183191,94784.0539207838,6,0,66,0,4
6,454,654.156806194806,1,0,94785.6656838502,94786.7127543629,6,1,100,4,0
6,455,581.623337551719,1,0,94788.3951353249,94789.4422035279,6,1,77,8,0
6,456,563.904671202181,0,0,94791.1716534628,94792.2187243605,6,0,94,4,16
6,457,563.753380964044,0,0,94793.8540440487,94794.901119951,6,0,95,0,4
6,458,551.061169200693,1,0,94796.6305556423,94797.6776276949,6,1,93,16,4
6,459,494.120219358592,0,0,94799.2423591297,94800.289434647,6,0,76,8,4
6,460,531.181708647637,1,0,94801.8424020145,94802.8894744521,6,1,81,16,0
6,461,666.178028404829,1,0,94804.5012710103,94805.5483430629,6,1,61,16,8
6,462,715.640312861069,0,0,94807.4189583407,94808.4660315482,6,0,70,8,4
6,463,488.166775190621,1,0,94810.2425327478,94811.28960865,6,1,64,8,0
6,464,595.066226072959,0,0,94812.7955193634,94813.8425841018,6,0,82,4,8
6,465,451.216925008339,1,0,94815.4543818148,94816.5014496328,6,1,84,4,16
6,466,478.269005805487,0,0,94818.0661837624,94819.113256585,6,0,78,0,16
6,467,508.750332053751,1,0,94820.7838780991,94821.8309432224,6,1,62,8,0
6,468,647.337966438499,1,1,94823.5250936411,94824.5721699284,6,0,90,4,0
6,469,509.189574193442,1,0,94826.2663130328,94827.3133835456,6,1,73,0,0
6,470,644.200137568987,1,0,94828.9251789488,94829.9722483067,6,1,98,4,4
6,471,449.605857182178,1,0,94831.6428694359,94832.6899403337,6,1,95,0,0
6,472,530.489931130433,1,0,94834.3487916212,94835.3958644437,6,1,96,0,0
6,473,561.599516076967,1,0,94837.0429512789,94838.0900233316,6,1,76,8,16
6,474,477.761625312269,0,0,94839.8194647973,94840.8665849702,6,0,75,16,8
6,475,509.633820867748,0,0,94842.3606804163,94843.4077536238,6,0,78,8,8
6,476,525.428829903831,0,0,94844.9960174278,94846.0430871707,6,0,82,0,4
6,477,571.019932031049,1,0,94847.5842862363,94848.6313632935,6,1,63,16,0
6,478,432.160899115843,0,0,94850.2902172757,94851.3372847088,6,0,73,4,4
6,479,515.355132694822,1,0,94852.8078978308,94853.8549787375,6,1,69,0,16
6,480,454.494110294036,1,0,94855.4667699062,94856.5138396491,6,1,86,4,0
6,481,610.447015526006,0,0,94886.5496011202,94887.5966739428,7,0,65,16,8
6,482,613.859707591473,0,0,94889.3261177182,94890.3731932355,7,0,68,16,0
6,483,632.750584583846,0,0,94892.1614538828,94893.2085243956,7,0,93,0,4
6,484,661.866449052468,0,0,94895.0203281911,94896.0673987038,7,0,71,16,8
6,485,603.439159211121,1,0,94897.9144823824,94898.9615559749,7,1,100,8,8
6,486,671.172146176104,1,0,94900.7027618928,94901.7498401049,7,1,82,0,16
6,487,647.238261168241,0,0,94903.4557492014,94904.5028231788,7,0,97,8,0
6,488,556.61694718583,1,0,94906.1852022159,94907.2323019859,7,1,70,0,8
6,489,702.502699568868,0,0,94908.820544232,94909.8676097403,7,0,99,16,16
6,490,858.05485889432,0,0,94911.7029389755,94912.7500094883,7,0,100,0,16
6,491,647.600895783398,0,0,94914.7382750632,94915.7853471158,7,0,67,8,0
6,492,473.766870025429,0,0,94917.4912616018,94918.538338659,7,0,85,16,0
6,493,543.924350480665,0,0,94920.0560026607,94921.1030854922,7,0,94,16,4
6,494,571.632792241871,1,0,94922.7972262869,94923.8442956448,7,1,81,0,8
6,495,463.269329178729,1,0,94925.5266800714,94926.5737494293,7,1,82,4,16
6,496,549.09709081403,0,0,94928.1267699216,94929.1737903893,7,0,67,8,4
6,497,488.360411298345,0,0,94930.7855884873,94931.8326524557,7,0,73,8,8
6,498,509.168786229566,1,0,94933.4915122123,94934.5385831101,7,1,68,0,16
6,499,499.597080037347,1,0,94936.1150901611,94937.1621468152,7,1,80,4,8
6,500,450.562103884295,0,0,94938.8562995437,94939.9033673618,7,0,65,16,4
6,501,495.480676632724,0,0,94941.5151662297,94942.5622386673,7,0,93,8,4
6,502,647.934658220038,0,0,94944.1387372491,94945.1858077619,7,0,87,16,16
6,503,535.561426368076,1,0,94946.8681848742,94947.9152565418,7,1,73,4,8
6,504,464.475416505593,1,1,94949.5741162985,94950.6211814218,7,0,79,16,4
6,505,625.606066605542,0,0,94952.2330261002,94953.2800519574,7,0,92,4,8
6,506,478.383339650463,0,0,94955.1153711837,94956.1624505506,7,0,86,8,4
6,507,504.393712079036,0,1,94957.6683527948,94958.7154271572,7,1,71,0,4
6,508,495.867563906359,1,0,94960.2448686999,94961.2919369029,7,1,87,0,0
6,509,589.205172873335,0,0,94962.8684358697,94963.9155133118,7,0,83,8,0
6,510,462.468992249342,0,0,94965.6802431298,94966.7273244215,7,0,76,16,8
6,511,663.678852215526,1,0,94968.3979351567,94969.4450068244,7,1,80,8,16
6,512,587.400853910367,1,0,94971.2920928127,94972.3391637105,7,1,71,4,4
6,513,624.506998821744,1,0,94973.9391946614,94974.9862690239,7,1,99,8,16
6,514,466.92993704346,1,0,94976.7157509106,94977.7627913963,7,1,96,0,0
6,515,762.736618155031,1,0,94979.4098651428,94980.456941815,7,1,80,4,0
6,516,599.325835501077,1,0,94982.3040331928,94983.3511083251,7,1,62,4,0
6,517,655.753630417166,0,0,94985.1628982619,94986.20996608,7,0,78,16,4
6,518,468.378935678629,1,0,94988.0099927194,94989.057075551,7,1,74,4,8
6,519,469.852956870454,0,0,94990.7276966802,94991.7747598787,7,0,68,4,4
6,520,757.041483768262,0,0,94993.4453844726,94994.4924530605,7,0,67,16,4
6,521,729.45469012484,1,0,94996.2689511804,94997.3160301624,7,1,90,8,16
6,522,621.958162504598,1,0,94999.0925255875,95000.1396157334,7,1,83,8,4
6,523,502.92700517457,1,0,95001.9513952761,95002.9984623243,7,1,96,0,4
6,524,658.206611085916,1,0,95004.6690830685,95005.7161539663,7,1,82,16,16
6,525,459.234152847785,1,0,95007.5161960042,95008.5632626674,7,1,84,0,8
6,526,497.476706907037,1,0,95010.0809305187,95011.1280114255,7,1,91,0,4
6,527,738.720351175289,0,0,95012.7986313998,95013.8456907487,7,0,76,8,8
6,528,622.421272317297,0,0,95015.6810176742,95016.7280970411,7,0,90,8,0
6,529,591.741305441246,1,0,95018.4575300376,95019.5046190286,7,1,78,4,8
6,530,762.466759479139,0,0,95021.2458060834,95022.2928812158,7,0,100,16,0
6,531,531.218280084431,1,0,95024.1399768281,95025.1870423364,7,1,87,16,16
6,532,738.206426307443,0,0,95026.7400112438,95027.7870832964,7,0,69,16,0
6,533,519.846104536555,0,0,95029.5282938339,95030.5754236309,7,0,96,8,4
6,534,542.003772847238,0,0,95032.1871539755,95033.2342267981,7,0,79,0,16
6,535,700.097839187947,0,0,95034.8930857848,95035.940152448,7,0,61,16,0
6,536,471.971020233468,1,0,95037.78725191,95038.8343740077,7,1,67,0,0
6,537,713.640432979446,0,0,95040.434371852,95041.4814785512,7,0,94,4,4
6,538,548.997770514688,1,0,95043.3520341598,95044.3991039027,7,1,77,4,0
6,539,548.371436612797,1,0,95046.0108931465,95047.0579702037,7,1,93,4,4
6,540,570.477904911968,0,0,95048.6815331389,95049.7286017269,7,0,84,4,16
6,541,622.587576086516,0,0,95051.4345189076,95052.4815851858,7,0,62,0,4
6,542,508.662175649079,1,0,95054.1874962071,95055.2345751891,7,1,61,8,16
6,543,502.41654497222,1,0,95056.7875325476,95057.834607295,7,1,83,4,16
6,544,637.202675250592,0,0,95059.528764643,95060.5758336159,7,0,78,16,8
6,545,597.015675884904,0,0,95062.4229196042,95063.4699924268,7,0,93,8,0
6,546,405.740156726097,0,0,95065.1523687692,95066.1994477511,7,0,74,0,16
6,547,441.806133123464,1,0,95067.6583329923,95068.7053669337,7,1,66,8,8
6,548,415.233330568299,1,0,95070.2348046267,95071.2818820689,7,1,75,4,4
6,549,448.311228494276,0,0,95072.8466161984,95073.8936832465,7,0,84,0,8
6,550,573.442885652184,1,0,95075.4466483043,95076.4937207419,7,1,79,0,8
6,551,509.541814826662,1,0,95078.2584574892,95079.3055391659,7,1,73,4,0
6,552,506.91213637765,1,0,95080.9879105037,95082.0349875609,7,1,94,8,16
6,553,448.245014951681,1,0,95083.6467787295,95084.6938484724,7,1,69,4,0
6,554,487.222847281373,1,0,95086.2585872215,95087.3056523448,7,1,94,0,0
6,555,470.135904281051,0,0,95088.9527468793,95089.9998116176,7,0,93,0,0
6,556,714.77260751999,0,0,95091.5410738171,95092.5880938998,7,0,90,16,8
6,557,443.759817528189,1,0,95094.3998930757,95095.4470194081,7,1,83,4,16
6,558,576.526049844688,0,0,95097.0234602455,95098.0705245989,7,0,78,8,8
6,559,494.488628421095,1,0,95099.7764402398,95100.8235119075,7,1,72,4,16
6,560,648.276119914954,1,0,95102.3764823547,95103.4235582569,7,1,98,16,16
6,561,572.338428391959,1,0,95108.4824552009,95109.5295364927,8,1,67,16,0
6,562,631.50869574747,0,0,95111.2472200505,95112.294283634,8,0,90,8,8
6,563,844.182352302596,0,0,95114.0825477459,95115.1296163339,8,0,98,16,0
6,564,643.5075901245,1,0,95117.0943595485,95118.1414327561,8,1,91,8,16
6,565,457.365930109518,1,0,95119.9532296222,95121.0002978252,8,1,86,0,0
6,566,554.016140915337,0,0,95122.5767948672,95123.6238723093,8,0,70,8,8
6,567,489.103003841592,0,0,95125.1886068238,95126.2356673276,8,0,88,4,4
6,568,659.09240966721,0,0,95127.8004010721,95128.847480824,8,0,72,8,0
6,569,421.227580765844,1,1,95130.6592742255,95131.7063431984,8,0,78,4,0
6,570,448.413628502749,0,0,95133.2593132607,95134.3063830035,8,0,83,16,16
6,571,427.205662548658,1,0,95135.812292947,95136.8593696192,8,1,76,0,16
6,572,497.722697895369,0,0,95138.3417899242,95139.3888242506,8,0,69,8,4
6,573,507.440304849297,1,0,95140.9300240861,95141.9770949839,8,1,75,8,4
6,574,622.638391127111,1,0,95143.4947686096,95144.5418633751,8,1,100,4,4
6,575,487.481926989858,0,0,95146.3301086239,95147.377175672,8,0,78,8,0
6,576,623.479149100604,0,0,95148.9301461192,95149.9772147072,8,0,81,8,4
6,577,489.337445964338,0,1,95151.7772513556,95152.8243249481,8,1,81,16,16
6,578,670.356025788351,0,0,95154.3419935694,95155.3890648521,8,0,91,8,0
6,579,712.940186291235,0,0,95157.224397552,95158.271466525,8,0,88,8,0
6,580,579.815168966888,1,0,95160.1067849813,95161.1538589588,8,1,88,16,16
6,581,645.615259505576,0,0,95162.7538910647,95163.8009608075,8,0,79,4,8
6,582,734.515791380545,1,0,95165.6009882169,95166.648065274,8,1,91,8,4
6,583,610.763839620631,0,0,95168.5304527033,95169.57758558,8,0,81,4,8
6,584,677.364652045071,0,0,95171.2481362611,95172.2952133183,8,0,100,8,16
6,585,1075.95515054709,0,0,95173.9893610422,95175.0364338648,8,0,89,16,4
6,586,595.850394558511,1,0,95177.1894110103,95178.2364838329,8,1,76,16,4
6,587,565.53845180315,1,0,95180.0247429404,95181.0718184577,8,1,96,0,16
6,588,467.105094954604,0,0,95182.6600845714,95183.7071616286,8,0,64,8,0
6,589,549.898582627065,1,0,95185.2013005754,95186.248372628,8,1,81,8,16
6,590,594.178117709816,0,0,95187.8601680313,95188.9072377742,8,0,61,4,8
6,591,485.15174932254,0,0,95190.6719695169,95191.7190446493,8,0,76,8,16
6,592,477.521793713095,1,0,95193.3426002702,95194.3896692431,8,1,68,4,16
6,593,619.070559216198,1,0,95195.966167055,95197.0132402625,8,1,82,16,0
6,594,595.470821601339,1,0,95198.695625844,95199.7427021312,8,1,62,8,8
6,595,853.12079526193,1,0,95201.472132818,95202.5192118,8,1,100,16,4
6,596,491.995611650054,0,0,95204.4251319834,95205.4721982616,8,0,96,0,0
6,597,527.7424541855,0,0,95207.1192847119,95208.1663579194,8,0,70,16,8
6,598,494.880905156606,0,0,95209.778149088,95210.8252334595,8,0,82,0,16
6,599,492.190787597792,0,0,95212.3428982311,95213.3899648943,8,0,87,16,16
6,600,422.5957372837,1,0,95215.0135278295,95216.0605929528,8,1,76,0,8
6,601,575.902025739197,0,0,95217.6371003887,95218.6841712865,8,0,62,4,16
6,602,418.936284302617,1,0,95220.3900834627,95221.4371543605,8,1,86,0,0
6,603,632.616232687724,1,0,95222.9195269302,95223.9666005227,8,1,97,0,8
6,604,642.165996017866,0,0,95225.7078156798,95226.7548800332,8,0,61,4,4
6,605,844.564620012534,0,0,95228.5784413515,95229.6255214884,8,0,89,4,16
6,606,493.829957689741,1,0,95231.5902554639,95232.6373286715,8,1,88,4,16
6,607,457.520300042233,0,0,95234.3314713909,95235.378549603,8,0,72,0,4
6,608,672.342816964374,1,1,95236.9668072475,95238.0138843047,8,0,99,4,8
6,609,830.116594559513,0,0,95239.7668573697,95240.8139274975,8,0,65,4,8
6,610,643.642326976988,0,0,95242.79042939,95243.8375029825,8,0,73,16,0
6,611,525.48734418815,0,0,95245.4845878929,95246.5316576357,8,0,67,4,16
6,612,609.684404931613,1,0,95248.0611122672,95249.1081781604,8,1,69,0,4
6,613,604.813860089052,1,0,95250.8611508404,95251.9082113442,8,1,88,8,4
6,614,598.220223371754,1,0,95253.5435375767,95254.5906069347,8,1,94,16,8
6,615,720.04158848722,0,0,95256.2259281627,95257.2730579597,8,0,70,16,0
6,616,665.405023828498,1,0,95259.0495064194,95260.0965726976,8,1,62,16,4
6,617,400.661347215646,0,0,95261.8730796716,95262.9201490295,8,0,64,0,0
6,618,806.151527591283,0,0,95264.4966522309,95265.5437246685,8,0,90,4,4
6,619,730.004416502197,1,0,95267.4378719305,95268.4849897937,8,1,89,4,0
6,620,458.043848964735,1,0,95270.4026243842,95271.4496991316,8,1,94,0,16
6,621,494.967906663078,1,0,95272.9909597912,95274.0379710198,8,1,75,0,0
6,622,955.044221613207,0,0,95275.7085871445,95276.7556568874,8,0,79,16,16
6,623,680.328862858005,1,0,95278.9204027198,95279.9674743875,8,1,91,4,4
6,624,603.804103608127,1,0,95281.649910784,95282.696928172,8,1,78,0,8
6,625,562.467991359881,0,0,95284.4263734873,95285.4734389956,8,0,89,16,8
6,626,506.862091264338,1,0,95287.0500095653,95288.09700963,8,1,72,16,8
6,627,587.132150118123,1,0,95289.7205710254,95290.7676469276,8,1,62,4,0
6,628,719.943423042423,1,0,95292.4735533294,95293.5206746573,8,1,90,0,4
6,629,674.786943505751,1,0,95295.355958467,95296.4030216655,8,1,90,0,4
6,630,590.74810234597,0,0,95298.2619375496,95299.3089526278,8,0,63,8,8
6,631,516.585472651059,1,0,95301.0031015067,95302.0501785638,8,1,61,8,16
6,632,715.068258679821,1,0,95303.6855656205,95304.7325649152,8,1,99,0,8
6,633,548.142383951927,0,0,95306.4855356704,95307.5326073381,8,0,62,0,4
6,634,715.486712855636,0,0,95309.1679381902,95310.2150040835,8,0,100,4,0
6,635,593.96215378365,1,0,95312.0385673266,95313.0856359146,8,1,100,0,16
6,636,769.051157098147,0,0,95314.8503803612,95315.8974470243,8,0,68,16,4
6,637,455.282513372367,1,0,95317.862190624,95318.9092561322,8,1,66,4,0
6,638,598.781498600147,1,0,95320.5328171426,95321.5798884254,8,1,69,0,8
6,639,660.818966236548,1,0,95323.2387866782,95324.2858129204,8,1,97,8,8
6,640,619.591028429568,1,0,95325.9917343357,95327.0387925297,8,1,66,16,8
6,641,808.519816549961,1,0,95332.6388869995,95333.6859632867,9,1,91,8,8
6,642,594.753636556561,1,0,95335.5095234502,95336.5565962727,9,1,84,16,8
6,643,600.546936373576,1,0,95338.2036804132,95339.2507490012,9,1,79,4,8
6,644,519.671716567245,1,0,95341.050782185,95342.0978507729,9,1,74,4,16
6,645,707.374399280525,1,0,95343.6508242999,95344.6978925029,9,1,63,16,8
6,646,936.822794305044,0,0,95346.5214553611,95347.5685320333,9,0,69,4,4
6,647,526.578712713672,1,0,95349.6038581119,95350.6509301645,9,1,86,4,8
6,648,468.730791355483,1,0,95352.3216024937,95353.3686160321,9,1,75,8,8
6,649,529.26729041792,1,0,95354.9451165387,95355.9921893613,9,1,63,16,16
6,650,524.954556152807,0,0,95357.6392769664,95358.6863505589,9,0,61,0,0
6,651,476.949354560929,0,0,95360.2863768903,95361.3334543325,9,0,65,8,8
6,652,564.42321560462,1,0,95362.9217077425,95363.9687859545,9,1,85,16,4
6,653,668.706846699934,0,0,95365.5805778931,95366.6276434014,9,0,98,4,16
6,654,494.131383282365,1,0,95368.4512104942,95369.4982890912,9,1,86,0,8
6,655,476.94511996815,1,0,95371.2041958779,95372.2512667757,9,1,64,4,0
6,656,556.197338126367,1,0,95373.7689330872,95374.8160112992,9,1,76,8,16
6,657,789.087682336685,0,0,95376.5219165461,95377.568995913,9,0,73,0,8
6,658,626.063401985448,0,0,95379.4749130167,95380.5219766002,9,0,63,8,0
6,659,480.33894886612,0,0,95382.2396551535,95383.2867306708,9,0,84,0,16
6,660,662.640993483365,0,0,95384.8985222244,95385.9455962019,9,0,92,0,4
6,661,489.257758745225,0,0,95387.7926871947,95388.839762712,9,0,86,16,16
6,662,608.372067959863,0,0,95390.3927200705,95391.439793663,9,0,93,8,16
6,663,616.970974035212,1,0,95393.1339433118,95394.1810145945,9,1,71,0,0
6,664,526.261503662681,0,0,95395.8516361087,95396.8987085463,9,0,84,0,0
6,665,746.27908875118,0,0,95398.5928543454,95399.6399213935,9,0,90,8,0
6,666,654.517516013584,0,0,95401.5105455255,95402.5576210428,9,0,71,4,0
6,667,459.156775395968,0,0,95404.251765302,95405.2988319652,9,0,83,0,4
6,668,506.029032549122,0,0,95406.8400414248,95407.8871123226,9,0,85,8,4
6,669,566.726830860716,0,0,95409.4871505879,95410.5342630616,9,0,72,16,0
6,670,667.074220982613,1,0,95412.204830296,95413.2519023487,9,1,98,16,8
6,671,583.659788884688,1,0,95415.0284070129,95416.0754702114,9,1,82,4,16
6,672,554.357217639335,0,0,95417.6755011624,95418.7225824541,9,0,97,0,4
6,673,1112.61627888598,0,0,95420.4873107322,95421.5343881744,9,0,70,16,16
6,674,563.122042542091,0,0,95423.6755920135,95424.7226744602,9,0,97,8,16
6,675,436.562174727442,0,0,95426.3932932796,95427.4403564781,9,0,67,4,8
6,676,426.140086507075,0,0,95428.9227413666,95429.9698107245,9,0,86,8,8
6,677,605.367051117355,1,1,95431.4874793458,95432.5345617924,9,0,99,8,4
6,678,567.217657982837,1,0,95434.2404585701,95435.2875344724,9,1,74,8,0
6,679,671.114401804516,0,0,95436.9346305467,95437.9816945152,9,0,84,8,4
6,680,616.26071833598,1,0,95439.6876074613,95440.734688753,9,1,94,16,4
6,681,550.686600749032,1,0,95442.3700661856,95443.4170766443,9,1,63,0,16
6,682,535.725805326365,0,0,95444.9700424719,95446.0171237637,9,0,74,8,4
6,683,707.816336172982,1,0,95447.6289106977,95448.6759977639,9,1,71,4,0
6,684,782.764289251645,1,0,95450.5348443549,95451.5819156376,9,1,90,16,8
6,685,551.367214342463,1,0,95453.4054696416,95454.4525420793,9,1,74,4,0
6,686,472.030689415988,0,0,95456.1466928829,95457.1937672453,9,0,67,0,4
6,687,538.278876250843,1,0,95458.8643806753,95459.9114531129,9,1,84,4,4
6,688,522.168967931066,1,0,95461.6173675989,95462.6644323372,9,1,65,16,4
6,689,669.044843714801,0,0,95464.311523407,95465.3585958447,9,0,70,4,16
6,690,795.006864864263,0,0,95467.2056822179,95468.2527954615,9,0,71,16,16
6,691,597.00682174298,1,0,95470.2174967153,95471.2645633785,9,1,73,8,4
6,692,497.728087371797,0,0,95472.9469512697,95473.9940210126,9,0,96,16,8
6,693,557.83073377097,0,0,95475.5587589917,95476.6058321993,9,0,95,0,0
6,694,500.957152355113,1,0,95478.3235049781,95479.3705797255,9,1,82,0,8
6,695,522.299470205326,1,0,95481.0412008547,95482.088265978,9,1,81,0,0
6,696,485.227201963426,0,0,95483.6882984689,95484.7353678268,9,0,83,0,16
6,697,439.017850148957,1,0,95486.2765695871,95487.3236778263,9,1,83,8,16
6,698,695.112190587679,0,0,95488.8413137257,95489.8883911678,9,0,96,16,4
6,699,488.01163531607,1,0,95491.6884181922,95492.735488705,9,1,92,8,8
6,700,556.85831863957,1,0,95494.3825816996,95495.4296618365,9,1,79,8,16
6,701,514.203710015863,0,0,95497.1002737266,95498.1473419296,9,0,63,16,4
6,702,854.337276599836,1,0,95499.712077214,95500.7591434922,9,1,90,8,0
6,703,581.534411234315,0,0,95502.6297726286,95503.6768392918,9,0,90,0,8
6,704,462.102508012322,1,0,95505.4062799876,95506.4533493455,9,1,68,0,8
6,705,476.352277808473,1,0,95508.0769134356,95509.1239839484,9,1,75,16,0
6,706,650.744884056621,0,0,95510.6887138434,95511.7357951351,9,0,85,16,0
6,707,562.439889108646,0,0,95513.4299309252,95514.4770099072,9,0,92,0,16
6,708,522.741407083231,1,0,95516.100617498,95517.1476398905,9,1,92,16,0
6,709,630.153627949767,1,0,95518.8182564002,95519.865326143,9,1,97,4,0
6,710,467.293726556818,1,0,95521.6418261877,95522.6888970855,9,1,86,4,4
6,711,504.334427867434,0,0,95524.2889295763,95525.3360023989,9,0,95,4,16
6,712,711.017298875959,1,0,95527.0301447333,95528.0772137063,9,1,95,8,0
6,713,635.889568351558,0,0,95529.8301960103,95530.8772588239,9,0,72,4,4
6,714,615.211695680046,0,0,95532.6302322738,95533.6891342223,9,0,81,0,16
6,715,548.896525389864,0,0,95535.47733982,95536.5244241914,9,0,76,4,8
6,716,801.619749705424,0,0,95538.1126699022,95539.1597415699,9,0,100,4,4
6,717,1226.60057857865,1,0,95541.0774747108,95542.1244994131,9,1,69,16,0
6,718,748.45489647123,1,0,95544.4186499858,95545.465726658,9,1,89,4,8
6,719,593.86475829524,1,0,95547.3363434756,95548.3834159132,9,1,73,16,16
6,720,567.670373813598,1,0,95550.0893342488,95551.136401297,9,1,67,0,4
