sub_id,Trial,RT,Resp,Error,Fix_onset,Disp_onset,block,tid,tloc,fish_setsize,bird_setsize
10,1,745.433123913244,1,0,128491.228703274,128492.275797088,1,1,76,4,0
10,2,564.710505976109,0,0,128494.158228086,128495.205306502,1,0,72,0,8
10,3,738.138113694731,0,0,128496.781812873,128497.828899373,1,0,80,8,8
10,4,579.740151835722,1,0,128499.770174733,128500.817277402,1,1,61,8,16
10,5,672.096905938815,1,0,128502.53492278,128503.582005816,1,1,89,4,8
10,6,744.829120158101,0,0,128505.276182434,128506.32325469,1,0,98,4,0
10,7,644.183386641089,0,0,128508.205674139,128509.252758714,1,0,76,8,4
10,8,555.346330613247,1,0,128511.076342655,128512.123429925,1,1,92,0,8
10,9,624.010277402704,0,0,128513.85288783,128514.89997972,1,0,96,4,0
10,10,552.809437882388,1,0,128516.605914586,128517.653008785,1,1,64,16,0
10,11,948.708294774406,1,0,128519.300101598,128520.347192718,1,1,91,16,0
10,12,562.87462716864,1,0,128522.370788515,128523.41787155,1,1,87,16,4
10,13,709.287214456708,1,0,128525.088508576,128526.135590841,1,1,70,16,8
10,14,550.800711571355,1,0,128527.923896189,128528.971004632,1,1,74,4,4
10,15,734.279649987002,0,0,128530.653373728,128531.700461768,1,0,94,8,4
10,16,600.914544527768,0,0,128533.641693628,128534.688784747,1,0,67,16,4
10,17,575.351211911766,1,0,128536.324123162,128537.371210817,1,1,77,0,4
10,18,549.455657979706,1,0,128539.135973108,128540.183062302,1,1,73,16,16
10,19,825.352944229962,1,0,128541.92428885,128542.971370345,1,1,91,8,16
10,20,490.144722702098,1,0,128544.983198271,128546.030289005,1,1,78,16,4
10,21,495.389815798262,1,0,128547.536215864,128548.583296975,1,1,83,16,0
10,22,824.720838339999,0,0,128550.112803462,128551.159849156,1,0,90,8,0
10,23,805.527069765958,0,0,128553.065783561,128554.112866596,1,0,100,16,8
10,24,593.628773378441,0,0,128556.030616607,128557.077721585,1,0,97,0,16
10,25,591.693189679063,1,1,128558.8306598,128559.877746299,1,0,91,16,4
10,26,508.76528439403,1,1,128561.489563215,128562.536672043,1,0,99,8,4
10,27,460.086970851989,1,1,128564.207279042,128565.254367081,1,0,73,0,0
10,28,616.194799964433,1,0,128566.77212687,128567.819142922,1,1,89,4,16
10,29,691.454667859944,1,0,128569.536849895,128570.583937165,1,1,85,4,4
10,30,459.277397967526,1,0,128572.336926579,128573.384010384,1,1,95,8,8
10,31,425.723430656944,1,0,128575.019359963,128576.066448773,1,1,94,0,4
10,32,702.24165894615,1,0,128577.537082796,128578.584160442,1,1,70,8,0
10,33,672.518823135761,1,0,128580.419514949,128581.466603758,1,1,82,4,16
10,34,524.139855260728,1,1,128583.196068593,128584.243149319,1,0,71,0,4
10,35,596.658801106969,0,0,128585.878488119,128586.925581548,1,0,88,16,4
10,36,646.602866283502,0,0,128588.63151218,128589.678606379,1,0,73,16,0
10,37,507.609631575178,1,0,128591.384537781,128592.431620816,1,1,65,0,8
10,38,675.315564527409,1,0,128594.125786271,128595.17287816,1,1,61,8,0
10,39,562.113559339195,1,0,128596.878807637,128597.925893367,1,1,64,0,16
10,40,761.750849123928,0,0,128599.620068446,128600.667180738,1,0,89,8,16
10,41,598.356478949427,0,0,128602.502500213,128603.549591718,1,0,69,4,16
10,42,563.045164875803,0,0,128605.29081326,128606.33790053,1,0,65,16,8
10,43,561.436413016054,0,0,128607.961479158,128609.008571048,1,0,87,0,4
10,44,516.148065711604,0,0,128610.655680799,128611.70276114,1,0,77,8,4
10,45,679.110124721774,1,0,128613.255749476,128614.302839826,1,1,85,4,16
10,46,576.135762355989,1,0,128616.008775077,128617.055858882,1,1,97,4,4
10,47,519.844075897709,0,0,128618.655904846,128619.702999431,1,0,66,16,16
10,48,547.188237920636,0,0,128621.432456181,128622.479542681,1,0,84,4,8
10,49,682.595946229412,1,0,128624.209061026,128625.256100176,1,1,90,0,0
10,50,490.386478195433,0,0,128626.997327878,128628.044407063,1,0,86,0,0
10,51,603.607731420198,0,0,128629.715044474,128630.762137518,1,0,100,4,8
10,52,677.679994754726,1,0,128632.421008597,128633.468093557,1,1,71,8,16
10,53,618.754020440974,0,0,128635.338738975,128636.385838564,1,0,80,0,8
10,54,661.175948422169,1,0,128638.162348323,128639.209434438,1,1,85,4,4
10,55,613.708337114076,0,0,128641.044786635,128642.091887378,1,0,98,8,8
10,56,495.027182565536,0,0,128643.868394828,128644.915487102,1,0,76,16,8
10,57,483.166150414036,1,0,128646.468476594,128647.515563093,1,1,65,4,8
10,58,725.181097674067,0,0,128649.127375005,128650.174456885,1,0,82,8,0
10,59,731.670384586323,1,0,128651.903929034,128652.951011685,1,1,70,4,0
10,60,569.829331885558,0,0,128654.821662877,128655.868740138,1,0,67,0,4
10,61,632.050572035951,1,0,128657.586440181,128658.633532455,1,1,80,4,16
10,62,668.700010413886,0,0,128660.386576919,128661.433615299,1,0,72,16,16
10,63,608.422438148409,1,0,128663.127775749,128664.174865329,1,1,86,0,16
10,64,491.365433917963,0,0,128665.821969691,128666.86906235,1,0,98,4,0
10,65,536.513270475552,1,0,128668.433815863,128669.480895819,1,1,63,0,0
10,66,502.769517435809,0,0,128671.057472253,128672.104511788,1,0,63,8,8
10,67,688.890442892443,1,0,128673.669255293,128674.716345257,1,1,91,4,4
10,68,747.334446088644,0,0,128676.539929967,128677.587011463,1,0,62,4,8
10,69,655.377281465917,1,0,128679.492950102,128680.540042376,1,1,94,16,16
10,70,536.507881013677,0,0,128682.363624392,128683.410711661,1,0,77,8,16
10,71,472.594737439067,1,0,128685.022527037,128686.069606993,1,1,77,16,16
10,72,562.385726734647,0,0,128687.563776374,128688.610862874,1,0,69,0,8
10,73,1378.11299883469,0,0,128690.210908838,128691.257997263,1,0,61,16,0
10,74,597.282822825946,1,0,128693.728660928,128694.775746658,1,1,87,0,0
10,75,598.907358085853,0,0,128696.564033143,128697.611121953,1,0,83,16,8
10,76,687.103454110911,1,0,128699.269996496,128700.317082611,1,1,92,8,0
10,77,692.014016138273,1,0,128702.175962467,128703.223052047,1,1,81,8,4
10,78,471.539944410324,1,0,128705.105458022,128706.152539518,1,1,84,8,8
10,79,777.030719589675,0,0,128707.681994421,128708.729100554,1,0,84,0,16
10,80,566.699984221486,0,0,128710.670327794,128711.717414294,1,0,73,0,16
10,81,989.523395706783,0,0,128720.635322139,128721.682404019,2,0,90,0,4
10,82,471.836364362389,0,0,128723.717757294,128724.764847259,2,0,88,0,0
10,83,707.254235618166,0,0,128726.388424732,128727.435506997,2,0,71,16,4
10,84,761.126827419503,0,0,128729.282629375,128730.329710871,2,0,98,4,16
10,85,632.381638453808,1,0,128732.200360138,128733.247443943,2,1,95,16,0
10,86,552.833305453532,1,0,128734.929856155,128735.976930721,2,1,96,4,0
10,87,707.019409441273,0,0,128737.600506269,128738.647595849,2,0,92,8,0
10,88,530.126768120681,0,0,128740.365296662,128741.412380852,2,0,77,4,0
10,89,642.290148636675,0,0,128742.977137445,128744.024219711,2,0,80,0,4
10,90,698.33546008158,1,0,128745.824282151,128746.871366341,2,1,76,8,4
10,91,847.256068038405,1,0,128748.68318395,128749.730266215,2,1,100,16,16
10,92,682.577853061957,0,0,128751.753860473,128752.800944663,2,0,68,8,4
10,93,589.108176820446,1,0,128754.542184684,128755.589264639,2,1,63,16,8
10,94,622.891195889679,1,0,128757.236374006,128758.283461661,2,1,97,0,8
10,95,653.960625131731,0,0,128760.03645531,128761.083583001,2,0,72,16,4
10,96,766.609826372587,0,0,128762.930652639,128763.977737984,2,0,86,0,16
10,97,785.438651946606,0,0,128765.930736946,128766.977822291,2,0,91,16,0
10,98,756.052656986867,0,0,128768.966121017,128770.013201743,2,0,69,16,8
10,99,578.057872422505,1,0,128771.966204169,128773.013288744,2,1,73,0,8
10,100,642.807151205488,0,0,128774.801586008,128775.848668273,2,0,67,4,0
10,101,640.382667072117,1,0,128777.495778795,128778.54286568,2,1,62,0,0
10,102,681.724009642494,1,0,128780.213523108,128781.260589205,2,1,68,8,8
10,103,490.058876413968,1,0,128783.095937553,128784.143023283,2,1,66,4,8
10,104,531.138060570811,0,0,128785.801895517,128786.848985866,2,0,73,16,0
10,105,675.683587207459,1,0,128788.472566034,128789.519646759,2,1,87,16,4
10,106,692.102942120982,0,0,128791.202056276,128792.249140851,2,0,84,16,4
10,107,747.22165253479,1,0,128794.013906991,128795.060992336,2,1,90,4,16
10,108,573.568072737544,1,0,128796.837507485,128797.884603224,2,1,74,8,4
10,109,784.475094667869,1,0,128799.543475073,128800.590555414,2,1,70,8,16
10,110,696.631622864516,0,0,128802.555329176,128803.602411056,2,0,93,16,16
10,111,560.709991681506,1,0,128805.461290527,128806.508380877,2,1,78,8,4
10,112,592.521625658264,1,0,128808.167252726,128809.214334606,2,1,67,0,16
10,113,573.551519424655,1,0,128810.861445513,128811.908533167,2,1,66,0,4
10,114,669.27937665605,0,0,128813.567407711,128814.614497676,2,0,70,0,8
10,115,595.047739494476,0,0,128816.355724993,128817.402812647,2,0,88,16,16
10,116,435.072592576034,1,0,128819.061681032,128820.108767147,2,1,87,4,4
10,117,546.852551953634,0,0,128821.555873511,128822.602980029,2,0,98,0,8
10,118,656.480579578783,1,0,128824.344189252,128825.391281142,2,1,91,4,16
10,119,608.085597326863,0,0,128827.226623715,128828.27370906,2,0,69,8,8
10,120,696.40372597496,1,0,128829.991412953,128831.038494448,2,1,95,16,16
10,121,645.286684753955,0,0,128832.897376229,128833.944457724,2,0,79,16,0
10,122,751.932804778335,1,0,128835.732756143,128836.779841488,2,1,83,8,0
10,123,698.219586833147,0,0,128838.709317025,128839.756390051,2,0,81,0,4
10,124,886.611397014349,0,0,128841.638811425,128842.685903314,2,0,73,8,0
10,125,759.199712847476,1,0,128844.662419541,128845.709505656,2,1,80,4,0
10,126,557.438978401478,1,0,128847.638980423,128848.686068463,2,1,74,16,0
10,127,500.150628009578,0,0,128850.321408418,128851.368490298,2,0,95,8,8
10,128,489.066062087659,1,0,128852.980307599,128854.027398718,2,1,75,4,8
10,129,865.020091601764,0,0,128855.52156348,128856.568651135,2,0,61,0,0
10,130,664.776488294592,1,0,128858.580474441,128859.627556706,2,1,85,16,8
10,131,629.468638857361,0,0,128861.357021541,128862.404108041,2,0,98,8,0
10,132,646.496232089703,1,0,128864.168864172,128865.215949132,2,1,83,4,8
10,133,603.642762871459,0,0,128866.9336511,128867.98073683,2,0,100,0,8
10,134,755.472905773786,1,0,128869.780793881,128870.827876532,2,1,77,4,4
10,135,691.955887028598,0,0,128872.604466748,128873.651490884,2,0,70,8,0
10,136,843.688249849947,1,0,128875.54567166,128876.592751616,2,1,61,4,8
10,137,771.881096821744,1,0,128878.522217529,128879.569314038,2,1,91,8,16
10,138,538.006918999599,1,0,128881.381130491,128882.428219686,2,1,69,0,16
10,139,783.91266669496,0,0,128884.028263341,128885.075363314,2,0,94,0,4
10,140,483.516464868444,1,0,128886.910696648,128887.957783533,2,1,86,4,4
10,141,630.796369208838,0,0,128889.5813714,128890.628449816,2,0,66,16,8
10,142,546.586158976424,0,0,128892.428505712,128893.475594907,2,0,95,8,8
10,143,739.466998929856,1,0,128895.122708893,128896.169789618,2,1,72,16,8
10,144,670.078170645866,1,0,128898.111021863,128899.158106438,2,1,61,4,0
10,145,738.634328372427,0,0,128900.899340685,128901.946423335,2,0,68,16,4
10,146,648.831405284,1,0,128903.71118601,128904.75827174,2,1,89,8,16
10,147,616.77686094481,1,0,128906.617156986,128907.664262349,2,1,90,0,0
10,148,535.535084665753,0,0,128909.417246374,128910.4643194,2,0,87,4,16
10,149,522.36711003934,1,0,128912.111427612,128913.158510262,2,1,74,8,4
10,150,431.73960056447,1,0,128914.782090045,128915.829177315,2,1,64,8,16
10,151,607.217510347255,0,0,128917.464522659,128918.511611469,2,0,85,4,16
10,152,601.166693959385,1,0,128920.158717371,128921.205810415,2,1,62,4,4
10,153,537.878727001953,0,0,128922.899982799,128923.94706314,2,0,78,0,16
10,154,613.478130471776,0,0,128925.535346622,128926.582435047,2,0,86,4,4
10,155,639.983847519034,1,0,128928.217768458,128929.264869201,2,1,73,16,16
10,156,528.101488511311,0,0,128930.982564625,128932.029645735,2,0,86,8,16
10,157,427.337571978569,0,0,128933.653225903,128934.700309708,2,0,76,0,16
10,158,726.67898076179,0,0,128936.218008673,128937.265088629,2,0,91,4,8
10,159,713.678464147961,0,0,128939.029858619,128940.076937035,2,0,65,0,0
10,160,735.210870552692,1,0,128941.865223519,128942.912315794,2,1,100,8,8
10,161,554.512505157618,0,0,128952.500825248,128953.547909823,3,0,76,4,0
10,162,814.018538658274,0,0,128955.277383512,128956.324458848,3,0,81,4,4
10,163,654.478012671461,1,0,128958.195105806,128959.242194231,3,1,76,8,8
10,164,791.131454636343,1,0,128960.93636623,128961.983453115,3,1,61,16,8
10,165,827.668099460425,0,0,128963.924706532,128964.971773014,3,0,94,4,4
10,166,570.779030575068,1,0,128966.889484529,128967.936569874,3,1,78,8,4
10,167,732.979636828532,0,0,128969.607209595,128970.654295325,3,0,61,16,8
10,168,752.26117647253,0,0,128972.47787657,128973.52496538,3,0,68,16,0
10,169,703.663319785846,0,0,128975.442669196,128976.489754926,3,0,83,4,8
10,170,644.333136457135,0,0,128978.289803508,128979.336891548,3,0,88,4,4
10,171,780.608546774602,1,0,128981.007537427,128982.054617383,3,1,93,16,0
10,172,761.214983460377,1,0,128983.995855402,128985.042942672,3,1,97,0,8
10,173,973.420478709158,1,0,128986.960647257,128988.007729908,3,1,92,0,16
10,174,700.716828592704,0,0,128990.137210372,128991.18431689,3,0,93,0,0
10,175,754.326107067754,1,0,128993.007880813,128994.054968852,3,1,92,0,8
10,176,455.795426067198,1,0,128995.996201097,128997.043292601,3,1,84,16,8
10,177,492.861007238389,1,0,128998.702229509,128999.749253645,3,1,73,16,8
10,178,650.784312238102,0,0,129001.408125494,129002.455210069,3,0,69,16,4
10,179,630.284756101901,1,0,129004.184673364,129005.231762559,3,1,84,0,4
10,180,527.828166232212,1,0,129006.972994495,129008.02008061,3,1,91,8,0
10,181,521.927484616754,0,0,129009.678952459,129010.726037804,3,0,85,0,0
10,182,675.148491471191,1,0,129012.3966756,129013.44376287,3,1,61,16,16
10,183,540.280883389642,0,0,129015.161460988,129016.208550568,3,0,64,0,0
10,184,551.153335822164,0,0,129017.855654545,129018.902745279,3,0,84,8,8
10,185,628.151302444167,0,0,129020.502793553,129021.549875819,3,0,93,4,0
10,186,676.329936657567,1,0,129023.220520159,129024.267605504,3,1,71,4,16
10,187,630.598499279586,0,0,129026.044126812,129027.091211002,3,0,68,16,4
10,188,569.786601219676,0,0,129028.914796482,129029.961886832,3,0,69,16,0
10,189,589.68176865892,0,0,129031.714918977,129032.761972755,3,0,62,8,4
10,190,557.250732483226,0,0,129034.55026001,129035.597339196,3,0,88,8,4
10,191,551.172583858715,0,0,129037.350339004,129038.397429353,3,0,87,8,0
10,192,561.691257171333,0,0,129040.068065609,129041.115152109,3,0,65,8,16
10,193,461.838928196812,0,1,129042.679927565,129043.726987888,3,1,87,16,4
10,194,917.962617691956,0,0,129045.397633768,129046.444716418,3,0,71,8,4
10,195,1721.24910641287,0,0,129048.52713425,129049.574221135,3,0,93,0,0
10,196,1449.7534637776,1,0,129052.350780554,129053.39785512,3,1,63,8,4
10,197,579.107276003924,1,0,129055.974397678,129057.021487643,3,1,74,16,16
10,198,1187.34059006965,1,0,129058.73919654,129059.786274571,3,1,86,16,4
10,199,457.323336129775,0,0,129061.998108964,129063.045197003,3,0,84,0,4
10,200,570.375591487391,1,0,129064.562891734,129065.609976694,3,1,70,0,8
10,201,521.236479689833,0,0,129067.362966108,129068.410054918,3,0,71,16,0
10,202,602.896708529443,1,0,129069.951277693,129070.998367272,3,1,83,4,16
10,203,622.114344660076,1,0,129072.657239891,129073.704321771,3,1,62,8,16
10,204,687.95075318485,1,0,129075.363197085,129076.410288204,3,1,69,4,8
10,205,605.819717107806,1,0,129078.210343331,129079.257438685,3,1,63,0,16
10,206,409.753710147925,1,0,129081.010433874,129082.057506515,3,1,87,4,0
10,207,526.582432561554,1,0,129083.551672432,129084.598764321,3,1,94,8,0
10,208,682.687181979418,0,0,129086.210568918,129087.257653108,3,0,87,8,16
10,209,580.7418202603,1,0,129089.128347031,129090.175396575,3,1,81,0,16
10,210,667.818064859603,1,0,129091.787204251,129092.834311154,3,1,72,8,16
10,211,516.066069030785,1,0,129094.657876231,129095.704957727,3,1,70,0,16
10,212,471.439469605684,1,0,129097.26971817,129098.316804285,3,1,69,0,8
10,213,491.989840593305,1,0,129099.905090077,129100.952172342,3,1,96,4,8
10,214,525.130744776106,1,0,129102.563988488,129103.611070753,3,1,67,0,4
10,215,508.675203527673,1,1,129105.152298532,129106.199381182,3,0,90,4,16
10,216,786.144285390037,1,0,129107.728840705,129108.77592451,3,1,91,8,8
10,217,674.888257854036,0,0,129110.717175233,129111.764250569,3,0,68,16,4
10,218,664.836157244281,0,0,129113.62313543,129114.67021808,3,0,74,8,8
10,219,489.511076957569,1,0,129116.423210959,129117.470294764,3,1,65,16,16
10,220,644.684605824295,1,0,129119.129172387,129120.176254653,3,1,78,8,8
10,221,579.597331321565,0,0,129121.882188364,129122.929281023,3,0,74,0,4
10,222,694.775726064108,0,0,129124.54109255,129125.588175585,3,0,81,4,4
10,223,521.015512087615,1,0,129127.364709597,129128.411793402,3,1,75,0,8
10,224,669.096135243308,0,0,129130.129490365,129131.17657263,3,0,95,4,0
10,225,633.466458457406,0,0,129132.847215431,129133.894298466,3,0,64,0,0
10,226,667.191348416964,1,0,129135.694355902,129136.741443557,3,1,84,16,16
10,227,601.083542394917,1,0,129138.435615941,129139.482699746,3,1,62,4,8
10,228,614.341597902239,0,0,129141.259223364,129142.306309094,3,0,73,4,4
10,229,633.788285806077,1,0,129144.129924986,129145.176977994,3,1,80,0,4
10,230,748.860046383925,0,0,129146.847615405,129147.894759264,3,0,90,4,16
10,231,569.294621105655,0,0,129149.671233607,129150.718315487,3,0,97,8,0
10,232,670.533964424976,0,0,129152.436013991,129153.48310665,3,0,90,4,16
10,233,722.159924043808,0,0,129155.17727172,129156.224353985,3,0,71,16,0
10,234,641.750048409449,0,0,129157.965589001,129159.012670882,3,0,99,4,8
10,235,597.816763678566,1,0,129160.67154735,129161.718643859,3,1,65,0,16
10,236,711.673972429708,1,0,129163.424570641,129164.471662145,3,1,72,8,0
10,237,618.43719756871,1,0,129166.354066196,129167.401155776,3,1,95,8,16
10,238,660.709760704776,1,1,129169.03649958,129170.08358993,3,0,81,4,0
10,239,590.080588212004,0,0,129171.754221181,129172.801306526,3,0,85,16,8
10,240,676.79034997127,0,0,129174.448480566,129175.495501623,3,0,61,16,16
10,241,627.266662166221,0,0,129185.495798813,129186.542885698,4,0,83,16,0
10,242,581.165277297259,0,0,129188.28410724,129189.33120067,4,0,84,0,0
10,243,657.492641956196,0,0,129191.013599793,129192.060685138,4,0,98,4,4
10,244,686.427847627783,0,0,129193.813683791,129194.860786459,4,0,69,8,8
10,245,603.233934321906,1,0,129196.660820413,129197.707912687,4,1,62,4,8
10,246,532.135879388079,1,0,129199.413845244,129200.460927894,4,1,65,8,8
10,247,655.117432819679,0,0,129202.060980403,129203.108063438,4,0,89,4,0
10,248,538.468872153317,1,0,129204.79047026,129205.837560995,4,1,64,0,16
10,249,646.411155728856,1,0,129207.496426299,129208.543513184,4,1,96,8,8
10,250,600.73784746055,1,0,129210.367177966,129211.414196328,4,1,63,8,4
10,251,579.055691254325,1,0,129213.190711862,129214.237797592,4,1,67,0,4
10,252,626.029397637467,0,0,129215.990788161,129217.03787928,4,0,73,4,16
10,253,577.834210111178,0,0,129218.732058594,129219.779185515,4,0,83,16,4
10,254,723.170831523021,0,0,129221.402714482,129222.449805602,4,0,81,8,16
10,255,559.842674629181,0,0,129224.296912582,129225.344002546,4,0,96,0,0
10,256,612.522657364025,1,0,129227.026408599,129228.073489324,4,1,93,8,0
10,257,678.067650442244,1,0,129229.720599846,129230.767688655,4,1,68,4,8
10,258,554.249576831353,1,0,129232.485392548,129233.532477123,4,1,64,8,4
10,259,706.222925218754,0,0,129235.191349357,129236.238433547,4,0,68,16,16
10,260,645.262432226446,0,0,129238.097313403,129239.144398363,4,0,81,16,8
10,261,626.634171305341,1,0,129240.873876672,129241.920950083,4,1,82,4,16
10,262,554.358135821531,0,0,129243.66218202,129244.709269675,4,0,84,0,16
10,263,617.561411374481,1,0,129246.321083896,129247.368170781,4,1,67,8,0
10,264,656.719255377539,0,0,129249.144697863,129250.191831713,4,0,69,16,16
10,265,676.946259161923,1,0,129251.956538954,129253.003621989,4,1,100,8,4
10,266,647.058660062612,0,0,129254.768383895,129255.815468855,4,0,76,16,0
10,267,587.326192529872,1,0,129257.58023153,129258.62732265,4,1,84,16,8
10,268,623.507903335849,1,0,129260.392081476,129261.439160276,4,1,67,16,0
10,269,576.737456343835,0,0,129263.22745908,129264.274602939,4,0,72,8,0
10,270,488.169488002313,1,0,129266.039304021,129267.086387441,4,1,65,16,4
10,271,585.282434796682,1,0,129268.757025622,129269.804112507,4,1,88,16,16
10,272,579.456435603788,1,0,129271.46298936,129272.51007509,4,1,88,0,16
10,273,415.098123179632,1,0,129274.263069124,129275.310155624,4,1,87,16,4
10,274,511.148577701533,1,0,129276.757257753,129277.804345793,4,1,83,8,16
10,275,389.365022769198,1,1,129279.333799541,129280.380885656,4,0,64,4,16
10,276,550.281399249798,0,0,129281.827985476,129282.875074285,4,0,96,0,4
10,277,610.535103915026,1,0,129284.451597595,129285.49868371,4,1,96,8,16
10,278,450.843673228519,1,0,129287.275207713,129288.322356192,4,1,86,16,16
10,279,567.187344815466,1,0,129289.898812518,129290.945902483,4,1,91,4,16
10,280,462.971098371781,0,0,129292.640072942,129293.687157517,4,0,86,0,8
10,281,517.451928477385,0,0,129295.263681212,129296.310757318,4,0,92,0,8
10,282,533.486322427052,0,0,129297.969636866,129299.016717976,4,0,70,0,0
10,283,894.372594950255,0,0,129300.569712087,129301.616794738,4,0,90,16,8
10,284,654.605049785459,1,0,129303.581562725,129304.628648071,4,1,87,4,4
10,285,734.712731064064,0,0,129306.358183353,129307.405198251,4,0,61,0,0
10,286,543.069925552118,0,0,129309.22878758,129310.275867151,4,0,97,16,0
10,287,483.673528942745,0,0,129312.017144513,129313.064196752,4,0,96,0,0
10,288,429.75127720274,0,0,129314.570120531,129315.617229359,4,0,88,0,4
10,289,548.264203811414,1,0,129317.146658084,129318.193745739,4,1,69,0,4
10,290,449.637590529164,1,0,129319.829091084,129320.876181048,4,1,85,4,4
10,291,449.769632134121,1,0,129322.440931097,129323.488028376,4,1,84,4,4
10,292,517.827650372055,1,0,129324.994005665,129326.041043275,4,1,94,4,16
10,293,601.606704352889,0,0,129327.629321367,129328.676404788,4,0,63,4,4
10,294,724.980148035684,1,0,129330.41763326,129331.464722069,4,1,69,4,0
10,295,555.140376498457,1,0,129333.370661093,129334.417749518,4,1,83,8,4
10,296,481.581651081797,1,0,129336.10015172,129337.147240145,4,1,74,0,8
10,297,729.854523728136,0,0,129338.770876517,129339.817910277,4,0,72,0,8
10,298,742.103211596259,0,0,129341.735606779,129342.782690199,4,0,81,4,0
10,299,484.542385835084,0,0,129344.723927448,129345.771013948,4,0,78,0,16
10,300,466.904244516627,0,0,129347.39460143,129348.441679846,4,0,85,16,8
10,301,782.736995926825,0,0,129349.994673957,129351.041755837,4,0,71,0,16
10,302,694.82654093008,0,0,129352.853573061,129353.900662641,4,0,92,8,0
10,303,577.480430991272,0,1,129355.783075545,129356.83016166,4,1,72,16,16
10,304,595.275251427665,1,0,129358.489028889,129359.536119624,4,1,96,8,8
10,305,486.949931684649,0,0,129361.265652212,129362.312670189,4,0,77,0,8
10,306,557.114071343676,1,0,129363.983305675,129365.030392175,4,1,83,8,0
10,307,602.044019993627,0,0,129366.783392753,129367.830474248,4,0,77,4,0
10,308,536.462070653215,1,0,129369.618765738,129370.665849928,4,1,87,4,0
10,309,611.195696925279,1,0,129372.407091489,129373.454167595,4,1,78,8,16
10,310,1.1276589211775,1,1,129375.124810395,129376.171896125,4,0,83,8,8
10,311,611.678053013748,0,0,129377.230747032,129378.277836611,4,0,77,4,8
10,312,2095.3287609882,0,0,129379.983771862,129381.030855668,4,0,87,8,4
10,313,780.509226839058,1,0,129384.148599827,129385.195688252,4,1,65,16,4
10,314,616.992439085152,1,0,129387.019268728,129388.066401038,4,1,97,16,8
10,315,631.46004191367,1,0,129389.795827377,129390.842904253,4,1,72,4,8
10,316,596.291163383285,1,0,129392.65473187,129393.701810671,4,1,93,16,4
10,317,500.586018853937,1,0,129395.419513794,129396.466602219,4,1,93,0,4
10,318,552.521872043144,0,0,129398.125476762,129399.172554023,4,0,65,4,8
10,319,528.985358876525,0,0,129400.79614189,129401.843263806,4,0,78,8,16
10,320,694.210603382089,0,0,129403.419743231,129404.46683666,4,0,75,16,0
10,321,1072.76350434404,1,0,129413.514157601,129414.561254495,5,1,90,0,4
10,322,436.118916462874,1,0,129416.643656928,129417.690740349,5,1,76,16,0
10,323,603.065706396592,0,0,129419.290792472,129420.337880127,5,0,79,4,8
10,324,509.820462379139,0,0,129422.090874546,129423.137955657,5,0,69,8,16
10,325,611.653800457134,1,0,129424.738021639,129425.785103134,5,1,69,16,0
10,326,674.16068163584,1,0,129427.51455873,129428.56164369,5,1,82,8,0
10,327,432.414052163949,0,0,129430.279341424,129431.326438318,5,0,86,4,4
10,328,663.362141727703,0,0,129432.832357477,129433.879443592,5,0,69,16,0
10,329,545.208768657176,0,0,129435.726560581,129436.773650546,5,0,68,4,0
10,330,606.767875957303,0,0,129438.467879904,129439.514910585,5,0,94,8,8
10,331,517.673281035968,0,0,129441.209079119,129442.25615638,5,0,86,0,0
10,332,674.150287697557,1,0,129443.938563202,129444.985646622,5,1,91,16,8
10,333,551.007050657063,0,0,129446.797467311,129447.84455612,5,0,83,4,0
10,334,684.220096518402,0,0,129449.503429509,129450.550518704,5,0,94,4,8
10,335,633.219698458561,0,0,129452.25645203,129453.30354007,5,0,71,16,4
10,336,576.362504361896,0,0,129455.021242423,129456.068327768,5,0,82,8,8
10,337,600.744006820605,0,0,129457.797826479,129458.844872558,5,0,70,0,8
10,338,615.995005224249,1,0,129460.621395791,129461.668481906,5,1,80,8,4
10,339,474.505683669122,1,0,129463.350888728,129464.397981002,5,1,66,0,0
10,340,755.218061618507,1,0,129465.998030047,129467.045115007,5,1,91,0,0
10,341,520.252134519978,0,0,129468.951050566,129469.998135526,5,0,73,0,8
10,342,583.627102649189,1,0,129471.574654216,129472.621743411,5,1,85,16,0
10,343,577.170537420898,1,0,129474.304152543,129475.351232498,5,1,93,8,4
10,344,479.534813654027,1,0,129477.127759966,129478.17484762,5,1,77,0,8
10,345,685.518954793224,0,0,129479.739596129,129480.786690328,5,0,72,8,8
10,346,553.29910821456,1,0,129482.633803468,129483.680889968,5,1,67,4,0
10,347,794.038294858183,1,0,129485.26917499,129486.316258795,5,1,94,4,16
10,348,464.110197877744,1,0,129488.175142501,129489.222226691,5,1,75,8,0
10,349,605.243045574753,0,0,129490.892867566,129491.939946752,5,0,66,8,16
10,350,1017.50813277613,0,0,129493.716476914,129494.763557639,5,0,82,16,16
10,351,498.592691001249,1,0,129496.963626855,129498.01071143,5,1,64,4,4
10,352,654.648550364072,0,0,129499.528405391,129500.575492276,5,0,78,16,16
10,353,481.075042465818,0,0,129502.257895634,129503.304983673,5,0,84,8,4
10,354,616.138595665689,0,0,129504.869737187,129505.916829076,5,0,65,8,16
10,355,577.030411615851,0,0,129507.658059473,129508.705139429,5,0,93,16,16
10,356,445.522357869777,0,0,129510.340485543,129511.387573583,5,0,95,16,4
10,357,532.391878427006,0,0,129512.987616083,129514.034702967,5,0,98,8,4
10,358,644.312348566018,1,0,129515.599458406,129516.64654606,5,1,87,8,4
10,359,560.008592816303,0,0,129518.328952113,129519.376039383,5,0,78,4,16
10,360,1113.36302713607,1,0,129521.011383187,129522.058471612,5,1,67,0,8
10,361,729.642795209656,0,0,129524.32917462,129525.37621146,5,0,91,8,0
10,362,660.069955585641,1,0,129527.246859188,129528.293949922,5,1,81,8,8
10,363,614.11216117267,1,0,129530.058705668,129531.105785624,5,1,99,8,16
10,364,630.913782311836,0,0,129532.858783123,129533.905871162,5,0,94,16,16
10,365,1260.46738927835,1,0,129535.694163807,129536.741244532,5,1,79,4,16
10,366,602.002059240476,0,0,129539.023664982,129540.070753022,5,0,94,16,16
10,367,541.394960411708,1,1,129541.694334729,129542.741424694,5,0,89,16,8
10,368,668.529087750358,0,0,129544.364988308,129545.412091746,5,0,92,4,4
10,369,500.721140153473,0,0,129547.223948236,129548.270989696,5,0,86,16,8
10,370,532.85113684251,1,0,129549.835824821,129550.882895537,5,1,87,0,0
10,371,566.495185004896,1,0,129552.471116271,129553.518200076,5,1,97,4,4
10,372,693.81139887264,1,0,129555.141786403,129556.188867129,5,1,64,0,16
10,373,649.40923168615,0,0,129557.98892187,129559.036007215,5,0,77,4,0
10,374,577.72950072831,0,0,129560.847834833,129561.894916328,5,0,84,4,0
10,375,568.999741022708,0,0,129563.624383088,129564.671471128,5,0,64,16,4
10,376,841.423524514539,1,0,129566.400929034,129567.448015149,5,1,89,16,0
10,377,884.608830107027,1,0,129569.424546773,129570.471699872,5,1,86,0,4
10,378,513.994209119119,1,0,129572.495227146,129573.542313261,5,1,65,16,4
10,379,625.431168300565,0,0,129575.165890734,129576.212976849,5,0,83,4,16
10,380,500.730764179025,1,0,129577.930671887,129578.977760697,5,1,63,0,16
10,381,900.561997288605,0,0,129580.636633701,129581.683728285,5,0,82,4,4
10,382,655.130521496176,1,0,129583.766143807,129584.813226072,5,1,76,0,8
10,383,553.105472848983,0,0,129586.625043681,129587.67213557,5,0,87,4,8
10,384,719.161463115597,1,0,129589.425131914,129590.472216874,5,1,73,4,16
10,385,655.742224451387,0,0,129592.260497585,129593.307587164,5,0,65,8,16
10,386,636.735161970137,0,0,129595.1664701,129596.21356045,5,0,94,4,8
10,387,1006.07825689076,1,0,129597.895964962,129598.943042223,5,1,80,0,16
10,388,475.744103066972,1,0,129600.990164909,129602.037276816,5,1,74,16,8
10,389,497.353501661564,1,0,129603.660831192,129604.707920771,5,1,64,0,4
10,390,606.468761281576,1,0,129606.284432917,129607.331526347,5,1,87,0,4
10,391,1001.0622155678,0,0,129609.119812447,129610.166901641,5,0,83,8,0
10,392,1139.66817953042,0,0,129612.35521107,129613.40229295,5,0,75,0,16
10,393,591.828695920412,1,0,129615.614153905,129616.661256959,5,1,99,0,16
10,394,1428.8801105431,1,0,129618.320117644,129619.367224546,5,1,88,16,8
10,395,578.360836705542,1,0,129622.002545639,129623.049626364,5,1,93,0,0
10,396,684.745568229118,1,0,129624.685034457,129625.732063983,5,1,68,8,0
10,397,585.093033994781,1,0,129627.496817419,129628.543907769,5,1,70,16,4
10,398,491.488236453733,1,0,129630.179245029,129631.226330375,5,1,73,4,8
10,399,435.5453246244,1,0,129632.791096207,129633.838178472,5,1,95,0,4
10,400,515.346576983575,0,0,129635.285277137,129636.332360942,5,0,76,8,8
10,401,557.739247946301,1,0,129644.062009788,129645.109088589,6,1,82,0,8
10,402,690.292855681037,0,0,129646.756197956,129647.803284071,6,0,98,4,8
10,403,770.861335229711,1,0,129649.626924215,129650.673954126,6,1,68,4,4
10,404,573.19851021748,1,0,129652.46225139,129653.509329421,6,1,83,4,16
10,405,641.433995449916,0,0,129655.121149031,129656.168237071,6,0,97,4,8
10,406,656.250372936483,0,0,129657.862400216,129658.909486331,6,0,70,16,8
10,407,605.562948141596,1,0,129660.686011488,129661.733100683,6,1,61,4,16
10,408,521.784279146232,1,0,129663.415502886,129664.462651749,6,1,63,4,4
10,409,657.290922405082,0,0,129666.086174173,129667.133256823,6,0,96,8,4
10,410,819.783714017831,0,0,129668.96861441,129670.015694365,6,0,72,0,0
10,411,730.351893304032,1,0,129671.956929305,129673.004016959,6,1,100,0,16
10,412,762.230510474183,1,0,129674.909961373,129675.957037479,6,1,65,8,16
10,413,632.624163859873,1,0,129677.7335738,129678.780653371,6,1,71,0,8
10,414,761.413238360547,0,0,129680.474821135,129681.52190802,6,0,98,16,4
10,415,716.224980904371,1,0,129683.321963146,129684.369050801,6,1,62,0,4
10,416,809.806295816088,0,0,129686.098565681,129687.145600981,6,0,62,16,0
10,417,632.084833559929,0,0,129689.028014271,129690.075097691,6,0,74,0,0
10,418,713.626109456527,0,0,129691.910452583,129692.957538698,6,0,87,4,16
10,419,650.16375517007,1,0,129694.745828647,129695.792910913,6,1,71,4,8
10,420,691.461597161833,1,0,129697.463553328,129698.510633283,6,1,88,16,8
10,421,625.087783118943,1,0,129700.345991255,129701.39307737,6,1,75,16,0
10,422,684.148878732231,0,0,129703.110777028,129704.157860833,6,0,95,0,4
10,423,575.064415999805,0,0,129706.004971663,129707.052053158,6,0,75,8,8
10,424,1273.14954319445,1,0,129708.663877003,129709.710961963,6,1,88,8,4
10,425,669.187370978761,0,0,129712.028676019,129713.075765213,6,0,88,16,16
10,426,712.545908987522,1,0,129714.946409091,129715.993494051,6,1,72,16,4
10,427,659.540634267614,1,0,129717.899436925,129718.946523425,6,1,65,16,16
10,428,863.872907924815,1,0,129720.817169998,129721.864251878,6,1,68,4,4
10,429,1201.94947358686,1,0,129723.840783503,129724.887864613,6,1,80,16,16
10,430,965.342457900988,1,0,129727.264413793,129728.311503372,6,1,97,8,4
10,431,669.09498035966,0,0,129730.299795169,129731.346878975,6,0,63,4,4
10,432,842.906394129386,1,0,129733.205757291,129734.252844561,6,1,82,8,8
10,433,835.898179837386,0,0,129736.252959279,129737.300003818,6,0,75,8,16
10,434,1191.1490088678,0,0,129739.229467036,129740.276555461,6,0,75,0,0
10,435,763.046242762357,0,0,129742.582500875,129743.6295893,6,0,98,16,16
10,436,813.219744653907,1,0,129745.488474546,129746.535559121,6,1,81,16,0
10,437,767.365889696521,0,0,129748.359140366,129749.406228791,6,0,83,16,4
10,438,617.44746293698,0,0,129751.218049094,129752.265138674,6,0,64,4,8
10,439,574.008468072861,1,0,129754.041658827,129755.088756876,6,1,64,0,4
10,440,762.317511660513,0,0,129756.712328574,129757.759410455,6,0,80,0,16
10,441,802.667579759145,0,0,129759.547720037,129760.594855427,6,0,92,8,16
10,442,601.723347528605,0,0,129762.441905433,129763.488993473,6,0,89,8,8
10,443,690.126937493915,1,0,129765.277283037,129766.324363378,6,1,87,0,8
10,444,1495.97264669137,0,0,129768.030297474,129769.077410921,6,0,100,16,4
10,445,784.542077861261,1,0,129771.700991859,129772.748082209,6,1,61,4,0
10,446,966.565093913232,0,0,129774.665783715,129775.712873294,6,0,81,0,4
10,447,620.561412142706,0,0,129777.818816476,129778.865901436,6,0,62,16,0
10,448,690.712078168872,0,0,129780.489515865,129781.536575803,6,0,67,8,0
10,449,649.763010806055,0,0,129783.336620535,129784.383712424,6,0,98,0,4
10,450,610.869634983828,0,0,129786.20729752,129787.254445613,6,0,81,4,4
10,451,673.819991192431,1,0,129788.901498006,129789.948581426,6,1,62,8,8
10,452,716.143754150835,0,0,129791.678042796,129792.725128911,6,0,66,16,4
10,453,680.591069540242,1,0,129794.607534117,129795.654629086,6,1,65,16,8
10,454,1111.72925280698,0,0,129797.478209946,129798.525336867,6,0,88,8,0
10,455,463.598969698069,1,0,129800.666535158,129801.713627048,6,1,64,16,8
10,456,915.199367911555,0,0,129803.348973932,129804.396051193,6,0,85,4,0
10,457,728.584152559051,1,0,129806.431410627,129807.478493663,6,1,89,0,16
10,458,917.906798364129,1,0,129809.255027289,129810.30210994,6,1,98,4,16
10,459,615.259344835067,0,0,129812.419822148,129813.466900563,6,0,67,0,0
10,460,703.591332086944,0,0,129815.290492588,129816.337581013,6,0,78,4,8
10,461,545.855503063649,1,0,129818.114143896,129819.161247335,6,1,67,0,16
10,462,648.964601772605,1,0,129820.725941564,129821.773091967,6,1,76,0,16
10,463,754.385391046526,0,0,129823.596615084,129824.643696579,6,0,83,8,4
10,464,554.870133899385,1,0,129826.432052357,129827.479083808,6,1,92,8,0
10,465,550.853451233706,0,0,129829.24383301,129830.290925284,6,0,63,4,16
10,466,983.402131474577,1,0,129831.973325177,129833.020410907,6,1,79,8,8
10,467,610.263706446858,1,0,129835.114592761,129836.161680801,6,1,78,4,0
10,468,697.076637734426,0,0,129837.914675989,129838.961756715,6,0,94,0,0
10,469,525.505696743494,1,0,129840.738289957,129841.785367988,6,1,93,8,16
10,470,424.933490779949,1,0,129843.467775195,129844.514874398,6,1,86,0,8
10,471,606.0233614553,0,0,129846.079616363,129847.126698628,6,0,81,8,16
10,472,514.856906651403,1,0,129848.832634649,129849.879723459,6,1,94,16,16
10,473,488.763097819174,0,0,129851.585659865,129852.6327941,6,0,85,16,8
10,474,716.365876607597,1,0,129854.315152417,129855.362240072,6,1,69,16,0
10,475,606.169261664036,1,0,129857.115232566,129858.162312137,6,1,78,8,4
10,476,492.404443546548,0,0,129859.974140909,129861.0212174,6,0,86,4,0
10,477,511.759510744014,1,0,129862.656566979,129863.703701599,6,1,73,8,0
10,478,607.793411953026,0,0,129865.256676077,129866.30378452,6,0,94,0,8
10,479,576.454510039184,1,0,129867.986133983,129869.033214708,6,1,82,4,0
10,480,721.949735365342,0,0,129870.821515822,129871.868608866,6,0,76,8,0
10,481,490.349136962323,1,0,129878.11583888,129879.162926919,7,1,65,16,16
10,482,712.347654101904,1,1,129880.857090834,129881.904181184,7,0,93,16,8
10,483,380.960555077763,1,0,129883.657169828,129884.704266337,7,1,64,16,8
10,484,432.891788717825,1,0,129886.198479604,129887.245517984,7,1,85,4,8
10,485,386.616401519859,0,0,129888.786737294,129889.833822254,7,0,84,8,16
10,486,664.886972095701,0,0,129891.257419437,129892.304490538,7,0,91,8,4
10,487,754.55400395731,0,0,129894.057477258,129895.104561063,7,0,91,8,4
10,488,478.836879425216,1,0,129896.928148853,129897.975236893,7,1,81,8,16
10,489,563.065567796002,1,0,129899.539993101,129900.587076521,7,1,96,0,4
10,490,539.153332734713,1,0,129902.30477233,129903.351863449,7,1,77,4,16
10,491,611.040557661909,0,0,129904.893086224,129905.940171569,7,0,63,16,4
10,492,637.972426498891,0,0,129907.70493078,129908.75201651,7,0,66,4,4
10,493,863.155340703088,1,1,129910.516769561,129911.563862605,7,0,98,8,4
10,494,1154.63084216753,0,0,129913.587456478,129914.634537203,7,0,72,0,8
10,495,1475.16127217386,1,0,129916.869894636,129917.916993069,7,1,83,16,4
10,496,1596.33389406372,0,0,129920.493535242,129921.540623667,7,0,61,4,8
10,497,588.500708414358,1,0,129924.211296109,129925.258379914,7,1,79,8,0
10,498,540.782487529214,0,0,129926.870191826,129927.91728025,7,0,77,8,16
10,499,542.413182163727,0,0,129929.470260888,129930.517355857,7,0,73,0,8
10,500,1462.96378412808,0,0,129932.093875702,129933.140957197,7,0,88,4,8
10,501,512.865118624177,0,0,129935.799860613,129936.846967131,7,0,77,0,0
10,502,1033.77773787361,0,0,129938.505817422,129939.552950502,7,0,81,0,4
10,503,868.407748042955,0,0,129941.694156492,129942.741235678,7,0,98,8,8
10,504,790.771901098196,0,0,129944.611891105,129945.658968366,7,0,100,4,0
10,505,1018.29576290038,1,0,129947.647260163,129948.694356672,7,1,89,16,8
10,506,484.015374284354,1,0,129950.882649162,129951.929801876,7,1,79,0,4
10,507,658.74068539415,0,0,129953.482729773,129954.529814733,7,0,82,8,0
10,508,586.269474690198,1,0,129956.306340661,129957.353426006,7,1,79,16,16
10,509,558.392911654664,1,0,129959.118184062,129960.165265557,7,1,78,16,4
10,510,734.530259564053,0,0,129961.88296868,129962.930060184,7,0,64,8,0
10,511,763.777668587863,1,0,129964.84781212,129965.89484819,7,1,61,8,4
10,512,600.515724989236,1,0,129967.83608236,129968.883170399,7,1,65,16,16
10,513,599.207627630676,1,0,129970.530282076,129971.577368191,7,1,100,4,16
10,514,578.374310338404,0,0,129973.353898738,129974.400976384,7,0,95,4,0
10,515,498.705099598737,1,0,129976.130437754,129977.177577764,7,1,86,0,16
10,516,475.29331377882,1,0,129978.848162435,129979.895248935,7,1,74,0,0
10,517,507.020256351097,1,0,129981.542362536,129982.589450576,7,1,85,4,16
10,518,662.199944577878,0,0,129984.165968881,129985.213051146,7,0,69,4,16
10,519,725.819362938637,0,0,129986.895467977,129987.942589124,7,0,62,4,0
10,520,448.528133041691,0,0,129989.730834418,129990.777922073,7,0,65,0,0
10,521,598.746059447876,1,0,129992.307420861,129993.35447233,7,1,74,16,16
10,522,591.389455468743,0,0,129995.095698492,129996.142778063,7,0,92,0,16
10,523,748.033535201103,0,0,129997.931076096,129998.978155282,7,0,100,8,8
10,524,759.732498816447,1,0,130000.778217723,130001.82532732,7,1,71,8,4
10,525,612.189281164319,1,0,130003.754770135,130004.801853171,7,1,86,0,0
10,526,555.853709156509,0,0,130006.531349188,130007.578413745,7,0,90,0,8
10,527,496.389944368275,0,0,130009.21375139,130010.2608402,7,0,88,4,4
10,528,541.14974028198,1,0,130011.766761284,130012.813848169,7,1,92,8,16
10,529,616.39998415194,0,0,130014.531549752,130015.578641257,7,0,91,0,8
10,530,617.605296924012,1,0,130017.343400852,130018.390488507,7,1,62,4,0
10,531,541.066973673878,1,0,130020.025831542,130021.072916502,7,1,98,8,8
10,532,448.23825743515,1,0,130022.73179528,130023.778877931,7,1,75,16,16
10,533,431.59908981761,1,0,130025.308335528,130026.355435117,7,1,63,16,4
10,534,612.644305016147,1,0,130027.873120609,130028.920200564,7,1,69,4,4
10,535,668.422838527476,1,0,130030.708490899,130031.755579708,7,1,69,16,0
10,536,573.138071355061,0,0,130033.602690538,130034.649781272,7,0,64,16,0
10,537,477.246220732923,1,0,130036.367480161,130037.414563966,7,1,75,0,4
10,538,538.250984245678,0,0,130038.920491595,130039.967578095,7,0,74,0,4
10,539,817.916268395493,1,0,130041.567627909,130042.614721338,7,1,67,0,16
10,540,502.654799056472,1,0,130044.450063911,130045.497150026,7,1,93,4,4
10,541,522.658140529529,0,0,130047.203090281,130048.250167542,7,0,73,8,0
10,542,562.334141970496,1,0,130049.803165118,130050.850243918,7,1,69,4,16
10,543,791.583783764509,0,0,130052.462067378,130053.509145024,7,0,82,16,8
10,544,800.164563595899,0,0,130055.403326185,130056.45041307,7,0,90,4,8
10,545,591.831775614992,1,0,130058.438760302,130059.485802916,7,1,84,8,0
10,546,798.267475984176,1,0,130061.168197805,130062.21528469,7,1,62,8,8
10,547,831.754845028627,0,0,130064.191814005,130065.2389032,7,0,70,4,8
10,548,593.946751148906,1,0,130067.109545538,130068.156680543,7,1,92,0,8
10,549,567.435644639772,1,0,130069.791972378,130070.839063497,7,1,94,8,8
10,550,640.419238363393,1,0,130072.497938041,130073.545021076,7,1,97,16,8
10,551,596.774674355402,0,0,130075.262730743,130076.309806849,7,0,90,0,0
10,552,489.97072034399,0,0,130078.027510742,130079.074598782,7,0,69,0,16
10,553,555.108424741775,0,0,130080.651111697,130081.698198197,7,0,96,8,16
10,554,542.631070056814,0,0,130083.427663417,130084.474751842,7,0,75,16,0
10,555,600.522654276574,0,1,130086.027743258,130087.074826679,7,1,83,16,0
10,556,501.582297831192,1,0,130088.792583696,130089.839613607,7,1,63,4,4
10,557,472.212086257059,0,0,130091.369073899,130092.416158859,7,0,75,0,16
10,558,511.5062064433,0,0,130094.08679396,130095.133885849,7,0,94,4,0
10,559,422.101332980674,0,0,130096.675110934,130097.722197049,7,0,74,16,0
10,560,534.491070531658,1,0,130099.298715354,130100.345797619,7,1,83,16,4
10,561,1705.08613549464,0,0,130107.193057044,130108.240147393,8,0,90,4,0
10,562,641.651883357554,1,0,130111.040241016,130112.087362547,8,1,92,16,0
10,563,497.473609473673,0,0,130113.781489121,130114.828576391,8,0,94,8,8
10,564,514.760281439521,1,0,130116.452150399,130117.499244213,8,1,94,0,4
10,565,535.987798750284,1,0,130119.216932708,130120.264025367,8,1,77,16,16
10,566,664.643676762353,0,0,130121.911132424,130122.958221234,8,0,88,16,4
10,567,452.435101833544,1,1,130124.805333218,130125.852419718,8,0,74,4,8
10,568,544.541631315951,1,0,130127.464232399,130128.511323518,8,1,65,0,0
10,569,789.80911373219,1,0,130130.076074722,130131.123159682,8,1,81,4,8
10,570,602.670736436266,1,0,130132.982040308,130134.029126808,8,1,100,0,16
10,571,697.920857128338,0,0,130135.793887174,130136.840990227,8,0,90,8,16
10,572,643.271029155585,0,0,130138.664561079,130139.711649888,8,0,90,4,8
10,573,687.052639274043,1,0,130141.464636608,130142.511732347,8,1,99,8,8
10,574,468.106092637754,1,0,130144.217662594,130145.264747169,8,1,87,8,8
10,575,490.345287355012,1,0,130146.888330801,130147.935414606,8,1,85,0,8
10,576,758.275806540041,0,0,130149.535456721,130150.582547071,8,0,69,8,0
10,577,514.613226361689,1,0,130152.523787784,130153.570935493,8,1,96,4,4
10,578,914.452543642255,1,0,130155.112098599,130156.1591774,8,1,76,16,4
10,579,617.200702952687,0,0,130158.100420423,130159.147499994,8,0,65,8,16
10,580,644.924436492147,0,0,130160.79461552,130161.8416974,8,0,67,8,0
10,581,526.897715579253,0,0,130163.594734165,130164.641834138,8,0,73,4,16
10,582,468.921824925928,1,0,130166.312416885,130167.359509159,8,1,74,4,4
10,583,592.266781502985,0,0,130168.983085092,130170.030175442,8,0,87,16,8
10,584,647.915583162103,1,0,130171.77139506,130172.818488874,8,1,94,16,0
10,585,588.098809181247,0,0,130174.536183142,130175.583272337,8,0,63,8,16
10,586,519.111880144919,1,0,130177.336262521,130178.383350176,8,1,62,0,4
10,587,728.95025042817,1,0,130180.077574145,130181.124625228,8,1,79,4,0
10,588,621.532668650616,0,0,130182.971722969,130184.018808314,8,0,79,16,0
10,589,411.210787395248,1,0,130185.701216291,130186.748302021,8,1,84,0,4
10,590,466.909633963951,0,0,130188.195467284,130189.24249681,8,0,84,4,4
10,591,434.018184503657,1,0,130190.713124674,130191.760210404,8,1,94,16,16
10,592,479.697267175652,1,0,130193.254378245,130194.30146667,8,1,73,16,4
10,593,718.378837482305,1,0,130195.936801621,130196.98388966,8,1,92,4,0
10,594,907.136745547177,0,0,130198.725130451,130199.772212332,8,0,97,0,16
10,595,588.794048686395,0,0,130201.819342332,130202.866463479,8,0,63,8,8
10,596,641.337755208951,1,0,130204.595877499,130205.642969003,8,1,85,0,16
10,597,515.2992267831,1,0,130207.454784302,130208.501879271,8,1,98,0,8
10,598,861.787574409391,0,0,130210.137263497,130211.184308036,8,0,91,16,4
10,599,489.946852772846,1,0,130213.054953839,130214.102036104,8,1,93,4,4
10,600,492.601928519434,1,0,130215.784440617,130216.831521727,8,1,98,8,4
10,601,552.943019327358,0,0,130218.513927779,130219.561019284,8,0,77,8,4
10,602,592.638653790345,0,0,130221.149302381,130222.196384261,8,0,95,4,8
10,603,468.043343993486,0,0,130223.831734995,130224.878820341,8,0,76,0,16
10,604,512.112134994823,0,1,130226.490638026,130227.537719907,8,1,70,16,8
10,605,644.559493492125,1,0,130229.208353083,130230.255444972,8,1,98,16,16
10,606,550.20209729264,1,0,130231.949614276,130232.996699621,8,1,64,8,0
10,607,563.6876647186,1,0,130234.726170616,130235.773254036,8,1,78,8,4
10,608,630.578866286669,0,0,130237.479191982,130238.526275017,8,0,100,0,0
10,609,490.295242430875,0,0,130240.314565352,130241.361649157,8,0,93,0,8
10,610,531.83406998869,0,0,130242.996999121,130244.044074842,8,0,66,4,16
10,611,553.823810012545,0,0,130245.655917165,130246.703031767,8,0,94,0,4
10,612,1338.32805343263,1,0,130248.291259815,130249.33835132,8,1,70,8,0
10,613,1080.69485501619,1,0,130251.761946578,130252.809036927,8,1,85,0,0
10,614,706.129379701451,0,0,130254.997335192,130256.044423232,8,0,88,16,16
10,615,680.673836148344,0,0,130257.868007557,130258.915094827,8,0,98,16,0
10,616,583.843450716813,0,0,130260.644561587,130261.691650781,8,0,99,0,8
10,617,477.128037717193,0,0,130263.31522556,130264.3623136,8,0,68,8,16
10,618,676.615962656797,1,0,130265.88000525,130266.927092905,8,1,90,4,0
10,619,501.549191176309,1,0,130268.691854811,130269.738938616,8,1,96,0,4
10,620,488.786195463035,1,0,130271.362524173,130272.409607593,8,1,96,16,16
10,621,504.841762274737,1,0,130274.056759306,130275.103799225,8,1,62,0,0
10,622,717.594672009,0,0,130276.656788717,130277.703878296,8,0,91,8,8
10,623,525.892582518281,0,0,130279.574573759,130280.621614449,8,0,90,0,0
10,624,457.297158776782,0,0,130282.304012417,130283.351101996,8,0,84,4,16
10,625,629.95484455314,0,0,130284.98650855,130286.033534996,8,0,89,16,8
10,626,664.436567778466,1,0,130287.774758079,130288.821839959,8,1,76,4,0
10,627,518.243408223498,0,0,130290.668965032,130291.716056151,8,0,93,16,4
10,628,510.581145237666,1,0,130293.33962631,130294.38670973,8,1,66,0,8
10,629,525.21813090425,0,0,130295.92793674,130296.975026704,8,0,97,16,8
10,630,523.96200329531,0,0,130298.516247939,130299.563332899,8,0,85,4,4
10,631,576.425637962529,0,0,130301.151617536,130302.198704036,8,0,69,4,16
10,632,1182.70643003052,0,0,130303.869348376,130304.916426407,8,0,82,8,4
10,633,642.323640247923,0,0,130307.245915263,130308.292995604,8,0,99,4,8
10,634,696.838731862954,1,0,130309.94010882,130310.987256914,8,1,83,8,4
10,635,635.472490015673,0,0,130312.728424177,130313.775514912,8,0,95,8,16
10,636,519.7335920966,0,0,130315.493219574,130316.54034688,8,0,64,4,16
10,637,544.383027401636,1,0,130318.081523074,130319.128604185,8,1,74,8,0
10,638,517.137415372417,1,0,130320.716887282,130321.763972242,8,1,65,16,0
10,639,699.346367560793,1,0,130323.293431765,130324.340523269,8,1,93,16,8
10,640,566.705373697914,1,0,130326.152345112,130327.199429688,8,1,63,0,16
10,641,530.883986328263,1,0,130332.787830583,130333.834917468,9,1,67,4,16
10,642,679.652149759931,1,0,130335.576149404,130336.623237059,9,1,81,4,4
10,643,666.715536659467,0,0,130338.340934023,130339.388023987,9,0,86,8,8
10,644,684.262442213367,1,0,130341.223361171,130342.27045383,9,1,89,8,0
10,645,687.482640671078,0,0,130344.141096553,130345.188185748,9,0,61,16,8
10,646,471.720876070322,0,0,130347.047063294,130348.094148639,9,0,86,4,4
10,647,1234.19033903338,0,0,130349.635374493,130350.682456374,9,0,88,8,0
10,648,588.490314476076,0,0,130352.953117036,130354.000200841,9,0,92,8,16
10,649,1209.2390943435,0,0,130355.741427774,130356.788525822,9,0,99,16,8
10,650,1352.88804690936,1,0,130359.188593037,130360.235675302,9,1,93,4,8
10,651,1342.4282726337,0,0,130362.623988888,130363.671071153,9,0,84,4,8
10,652,1716.98489385017,0,0,130366.047614558,130367.094713762,9,0,81,16,0
10,653,1260.46045999101,0,0,130369.835962252,130370.883049522,9,0,66,8,8
10,654,937.198347004596,1,0,130373.271358488,130374.318439984,9,1,90,0,0
10,655,642.468000602094,1,0,130376.342030776,130377.389118431,9,1,71,8,16
10,656,485.757707589073,1,0,130379.212702757,130380.259790796,9,1,86,0,16
10,657,509.388536185725,1,0,130381.848073894,130382.895155774,9,1,97,16,8
10,658,481.840729800751,1,0,130384.436380088,130385.483474288,9,1,75,4,16
10,659,519.937621400459,1,0,130387.048221642,130388.095309296,9,1,85,0,16
10,660,575.436288287165,0,0,130389.777716503,130390.824796844,9,0,83,16,16
10,661,436.504262383096,1,1,130392.43661299,130393.483699105,9,0,99,16,4
10,662,478.092749894131,0,0,130395.013152853,130396.060245127,9,0,95,0,4
10,663,595.340694781044,0,0,130397.730890622,130398.777966343,9,0,63,4,0
10,664,505.834191644681,0,0,130400.413380981,130401.460411276,9,0,97,0,4
10,665,704.642660464742,1,0,130403.060485728,130404.107535272,9,1,91,4,0
10,666,434.1594651778,0,0,130405.836995872,130406.884085837,9,0,84,0,8
10,667,525.094558441197,1,0,130408.437079178,130409.484161058,9,1,97,8,4
10,668,443.227605574066,1,0,130411.048921886,130412.095999531,9,1,87,4,16
10,669,682.828077682643,0,0,130413.543104356,130414.5902409,9,0,61,8,4
10,670,481.215938169044,1,0,130416.366717938,130417.413805978,9,1,89,8,0
10,671,680.124496851931,0,0,130418.966795854,130420.013883894,9,0,67,0,0
10,672,724.043153066305,1,0,130421.71981799,130422.76690449,9,1,93,0,4
10,673,523.312959106988,0,0,130424.578723253,130425.625808983,9,0,64,0,16
10,674,580.755678849528,1,0,130427.319981367,130428.367183356,9,1,98,16,4
10,675,658.926621530554,0,0,130430.120103862,130431.167149941,9,0,78,4,0
10,676,488.332711465773,1,0,130432.908374179,130433.955461833,9,1,66,16,8
10,677,488.510178460274,0,0,130435.520212267,130436.567300307,9,0,68,8,16
10,678,524.619131654617,0,0,130438.226179085,130439.273264815,9,0,68,8,0
10,679,669.599664179259,1,0,130440.885110603,130441.932165921,9,1,97,8,8
10,680,661.486996890744,0,0,130443.638094628,130444.685180743,9,0,69,0,4
10,681,624.288219216396,0,0,130446.52052755,130447.567623674,9,0,89,0,4
10,682,688.543978030793,0,0,130449.250028956,130450.297107757,9,0,90,4,4
10,683,715.009659150383,1,0,130452.179525281,130453.226603312,9,1,91,16,0
10,684,555.304754831013,1,0,130455.050195721,130456.097279142,9,1,82,8,8
10,685,427.680572203826,1,0,130457.814981494,130458.862059525,9,1,73,4,8
10,686,402.928352326853,1,0,130460.4385786,130461.485664331,9,1,73,0,8
10,687,485.063622967573,1,0,130463.003367915,130464.05045249,9,1,73,16,0
10,688,424.187051481567,1,0,130465.709323184,130466.756413534,9,1,83,4,8
10,689,684.41257700033,0,0,130468.379990622,130469.427079817,9,0,88,4,4
10,690,637.3564889509,0,0,130471.180068076,130472.22716112,9,0,71,4,0
10,691,813.176629046211,1,0,130473.874268177,130474.921348518,9,1,88,4,4
10,692,529.263300690218,1,0,130476.839063882,130477.886144608,9,1,65,16,8
10,693,518.830858636647,1,0,130479.462722582,130480.509749028,9,1,78,0,0
10,694,448.821088328259,1,0,130482.227445991,130483.274570218,9,1,65,0,8
10,695,582.055692007998,0,0,130484.886349792,130485.933437062,9,0,86,8,0
10,696,485.222996809171,0,0,130487.709964914,130488.757047565,9,0,79,4,16
10,697,432.752047883696,0,0,130490.286501313,130491.333590892,9,0,65,4,16
10,698,563.325031485874,0,0,130492.815992402,130493.863078132,9,0,73,8,4
10,699,557.372380135348,1,0,130495.533714003,130496.580804352,9,1,95,16,0
10,700,570.220452224021,0,0,130498.32202859,130499.369120479,9,0,95,0,8
10,701,621.67279444111,1,0,130501.110402846,130502.157497815,9,1,93,0,16
10,702,674.804721333203,1,0,130503.863370702,130504.910475295,9,1,99,16,16
10,703,689.851305447519,0,0,130506.769335903,130507.816447426,9,0,88,8,16
10,704,476.13791814365,1,0,130509.687068976,130510.734151626,9,1,85,0,0
10,705,591.762867610669,0,0,130512.322436648,130513.369526613,9,0,77,8,4
10,706,552.870261715725,1,0,130515.134288519,130516.181369244,9,1,61,0,8
10,707,746.503700342146,1,0,130517.92260426,130518.969691915,9,1,91,16,16
10,708,683.67961133481,0,0,130520.734446122,130521.781530697,9,0,74,4,0
10,709,630.338265676983,0,0,130523.522760709,130524.569847593,9,0,93,8,16
10,710,623.035556243849,1,0,130526.322845092,130527.369929667,9,1,80,0,16
10,711,614.669969596434,0,0,130529.064112445,130530.111229357,9,0,69,0,0
10,712,683.968717014068,1,0,130531.781824422,130532.828913232,9,1,88,16,4
10,713,573.672397164046,0,0,130534.723091698,130535.770175118,9,0,77,4,8
10,714,600.111515974277,0,0,130537.499643418,130538.546721449,9,0,99,16,16
10,715,549.135370456497,1,0,130540.205598687,130541.252687882,9,1,63,8,4
10,716,483.660825237166,1,0,130542.829203107,130543.876293072,9,1,67,16,0
10,717,683.469807598158,0,0,130545.535162226,130546.582250266,9,0,98,8,8
10,718,636.316709409584,0,0,130548.33524199,130549.382333109,9,0,79,16,4
10,719,742.294152223622,1,0,130551.08827144,130552.13535409,9,1,71,16,16
10,720,541.762598135392,1,0,130553.970699743,130555.017851301,9,1,85,16,4
