sub_id,Trial,RT,Resp,Error,Fix_onset,Disp_onset,block,tid,tloc,fish_setsize,bird_setsize
14,1,678.636870230548,0,0,650185.428190566,650186.475291695,1,0,80,8,8
14,2,694.283608580008,1,0,650188.169461769,650189.2165398,1,1,63,8,0
14,3,465.158309205435,0,0,650191.063654479,650192.110745213,1,0,78,0,0
14,4,777.169168111868,0,0,650193.675494877,650194.722585227,1,0,89,16,8
14,5,650.01656266395,0,0,650196.569699906,650197.616785251,1,0,65,8,8
14,6,690.251912456006,0,0,650199.381553701,650200.428626342,1,0,93,8,8
14,7,562.448723008856,1,0,650202.193391327,650203.240475517,1,1,80,0,4
14,8,670.348660787568,1,0,650204.958165552,650206.005287853,1,1,72,16,0
14,9,800.807695952244,0,0,650207.781785678,650208.828871793,1,0,84,4,4
14,10,740.436193300411,0,0,650210.817170135,650211.864260099,1,0,75,16,0
14,11,496.801330242306,1,1,650213.734911677,650214.781987013,1,0,81,4,8
14,12,728.487774962559,1,0,650216.476148233,650217.523245127,1,1,97,4,8
14,13,668.470821226947,1,0,650219.335066585,650220.38214885,1,1,76,4,8
14,14,658.336338936351,0,0,650222.229266994,650223.276351184,1,0,80,8,4
14,15,541.024875477888,1,0,650225.076402076,650226.123541701,1,1,69,4,16
14,16,694.166580447927,1,0,650227.829458089,650228.876506863,1,1,69,16,4
14,17,682.285530259833,1,0,650230.747154975,650231.79423955,1,1,92,0,0
14,18,623.747596633621,0,0,650233.523712085,650234.570798969,1,0,70,8,0
14,19,526.452563237399,1,0,650236.323787614,650237.370877194,1,1,85,8,4
14,20,627.935586962849,1,0,650238.947388184,650239.994547442,1,1,63,4,4
14,21,928.139693220146,0,0,650241.759236975,650242.80632155,1,0,90,16,8
14,22,677.141682012007,1,0,650244.818150245,650245.865238285,1,1,79,16,4
14,23,563.33066849038,1,0,650247.735886398,650248.782972898,1,1,100,0,16
14,24,735.178781324066,1,0,650250.477136043,650251.524226392,1,1,76,0,0
14,25,449.31601069402,0,0,650253.347805328,650254.394900682,1,0,75,4,8
14,26,511.924136662856,1,0,650255.936121147,650256.983209572,1,1,68,16,0
14,27,745.881081093103,0,0,650258.536239484,650259.583270165,1,0,81,16,16
14,28,512.946977862157,0,0,650261.38334069,650262.430424495,1,0,67,0,8
14,29,583.724360330962,0,0,650264.08933176,650265.13641749,1,0,95,4,0
14,30,611.103553907014,1,0,650266.854082117,650267.901166307,1,1,67,8,16
14,31,468.440486234613,1,0,650269.583575824,650270.630662709,1,1,65,4,16
14,32,536.573186982423,1,0,650272.289534942,650273.336621827,1,1,84,0,4
14,33,522.386990603991,0,0,650275.042557463,650276.089637419,1,0,96,8,4
14,34,638.633267022669,1,0,650277.713224901,650278.760306012,1,1,62,16,4
14,35,575.67636645399,1,0,650280.419165927,650281.466285533,1,1,88,8,16
14,36,662.578223738819,1,0,650283.172205001,650284.219284956,1,1,71,16,8
14,37,415.724317310378,1,0,650286.078222942,650287.125254777,1,1,65,8,8
14,38,427.034470369108,1,0,650288.642949123,650289.690081818,1,1,75,4,4
14,39,524.292162386701,0,0,650291.160663871,650292.207748831,1,0,63,16,4
14,40,481.214645900764,1,0,650293.772493876,650294.819595004,1,1,67,0,4
14,41,669.764289981686,1,0,650296.349060301,650297.396133712,1,1,100,4,0
14,42,669.276929576881,1,0,650299.137362954,650300.184451379,1,1,93,4,4
14,43,593.3753317222,0,0,650301.89038663,650302.93747005,1,0,61,8,16
14,44,787.248985958286,1,0,650304.690469089,650305.737557898,1,1,95,16,16
14,45,724.036856321618,0,0,650307.584711459,650308.63177871,1,0,91,8,4
14,46,688.049935735762,0,0,650310.396520598,650311.443599784,1,0,61,16,16
14,47,587.404587189667,0,0,650313.161302906,650314.208390561,1,0,93,0,8
14,48,438.071301090531,1,0,650315.902557556,650316.949639436,1,1,68,4,8
14,49,618.214552756399,0,0,650318.420324659,650319.467362269,1,0,99,16,16
14,50,592.871802742593,1,0,650321.161526569,650322.208621153,1,1,92,0,4
14,51,760.62547089532,1,0,650323.843958028,650324.891043758,1,1,100,0,16
14,52,495.084789348766,0,0,650326.679332168,650327.726423288,1,0,78,8,4
14,53,557.942369836383,1,0,650329.326490425,650330.373556137,1,1,94,16,8
14,54,643.71128717903,1,0,650332.067773561,650333.114815406,1,1,100,8,8
14,55,513.096727663651,1,0,650334.844279471,650335.891365971,1,1,67,0,16
14,56,465.418542735279,1,0,650337.420818179,650338.467913918,1,1,95,8,0
14,57,524.379548500292,0,0,650339.962069826,650341.009155171,1,0,94,8,16
14,58,498.173716128804,0,0,650342.668034334,650343.715139312,1,0,77,4,0
14,59,583.194654085673,0,0,650345.26810609,650346.315192205,1,0,80,0,16
14,60,811.882637790404,0,0,650348.009463909,650349.056484196,1,0,64,4,0
14,61,625.738229718991,0,0,650350.9153321,650351.962454017,1,0,96,8,0
14,62,470.457296818495,1,0,650353.691879201,650354.738987258,1,1,75,16,0
14,63,593.853453174233,1,0,650356.221443433,650357.268517229,1,1,93,0,8
14,64,716.578622581437,1,0,650359.021553223,650360.068535014,1,1,91,16,4
14,65,456.258396618068,0,0,650361.903885286,650362.950966012,1,0,65,16,8
14,66,557.42459744215,0,0,650364.562774073,650365.609866733,1,0,84,8,0
14,67,777.044825837947,0,0,650367.351096744,650368.398184014,1,0,89,4,16
14,68,894.258124171756,0,0,650370.315885135,650371.3629751,1,0,67,0,16
14,69,742.304793791845,0,0,650373.280677376,650374.327763106,1,0,93,8,16
14,70,515.449994127266,0,0,650376.092528476,650377.139611126,1,0,66,4,16
14,71,600.50326876808,1,0,650378.845552922,650379.892639422,1,1,64,16,0
14,72,627.709614811465,1,0,650381.516270404,650382.56329762,1,1,95,4,16
14,73,749.523581704125,0,0,650384.257469619,650385.304556889,1,0,97,0,8
14,74,617.580137099139,1,0,650387.175195378,650388.222281878,1,1,63,0,0
14,75,544.003703515045,0,0,650389.892924678,650390.940065842,1,0,100,0,4
14,76,463.942987378687,1,0,650392.598880332,650393.645974531,1,1,66,0,8
14,77,520.549186971039,0,0,650395.281317181,650396.32840676,1,0,62,0,0
14,78,706.402949523181,0,0,650397.940222136,650398.987303247,1,0,100,16,16
14,79,569.383409689181,0,0,650400.787358373,650401.834441408,1,0,61,4,0
14,80,478.085298324004,0,0,650403.422724506,650404.469811775,1,0,95,4,4
14,81,590.793398441747,0,0,650413.575965915,650414.623040867,2,0,88,4,16
14,82,516.215681447648,0,0,650416.364272803,650417.411365078,2,0,75,0,0
14,83,577.013720874675,0,0,650418.952584388,650419.999766358,2,0,93,4,16
14,84,493.28086222522,1,0,650421.623247206,650422.670342175,2,1,62,4,8
14,85,636.74503355287,1,0,650424.352745147,650425.399823563,2,1,84,16,16
14,86,659.841151325963,1,0,650427.058697337,650428.105828492,2,1,70,4,4
14,87,551.332975272089,1,0,650429.941134109,650430.988220224,2,1,62,16,4
14,88,419.023047783412,1,0,650432.635323046,650433.682423405,2,1,77,4,8
14,89,568.83022072725,1,0,650435.176582392,650436.223673896,2,1,83,4,0
14,90,675.533315050416,0,0,650437.811950449,650438.85902925,2,0,91,16,16
14,91,769.787541707046,1,0,650440.682703656,650441.729710084,2,1,70,8,16
14,92,528.331557754427,0,0,650443.670943099,650444.718032293,2,0,94,0,4
14,93,791.339581133798,0,0,650446.32984459,650447.37692724,2,0,70,16,16
14,94,669.989492278546,1,0,650449.306405087,650450.353485812,2,1,93,8,4
14,95,572.002683999017,1,0,650452.118241943,650453.165334603,2,1,76,8,0
14,96,665.287578944117,0,0,650454.941851291,650455.988942026,2,0,69,4,8
14,97,756.15684397053,0,0,650457.741936059,650458.789029489,2,0,65,4,4
14,98,634.034523391165,0,0,650460.68325415,650461.730277902,2,0,95,16,0
14,99,504.138686228544,0,0,650463.44797679,650464.495074069,2,0,81,0,16
14,100,588.902855291963,1,0,650466.036313012,650467.083442242,2,1,65,4,0
14,101,625.504943425767,0,0,650468.777550338,650469.824639917,2,0,80,8,4
14,102,631.075713434257,0,0,650471.56586531,650472.612943726,2,0,83,16,8
14,103,493.599609937519,1,0,650474.44836406,650475.495385502,2,1,77,8,0
14,104,426.485900883563,0,0,650477.048373454,650478.095464188,2,0,86,8,0
14,105,631.512644118629,0,0,650479.695513617,650480.742598192,2,0,96,0,0
14,106,571.701259585097,1,0,650482.507360868,650483.554443518,2,1,69,16,16
14,107,548.608606448397,0,0,650485.319201574,650486.366288074,2,0,83,0,4
14,108,811.717104632407,1,0,650487.919266401,650488.966357521,2,1,71,16,0
14,109,603.273062966764,1,0,650490.860538682,650491.907621717,2,1,85,0,8
14,110,640.829854295589,1,0,650493.695920136,650494.743042437,2,1,70,4,16
14,111,620.10663584806,0,0,650496.554829634,650497.601929222,2,0,73,16,4
14,112,686.86079129111,1,0,650499.354902853,650500.401988968,2,1,98,0,4
14,113,531.534047913738,0,0,650502.143214746,650503.190304325,2,0,72,8,4
14,114,722.748776897788,1,0,650504.76682648,650505.813933768,2,1,67,16,0
14,115,639.947138843127,0,0,650507.625727509,650508.672821323,2,0,88,4,8
14,116,633.937898208387,0,0,650510.378751955,650511.425882725,2,0,69,0,0
14,117,692.769557004794,1,0,650513.27298778,650514.320035399,2,1,81,4,16
14,118,480.424321023747,1,0,650516.061269261,650517.108354606,2,1,65,4,4
14,119,525.361199048348,1,0,650518.661336013,650519.708427902,2,1,85,0,16
14,120,828.274275641888,1,0,650521.320239429,650522.367332473,2,1,61,16,4
14,121,556.110725621693,0,0,650524.273264952,650525.320353377,2,0,67,8,4
14,122,550.969572039321,0,0,650526.920402806,650527.967487381,2,0,70,4,8
14,123,784.016853780486,0,0,650529.567534116,650530.6146287,2,0,91,4,0
14,124,720.420147990808,0,0,650532.544089993,650533.591191121,2,0,94,16,16
14,125,482.928876997903,0,0,650535.33240766,650536.379495315,2,0,76,0,16
14,126,504.596404731274,0,0,650537.908951757,650538.956042107,2,0,91,0,16
14,127,498.365426668897,0,0,650540.614912416,650541.662003535,2,0,95,8,8
14,128,797.344587161206,1,0,650543.167925005,650544.215018819,2,1,79,8,0
14,129,435.463960515335,0,0,650546.073900985,650547.120981325,2,0,86,0,8
14,130,526.903352583759,1,0,650548.697512719,650549.744624242,2,1,65,8,16
14,131,390.562883811072,1,0,650551.391692418,650552.438785077,2,1,85,16,8
14,132,561.987539753318,0,0,650553.96823921,650555.01532725,2,0,80,0,0
14,133,626.235214294866,1,0,650556.780077221,650557.827171806,2,1,79,0,8
14,134,642.674972186796,0,0,650559.462513686,650560.509599031,2,0,99,0,0
14,135,637.118445592932,0,0,650562.286132657,650563.333213768,2,0,91,0,4
14,136,500.804154318757,1,0,650565.027371138,650566.074468032,2,1,94,4,4
14,137,692.967042094097,1,0,650567.639216926,650568.686311895,2,1,99,8,16
14,138,610.97805656027,0,0,650570.451064947,650571.498154526,2,0,74,0,16
14,139,602.104706340469,0,0,650573.21585226,650574.262939529,2,0,78,16,4
14,140,539.705999311991,1,0,650575.957112683,650577.004235755,2,1,68,0,8
14,141,550.98728032317,1,0,650578.61600763,650579.663100674,2,1,64,8,8
14,142,586.506088264287,1,0,650581.392562814,650582.439643155,2,1,93,16,0
14,143,556.129588745534,1,0,650584.180873167,650585.227961207,2,1,87,8,8
14,144,661.530359997414,0,0,650586.816242764,650587.863330419,2,0,83,16,0
14,145,734.001570846885,1,0,650589.639848647,650590.686942076,2,1,100,16,8
14,146,558.121376787312,1,0,650592.451703212,650593.498784322,2,1,62,0,4
14,147,645.153350895271,0,0,650595.063555544,650596.110625876,2,0,81,16,4
14,148,761.167880846187,0,0,650597.769499649,650598.816584224,2,0,88,4,0
14,149,532.009859685786,1,0,650600.757825708,650601.804974572,2,1,77,8,8
14,150,619.849866838194,0,0,650603.463780207,650604.510953708,2,0,65,8,16
14,151,535.360174952075,1,0,650606.193267755,650607.240358104,2,1,94,8,4
14,152,530.282539897598,0,0,650608.93456552,650609.981626997,2,0,96,8,0
14,153,630.881693097763,1,0,650611.569903165,650612.616999289,2,1,76,8,16
14,154,631.183117628098,1,0,650614.452326849,650615.499426052,2,1,98,16,8
14,155,663.003220688552,1,0,650617.146528105,650618.193617299,2,1,62,4,16
14,156,667.059939238243,1,0,650620.005438373,650621.052527567,2,1,97,4,4
14,157,526.107253273949,0,0,650622.758455119,650623.805542004,2,0,79,0,8
14,158,668.433480081148,0,0,650625.476184804,650626.523266685,2,0,82,16,8
14,159,533.632085192949,0,0,650628.205670812,650629.252822755,2,0,83,8,8
14,160,588.616059278138,1,0,650630.958694873,650632.0058114,2,1,100,4,0
14,161,559.801731375046,1,0,650638.170692874,650639.217748962,3,1,80,4,8
14,162,690.96255034674,0,0,650640.982512408,650642.029598138,3,0,74,16,0
14,163,557.726406841539,0,0,650643.88846452,650644.935573733,3,0,92,8,16
14,164,432.960559264757,1,0,650646.700320625,650647.747412514,3,1,78,16,8
14,165,545.045792707242,0,0,650649.265118024,650650.312193745,3,0,96,8,0
14,166,662.58515312802,0,0,650651.935758129,650652.982855023,3,0,80,8,4
14,167,530.590893584304,0,0,650654.688799898,650655.735876004,3,0,63,8,8
14,168,658.070715959184,1,0,650657.324155636,650658.371244061,3,1,71,16,0
14,169,627.631082898006,0,0,650660.206648228,650661.253688918,3,0,71,8,16
14,170,570.9290279774,0,0,650663.077267853,650664.124369367,3,0,92,0,8
14,171,589.163473807275,1,0,650665.853816879,650666.900904918,3,1,95,0,8
14,172,508.849838399328,0,0,650668.642123766,650669.689219505,3,0,73,0,16
14,173,528.483232366852,0,0,650671.277497983,650672.324586793,3,0,77,16,16
14,174,502.184624318033,0,0,650674.006986301,650675.054074725,3,0,77,16,8
14,175,488.599736941978,1,0,650676.583536943,650677.630627677,3,1,66,16,8
14,176,734.436576720327,1,0,650679.242440358,650680.289520314,3,1,90,16,0
14,177,472.571117454208,1,0,650682.042510498,650683.089617786,3,1,95,0,4
14,178,512.716386234388,0,0,650684.61906268,650685.666162654,3,0,78,0,16
14,179,617.624792503193,1,0,650687.266254813,650688.313283184,3,1,94,4,4
14,180,579.174506710842,0,0,650690.089806417,650691.136896382,3,0,72,4,8
14,181,631.8452503765,1,0,650692.831081469,650693.878198766,3,1,61,16,0
14,182,525.062854168937,0,0,650695.607608167,650696.654696206,3,0,93,0,4
14,183,627.979472512379,0,0,650698.195922061,650699.243019725,3,0,86,8,4
14,184,541.738208150491,1,0,650701.043061377,650702.090150187,3,1,76,4,0
14,185,519.908226910047,0,0,650703.807886031,650704.854972146,3,0,72,4,0
14,186,588.702675537206,1,0,650706.549109114,650707.596193689,3,1,79,8,0
14,187,460.261990781873,0,0,650709.231533259,650710.278616295,3,0,85,4,16
14,188,544.719345867634,0,0,650711.819844844,650712.866938273,3,0,94,8,8
14,189,607.784805470146,0,0,650714.57286698,650715.61994963,3,0,63,4,4
14,190,581.218649400398,1,0,650717.255294205,650718.302379935,3,1,89,4,0
14,191,639.560253010131,0,0,650719.973014266,650721.02010423,3,0,98,16,4
14,192,546.013199607842,0,0,650722.702507203,650723.749602942,3,0,68,4,8
14,193,483.828530763276,1,0,650725.349641207,650726.396760429,3,1,77,0,8
14,194,535.29665642418,1,0,650728.032068432,650729.079166866,3,1,77,4,0
14,195,817.664751550183,1,0,650730.749840463,650731.796889622,3,1,80,16,4
14,196,562.350942869671,1,0,650733.785183344,650734.832265994,3,1,64,16,16
14,197,618.57641604729,1,0,650736.561788958,650737.608832727,3,1,78,8,4
14,198,623.184013762511,0,0,650739.291225306,650740.338306417,3,0,94,0,0
14,199,545.96046009101,0,0,650742.138364623,650743.185444578,3,0,75,0,16
14,200,585.408179671504,1,0,650744.86785448,650745.914942905,3,1,62,16,4
14,201,528.157170396298,0,0,650747.562052656,650748.609124143,3,0,68,4,0
14,202,515.714077278972,0,0,650750.232713935,650751.279805054,3,0,67,0,4
14,203,665.649442351423,0,0,650752.891638523,650753.938697691,3,0,97,16,4
14,204,450.406605144963,0,0,650755.632863915,650756.679959269,3,0,63,8,0
14,205,709.61814338807,1,0,650758.244714708,650759.291792738,3,1,69,16,16
14,206,592.936091241427,0,0,650761.127141471,650762.174237595,3,0,86,4,16
14,207,643.029136233963,1,0,650763.938985257,650764.986081766,3,1,61,4,16
14,208,535.111105185933,1,0,650766.692012012,650767.739098127,3,1,64,8,8
14,209,762.606094940566,1,0,650769.315613353,650770.362705242,3,1,92,8,8
14,210,526.339769712649,1,0,650772.315700739,650773.362786854,3,1,63,8,0
14,211,645.625312929042,0,0,650774.892277943,650775.939397935,3,0,82,16,16
14,212,629.856157116592,0,0,650777.645273902,650778.692353473,3,0,87,8,8
14,213,457.553790300153,0,0,650780.386565123,650781.433617361,3,0,85,0,4
14,214,700.275910901837,1,0,650782.927775578,650783.974859769,3,1,69,0,8
14,215,564.06517396681,1,0,650785.822003705,650786.86908366,3,1,77,8,16
14,216,799.611237249337,1,0,650788.504406292,650789.551488173,3,1,81,16,4
14,217,480.142144602723,1,0,650791.445665099,650792.492758144,3,1,77,8,16
14,218,665.87618435733,0,0,650794.081115538,650795.12818741,3,0,67,16,8
14,219,654.124096152373,0,0,650796.845821239,650797.892914284,3,0,82,16,16
14,220,571.28627167549,1,0,650799.657668875,650800.704755375,3,1,91,0,8
14,221,566.608611028641,0,0,650802.481278223,650803.528362798,3,0,84,4,16
14,222,564.266893547028,1,0,650805.128414152,650806.175501037,3,1,93,0,0
14,223,559.265865711495,1,0,650807.775550851,650808.82263889,3,1,79,0,16
14,224,536.67019715067,1,0,650810.410928147,650811.458043134,3,1,68,4,8
14,225,575.856143259443,0,0,650813.116877257,650814.164014571,3,0,90,0,0
14,226,470.852266764268,1,0,650815.869903242,650816.916985893,3,1,74,0,0
14,227,516.887823236175,0,0,650818.587611369,650819.634710573,3,0,73,8,0
14,228,406.541843432933,1,0,650821.164170096,650822.211257366,3,1,68,0,16
14,229,491.538913920522,0,0,650823.7171823,650824.76426572,3,0,77,8,4
14,230,674.776096828282,0,0,650826.399612989,650827.446747994,3,0,80,4,8
14,231,419.054614496417,0,0,650829.258520178,650830.305602058,3,0,74,0,4
14,232,472.462943405844,1,0,650831.835057731,650832.88215424,3,1,90,4,4
14,233,622.621970833279,1,0,650834.446904674,650835.493987709,3,1,76,4,4
14,234,485.429968452081,1,0,650837.141086682,650838.188189735,3,1,76,16,0
14,235,659.25986028742,1,0,650839.788233389,650840.835322199,3,1,99,16,8
14,236,543.097505345941,1,0,650842.647136728,650843.694232082,3,1,63,4,4
14,237,803.905476815999,0,0,650845.282777723,650846.329604759,3,0,68,4,16
14,238,742.538080085069,1,0,650848.270826225,650849.317916959,3,1,73,8,16
14,239,519.246864016168,0,0,650851.11797709,650852.165055891,3,0,64,8,4
14,240,479.372992645949,1,0,650853.882755934,650854.929846668,3,1,94,0,0
14,241,469.706237898208,1,0,650860.412360202,650861.459450166,4,1,76,8,16
14,242,546.399315469898,1,0,650863.14184313,650864.188930015,4,1,73,4,0
14,243,532.069143722765,0,0,650865.930165416,650866.977247681,4,0,66,0,0
14,244,623.601696337573,1,0,650868.565527314,650869.612616509,4,1,100,4,4
14,245,669.727333821356,1,0,650871.330318092,650872.377435003,4,1,72,4,16
14,246,804.471754352562,0,0,650874.224504642,650875.27161424,4,0,87,16,16
14,247,549.640686716884,0,0,650877.130484857,650878.177573666,4,0,78,4,16
14,248,505.019476870075,1,0,650879.907028492,650880.954123462,4,1,88,16,4
14,249,639.517522417009,1,0,650882.589466111,650883.636553381,4,1,92,16,16
14,250,740.654081106186,1,0,650885.354302699,650886.40133723,4,1,95,16,8
14,251,649.846024927683,1,0,650888.16614687,650889.213250693,4,1,81,16,16
14,252,504.609108553268,1,0,650891.013236142,650892.060323027,4,1,66,0,8
14,253,344.93885061238,1,0,650893.683895495,650894.730990849,4,1,77,0,4
14,254,469.708162825555,0,0,650896.119270174,650897.166353979,4,0,88,4,8
14,255,578.609384014271,0,0,650898.778165505,650899.825248541,4,0,62,0,0
14,256,662.400371860713,0,0,650901.425322992,650902.472399868,4,0,92,4,4
14,257,544.63773407042,0,0,650904.331263556,650905.378348901,4,0,66,16,8
14,258,560.043871751986,0,0,650907.013744675,650908.060799993,4,0,63,0,16
14,259,1012.72562541999,0,0,650909.75495005,650910.802055413,4,0,93,16,8
14,260,549.675718182698,0,0,650912.955048523,650914.002127323,4,0,78,8,16
14,261,389.960034983233,0,0,650915.731632964,650916.778686358,4,0,86,0,0
14,262,540.232625906356,0,0,650918.343431787,650919.390522906,4,0,68,0,8
14,263,528.68302713614,1,0,650920.967037747,650922.014121937,4,1,71,4,0
14,264,591.073265182786,0,0,650923.696531069,650924.743617569,4,0,78,4,16
14,265,573.575249523856,1,0,650926.531910213,650927.578988629,4,1,84,0,0
14,266,443.117369315587,0,0,650929.167273266,650930.214365925,4,0,85,0,8
14,267,593.788009835407,1,0,650931.802648638,650932.849739757,4,1,94,16,4
14,268,502.528009470552,1,0,650934.496846044,650935.543928309,4,1,69,8,16
14,269,491.500032832846,0,0,650937.191028437,650938.238119556,4,0,66,8,4
14,270,641.23829791788,1,0,650939.744084527,650940.791136765,4,1,82,0,8
14,271,523.389043868519,1,0,650942.555896746,650943.602980166,4,1,91,0,4
14,272,442.206936655566,0,0,650945.203065396,650946.25011571,4,0,74,4,0
14,273,491.889228345826,1,0,650947.885464904,650948.932551789,4,1,79,16,16
14,274,507.11789901834,0,0,650950.509062395,650951.55615467,4,0,69,0,16
14,275,576.80045242887,1,0,650953.250320894,650954.297477842,4,1,85,4,16
14,276,598.728983779438,1,0,650955.94452138,650956.991602106,4,1,82,16,0
14,277,440.004189964384,0,0,650958.768124184,650959.815218768,4,0,76,4,0
14,278,569.174375850707,1,0,650961.332905414,650962.37998845,4,1,98,8,0
14,279,601.458741934039,0,0,650964.097689647,650965.144778457,4,0,62,8,8
14,280,580.047983210534,1,0,650966.933063787,650967.980153367,4,1,91,4,16
14,281,428.657080745324,1,0,650969.721379144,650970.768474883,4,1,83,4,4
14,282,526.466421899386,1,0,650972.368515458,650973.415609272,4,1,72,16,0
14,283,600.579876103438,1,0,650974.968591064,650976.015680259,4,1,88,16,4
14,284,518.932735896669,1,0,650977.74513701,650978.792265855,4,1,66,8,4
14,285,668.893893365748,0,0,650980.392284103,650981.439372142,4,0,88,16,8
14,286,715.888772509061,1,0,650983.310016405,650984.357097131,4,1,90,8,4
14,287,466.983024147339,1,0,650986.110088855,650987.157183824,4,1,77,8,8
14,288,454.926816746593,0,0,650988.721928868,650989.769011519,4,0,63,0,8
14,289,500.517743406817,1,0,650991.251427272,650992.298507612,4,1,77,16,0
14,290,508.079146500677,1,0,650993.933834864,650994.980929063,4,1,98,8,4
14,291,511.253149714321,0,0,650996.592779085,650997.639852112,4,0,85,16,16
14,292,500.407644431107,0,0,650999.263410722,651000.310499146,4,0,73,16,0
14,293,614.386116038077,1,0,651001.969389088,651003.016453646,4,1,82,8,0
14,294,598.192733130418,0,0,651004.710627954,651005.757709835,4,0,94,8,16
14,295,620.040422538295,0,0,651007.357763113,651008.404846534,4,0,89,0,16
14,296,467.356051201932,0,0,651010.087246427,651011.134342166,4,0,69,0,16
14,297,420.279175275937,0,0,651012.67556109,651013.722641046,4,0,66,0,4
14,298,418.912178953178,0,0,651015.216795414,651016.263906551,4,0,65,8,4
14,299,600.549079128541,0,0,651017.758062459,651018.805148574,4,0,93,16,0
14,300,583.134600194171,1,0,651020.534606095,651021.581698754,4,1,85,8,0
14,301,524.380703340285,1,0,651023.25233424,651024.299423435,4,1,63,4,8
14,302,476.794139132835,1,0,651025.840644669,651026.887731554,4,1,61,0,4
14,303,480.257248040289,0,0,651028.417177988,651029.464283736,4,0,81,0,16
14,304,430.057953693904,1,0,651031.005498042,651032.052585696,4,1,74,4,8
14,305,627.692676498555,0,0,651033.546752768,651034.593834648,4,0,92,8,8
14,306,772.007611580193,0,0,651036.370362116,651037.417446691,4,0,67,8,0
14,307,639.415892772377,1,0,651039.241027936,651040.288117516,4,1,70,8,8
14,308,722.90699579753,1,0,651041.970544356,651043.017619307,4,1,98,4,4
14,309,423.590609570965,0,0,651044.805929275,651045.852984208,4,0,85,16,4
14,310,582.256504334509,0,0,651047.347143965,651048.394239704,4,0,81,16,8
14,311,497.997403959744,0,0,651049.994276815,651051.041371014,4,0,93,0,4
14,312,618.569871643558,1,0,651052.582686179,651053.629688372,4,1,93,0,0
14,313,596.704089199193,0,0,651055.28861681,651056.335642487,4,0,97,8,8
14,314,590.70139285177,1,0,651057.947487889,651058.994588248,4,1,80,4,8
14,315,427.590353996493,0,0,651060.747579202,651061.794614887,4,0,74,4,8
14,316,562.4787498964,1,0,651063.347608228,651064.394688184,4,1,100,8,0
14,317,544.417151599191,1,0,651065.994744927,651067.041827192,4,1,77,16,4
14,318,649.178502731957,0,0,651068.794820456,651069.841909651,4,0,99,4,4
14,319,542.876152787358,0,0,651071.52434727,651072.571453788,4,0,82,8,16
14,320,699.03287186753,0,0,651074.147920124,651075.195005084,4,0,61,4,0
14,321,632.926990743726,0,0,651081.19523914,651082.242296768,5,0,72,4,8
14,322,509.782213834114,1,0,651084.042317633,651085.089405673,5,1,65,8,16
14,323,631.858339183964,1,0,651086.712981606,651087.760076575,5,1,91,0,16
14,324,645.043252035975,0,0,651089.4189388,651090.466047627,5,0,95,16,16
14,325,607.896829023957,1,0,651092.313151142,651093.360252271,5,1,62,16,8
14,326,734.862728393637,0,0,651095.125003013,651096.172095287,5,0,89,8,8
14,327,553.49453096278,0,0,651098.054491253,651099.101571979,5,0,69,0,4
14,328,468.709958950058,0,0,651100.772210159,651101.819301279,5,0,64,4,0
14,329,654.34121422004,0,0,651103.407585916,651104.454665486,5,0,100,0,16
14,330,618.728475645185,0,0,651106.242956206,651107.290054255,5,0,94,4,16
14,331,494.746023672633,0,0,651109.101861084,651110.148952589,5,0,73,16,8
14,332,495.878963847645,0,0,651111.85493827,651112.902000517,5,0,66,16,4
14,333,478.100311709568,0,0,651114.466720154,651115.513808194,5,0,85,8,8
14,334,627.54331168253,1,0,651117.043258862,651118.090358451,5,1,74,8,16
14,335,646.579631255008,0,0,651119.902170285,651120.94926102,5,0,99,16,8
14,336,515.868831542321,1,0,651122.725779248,651123.772881531,5,1,63,8,4
14,337,632.813812233508,1,0,651125.478814088,651126.525887499,5,1,83,16,4
14,338,652.593876351602,0,0,651128.231850467,651129.278915024,5,0,88,0,16
14,339,625.440654926933,0,0,651131.020139262,651132.067223452,5,0,82,4,16
14,340,593.428071355447,1,0,651133.820220951,651134.86731284,5,1,66,8,0
14,341,823.206264525652,0,0,651136.467354185,651137.51443876,5,0,86,8,4
14,342,589.435641188174,0,0,651139.443915837,651140.490996947,5,0,69,4,4
14,343,652.841021306813,1,0,651142.26761642,651143.314623618,5,1,89,8,8
14,344,531.872043735348,1,0,651145.173487691,651146.220605373,5,1,68,16,16
14,345,694.619294605218,0,0,651147.961806897,651149.008888778,5,0,61,8,0
14,346,608.758756541647,1,0,651150.785412011,651151.83255741,5,1,69,4,4
14,347,657.686909893528,1,0,651153.632554407,651154.679643986,5,1,81,16,8
14,348,542.049641604535,0,0,651156.350274468,651157.397364047,5,0,94,16,0
14,349,398.826070828363,1,0,651158.997470066,651160.044509216,5,1,85,16,0
14,350,395.509632187895,1,0,651161.479840009,651162.526927278,5,1,62,0,4
14,351,548.280234797858,1,0,651164.079901756,651165.127004425,5,1,71,4,16
14,352,574.041822226718,1,0,651166.774106092,651167.821190282,5,1,81,16,8
14,353,753.591849119402,0,0,651169.503630211,651170.550695538,5,0,98,16,16
14,354,597.142559592612,0,0,651172.444859376,651173.491944336,5,0,67,4,16
14,355,458.726766402833,1,0,651175.115520269,651176.162612929,5,1,77,4,4
14,356,485.413800110109,1,0,651177.809718446,651178.856803406,5,1,98,0,0
14,357,596.355314482935,1,0,651180.468604923,651181.515705666,5,1,89,0,8
14,358,368.653215817176,1,0,651183.186343847,651184.233430347,5,1,78,0,4
14,359,677.768013440073,0,0,651185.739358746,651186.786444861,5,0,82,0,4
14,360,864.201527205296,0,0,651188.668860075,651189.715944265,5,0,61,4,8
14,361,395.213982206769,1,0,651191.633650391,651192.680737661,5,1,75,0,0
14,362,719.756860285997,1,0,651194.257255966,651195.304336306,5,1,91,16,16
14,363,427.522600861266,1,0,651197.163223092,651198.210306127,5,1,73,4,16
14,364,478.100696578622,1,0,651199.786827512,651200.833905158,5,1,76,16,4
14,365,540.770801366307,0,0,651202.375133707,651203.422219437,5,0,67,8,16
14,366,432.596386293881,0,0,651205.175209236,651206.222303435,5,0,66,0,8
14,367,398.353723809123,1,0,651207.775275988,651208.822383661,5,1,66,0,16
14,368,508.802873198874,1,0,651210.387127936,651211.434210971,5,1,87,16,0
14,369,585.945970145985,0,0,651213.104855696,651214.151944505,5,0,92,8,0
14,370,721.742489025928,1,0,651215.846108035,651216.893192225,5,1,100,16,4
14,371,383.21051443927,0,0,651218.728541728,651219.775634387,5,0,85,4,8
14,372,654.314266867004,1,0,651221.293322958,651222.340410998,5,1,66,4,0
14,373,443.002650979906,1,0,651224.034577223,651225.081667187,5,1,67,0,16
14,374,562.16038716957,0,0,651226.552296976,651227.599385016,5,0,62,4,8
14,375,783.565679448657,0,0,651229.270020501,651230.317107001,5,0,68,8,16
14,376,483.419702271931,1,0,651232.223052569,651233.270140994,5,1,70,4,0
14,377,443.29214154277,1,0,651234.811362229,651235.858448344,5,1,66,4,4
14,378,432.157145813107,0,0,651237.317309876,651238.364397146,5,0,77,0,4
14,379,421.618069638498,1,0,651239.940916606,651240.98800965,5,1,69,0,8
14,380,581.00961567834,0,0,651242.611585583,651243.658675548,5,0,72,8,4
14,381,685.415647807531,1,0,651245.399902095,651246.446979356,5,1,81,8,4
14,382,711.454792297445,1,0,651248.152917302,651249.200003802,5,1,100,8,8
14,383,542.318344349042,0,0,651251.105947445,651252.1530351,5,0,65,0,8
14,384,823.19972012192,1,0,651253.753077985,651254.80016179,5,1,90,0,8
14,385,682.194294524379,0,0,651256.65904819,651257.706133535,5,0,95,4,4
14,386,560.079673188739,1,0,651259.506188662,651260.553277086,5,1,89,8,8
14,387,675.111782737076,0,0,651262.21214624,651263.259237745,5,0,71,0,0
14,388,569.590903702192,0,0,651265.035757128,651266.082839008,5,0,83,8,0
14,389,442.686982918531,0,0,651267.659417368,651268.706509257,5,0,87,4,0
14,390,483.122897450812,0,0,651270.224137004,651271.271232743,5,0,87,0,0
14,391,500.075423158705,1,0,651272.777146129,651273.824245717,5,1,76,4,8
14,392,533.574726083316,1,0,651275.50664407,651276.55373365,5,1,69,8,0
14,393,615.190684329718,0,0,651278.142013668,651279.189106327,5,0,99,16,4
14,394,525.237626512535,1,0,651280.847976251,651281.895065831,5,1,82,4,0
14,395,464.380688033998,1,0,651283.471609158,651284.518667171,5,1,84,8,16
14,396,522.873581270687,0,0,651286.142253883,651287.189337303,5,0,74,16,0
14,397,796.421835781075,0,0,651288.777620401,651289.824704206,5,0,87,16,0
14,398,466.339754289947,1,0,651291.730640535,651292.777732039,5,1,94,0,0
14,399,681.177612626925,0,0,651294.283658128,651295.330737314,5,0,61,16,16
14,400,626.080460147932,0,0,651297.130790516,651298.17788664,5,0,69,8,4
14,401,480.378510779701,1,0,651303.613337926,651304.660421731,6,1,65,8,0
14,402,637.672789394856,1,0,651306.178152263,651307.225199112,6,1,95,0,0
14,403,625.282051041722,0,0,651309.013485597,651310.060579411,6,0,94,0,8
14,404,498.833539080806,0,0,651311.837246234,651312.884189144,6,0,77,4,8
14,405,515.627461136319,1,0,651314.543059837,651315.590140563,6,1,89,0,8
14,406,584.819959360175,0,0,651317.154919484,651318.201992895,6,0,85,16,4
14,407,526.037190458737,1,0,651319.87268343,651320.919714496,6,1,78,4,0
14,408,562.921839999035,1,0,651322.578592889,651323.625673615,6,1,96,8,8
14,409,508.159218472429,1,0,651325.296380703,651326.343406764,6,1,78,4,16
14,410,871.548507129774,1,0,651327.919930074,651328.967006565,6,1,90,8,0
14,411,609.061335911974,1,0,651331.002343672,651332.049471362,6,1,69,8,4
14,412,472.783615812659,0,0,651333.837749378,651334.884822019,6,0,67,16,16
14,413,526.895653340034,1,0,651336.402528299,651337.449596321,6,1,68,0,4
14,414,582.191830733791,1,0,651339.120236426,651340.167323696,6,1,100,0,16
14,415,557.966237538494,1,0,651341.920324659,651342.967430792,6,1,77,0,16
14,416,569.859606446698,0,0,651344.661575459,651345.708664268,6,0,83,8,8
14,417,674.068153719418,1,0,651347.33231065,651348.379327471,6,1,95,16,4
14,418,596.37995203957,0,0,651350.144085142,651351.191175107,6,0,94,0,4
14,419,504.542895243503,1,0,651352.920707695,651353.967721437,6,1,74,16,8
14,420,703.306323615834,0,0,651355.661889202,651356.708980321,6,0,79,4,4
14,421,609.210315858945,0,0,651358.556079987,651359.603176496,6,0,61,0,8
14,422,674.478906905279,1,0,651361.367937247,651362.415024902,6,1,93,8,4
14,423,691.682812292129,1,0,651364.144493201,651365.191574312,6,1,81,4,16
14,424,651.184919173829,1,0,651367.073982212,651368.121071021,6,1,69,8,0
14,425,572.07698142156,1,0,651369.921132692,651370.968209568,6,1,62,0,16
14,426,677.905444405042,0,0,651372.615394002,651373.662412749,6,0,70,4,8
14,427,756.900588632561,0,0,651375.42716426,651376.474317359,6,0,81,4,4
14,428,613.608879735693,0,0,651378.309602187,651379.356685608,6,0,78,4,0
14,429,501.741919200867,1,0,651381.027350736,651382.074414523,6,1,74,16,16
14,430,517.520314082503,1,0,651383.674460487,651384.721541983,6,1,76,16,16
14,431,635.861548129469,0,0,651386.251000735,651387.298097244,6,0,62,16,0
14,432,688.331342185847,1,0,651389.074612778,651390.121695813,6,1,89,16,4
14,433,509.251352632418,0,0,651391.815861268,651392.862945073,6,0,75,0,0
14,434,514.368253876455,0,0,651394.533602117,651395.580686307,6,0,68,0,0
14,435,663.355460041203,0,0,651397.145434816,651398.192519391,6,0,91,8,16
14,436,448.534924886189,1,0,651400.004329685,651401.051433123,6,1,76,16,8
14,437,527.612065663561,0,0,651402.557355363,651403.604441093,6,0,86,4,8
14,438,618.651868309826,1,0,651405.322173857,651406.369229176,6,1,85,16,0
14,439,695.138991810381,0,0,651408.145744709,651409.192832364,6,0,90,4,4
14,440,677.760314196348,0,0,651410.934076619,651411.981151956,6,0,91,16,8
14,441,620.594381354749,1,0,651413.781209777,651414.828289347,6,1,71,8,16
14,442,706.372152664699,0,0,651416.475400254,651417.522489448,6,0,83,8,16
14,443,545.73987738695,0,0,651419.357835101,651420.404931995,6,0,62,8,16
14,444,522.627206286415,1,0,651422.005002597,651423.0520583,6,1,95,16,0
14,445,623.320674872957,1,0,651424.699180755,651425.746256476,6,1,82,16,4
14,446,495.104037341662,0,0,651427.393356219,651428.440449648,6,0,81,0,8
14,447,594.323105644435,0,0,651430.14638182,651431.19346447,6,0,68,16,16
14,448,621.305404347368,0,0,651432.86410573,651433.911196465,6,0,92,8,8
14,449,611.831515096128,0,0,651435.640660145,651436.68774472,6,0,84,16,0
14,450,695.825762115419,1,0,651438.440746838,651439.487822559,6,1,71,8,4
14,451,565.612717182375,1,0,651441.240809279,651442.287905403,6,1,79,8,4
14,452,425.490006920882,0,0,651443.93501092,651444.982105504,6,0,65,0,4
14,453,453.160615870729,1,0,651446.570382442,651447.617468172,6,1,65,4,16
14,454,789.694258011878,1,0,651449.252819291,651450.299905406,6,1,91,4,0
14,455,617.747980053537,0,0,651452.17059009,651453.217640018,6,0,96,0,0
14,456,715.610060840845,0,0,651454.958863871,651456.005947676,6,0,100,4,16
14,457,546.035142382607,0,0,651457.735445618,651458.78250825,6,0,78,4,4
14,458,430.782065261155,0,0,651460.53549266,651461.582609572,6,0,76,4,4
14,459,685.987314907834,0,0,651463.100266191,651464.147353846,6,0,100,16,8
14,460,561.533285770565,0,0,651465.982701808,651467.029787153,6,0,90,0,4
14,461,585.175663116388,1,0,651468.676897675,651469.72398302,6,1,99,4,0
14,462,685.903008445166,0,0,651471.40640678,651472.453502904,6,0,67,4,8
14,463,704.351107706316,1,0,651474.335885012,651475.382973822,6,1,99,8,16
14,464,555.832013953477,0,0,651477.112436347,651478.159526697,6,0,69,4,16
14,465,804.828228196129,1,0,651479.830162182,651480.877304117,6,1,81,8,8
14,466,679.963830742054,1,0,651482.830277671,651483.877345308,6,1,86,16,0
14,467,604.049529181793,0,0,651485.74799804,651486.795069141,6,0,68,8,0
14,468,537.207217654213,0,0,651488.418638915,651489.465736579,6,0,83,16,16
14,469,516.489003784955,1,0,651491.136367445,651492.183462414,6,1,78,0,16
14,470,638.170159072615,0,0,651493.72467595,651494.771770919,6,0,88,8,0
14,471,622.230850392953,0,0,651496.583576594,651497.630671563,6,0,91,16,8
14,472,670.115374494344,1,0,651499.277778235,651500.32486512,6,1,89,0,0
14,473,601.441033766605,1,0,651502.042555924,651503.089641269,6,1,72,0,8
14,474,464.197831577621,0,0,651504.748525051,651505.795614246,6,0,83,4,8
14,475,518.762198276818,1,0,651507.419252158,651508.466278989,6,1,95,0,16
14,476,710.81806672737,0,0,651510.184015603,651511.231118271,6,0,94,8,8
14,477,447.14136631228,1,0,651512.960523437,651514.007615712,6,1,87,8,4
14,478,399.540558457375,1,0,651515.53706946,651516.58415827,6,1,76,0,4
14,479,644.020795705728,1,0,651518.00773274,651519.054822705,6,1,61,4,0
14,480,850.011096219532,0,0,651520.760752566,651521.807883722,6,0,100,16,4
14,481,575.588980456814,1,0,651528.902165281,651529.949249471,7,1,88,8,16
14,482,561.528281308711,0,0,651531.666946049,651532.714040248,7,0,72,8,4
14,483,629.470041254535,1,0,651534.314081593,651535.361165783,7,1,100,16,8
14,484,535.643506213091,0,0,651537.125948477,651538.173018038,7,0,83,4,4
14,485,613.536892109551,1,0,651539.72600368,651540.773089025,7,1,93,4,4
14,486,482.328337850049,0,0,651542.526079594,651543.573170329,7,0,98,16,4
14,487,535.722038242966,0,0,651545.196788223,651546.243839306,7,0,72,4,0
14,488,753.351248451509,0,0,651547.879186191,651548.926264992,7,0,99,0,8
14,489,516.495163086802,1,0,651550.691016503,651551.738113782,7,1,74,16,4
14,490,611.836904543452,0,0,651553.467583237,651554.514692449,7,0,98,4,4
14,491,546.338876592927,0,0,651556.208825952,651557.255918996,7,0,63,8,8
14,492,547.178091597743,1,0,651558.903018739,651559.950112168,7,1,83,16,16
14,493,557.106619700789,0,0,651561.59721884,651562.644307265,7,0,87,16,16
14,494,542.800315422937,1,0,651564.385537662,651565.432617232,7,1,80,0,16
14,495,588.668414042331,0,0,651567.032673206,651568.079757781,7,0,73,8,4
14,496,739.767900900915,0,0,651569.750416749,651570.797490546,7,0,99,8,0
14,497,570.167575147934,0,0,651572.668128649,651573.71521053,7,0,81,0,0
14,498,633.555631968193,1,0,651575.491734532,651576.538821032,7,1,97,16,8
14,499,546.721142833121,1,0,651578.315356584,651579.362446933,7,1,95,0,0
14,500,577.545736916363,1,0,651580.962484429,651582.009567849,7,1,80,4,0
14,501,577.459505642764,0,0,651583.656671441,651584.7037641,7,0,91,4,8
14,502,438.67184012197,0,0,651586.421463374,651587.468549489,7,0,85,0,8
14,503,509.7425627755,1,0,651589.033351892,651590.080386037,7,1,68,4,0
14,504,410.582008655183,0,0,651591.727497329,651592.774583829,7,0,83,0,4
14,505,489.897440420464,1,0,651594.198184091,651595.245253653,7,1,64,0,4
14,506,515.169357531704,0,0,651596.868822272,651597.915902997,7,0,95,4,0
14,507,564.133697072975,0,0,651599.527711829,651600.574819502,7,0,69,4,16
14,508,490.809797891416,1,0,651602.316037965,651603.363130624,7,1,96,4,4
14,509,723.398591042496,0,0,651604.951470696,651605.998491367,7,0,95,4,16
14,510,458.491940167733,1,0,651607.916194798,651608.963281298,7,1,64,16,0
14,511,689.639824442565,1,0,651610.469253967,651611.516297736,7,1,89,8,16
14,512,543.249564943835,0,0,651613.363406641,651614.410491601,7,0,98,0,8
14,513,674.281036946923,0,0,651616.022300048,651617.069388857,7,0,81,8,8
14,514,585.145251243375,1,0,651618.869452453,651619.916541648,7,1,75,16,4
14,515,543.894374510273,1,0,651621.704832367,651622.751922332,7,1,78,0,8
14,516,733.273224672303,1,0,651624.387253433,651625.434348787,7,1,88,0,0
14,517,607.839854783379,1,0,651627.3638582,651628.410908129,7,1,89,8,4
14,518,476.431505987421,0,0,651630.152126207,651631.199212322,7,0,87,8,8
14,519,582.517122849822,1,0,651632.705144185,651633.752226836,7,1,79,16,0
14,520,414.201026665978,1,0,651635.399341977,651636.446420008,7,1,76,16,8
14,521,654.862451250665,0,0,651637.893557938,651638.940610177,7,0,94,4,4
14,522,501.210288144648,0,0,651640.611247972,651641.658337552,7,0,64,16,4
14,523,473.638999159448,0,0,651643.34078672,651644.387829719,7,0,77,4,0
14,524,616.971898707561,1,0,651646.058472904,651647.105559789,7,1,61,8,16
14,525,776.788056828082,1,0,651648.811486956,651649.858576921,7,1,74,8,0
14,526,901.993144769222,1,0,651651.764500546,651652.811589741,7,1,97,4,8
14,527,509.226715192199,1,0,651654.78812483,651655.835220569,7,1,74,0,16
14,528,651.444767834619,1,0,651657.399971773,651658.447057503,7,1,87,16,0
14,529,548.053107806481,0,0,651660.188278661,651661.235367856,7,0,99,16,0
14,530,564.638380892575,1,0,651662.976626355,651664.023688987,7,1,79,16,8
14,531,548.775294562802,1,0,651665.729619233,651666.776711123,7,1,87,8,8
14,532,417.216040892527,1,0,651668.364992295,651669.412077255,7,1,68,0,4
14,533,480.527105624788,0,0,651670.929808172,651671.976859256,7,0,95,0,4
14,534,583.633509580977,1,0,651673.588672707,651674.635760362,7,1,82,8,16
14,535,491.431509726681,0,0,651676.282868573,651677.329958923,7,0,71,0,16
14,536,590.215187170543,0,0,651678.97706213,651680.024142856,7,0,93,4,8
14,537,535.72742769029,0,0,651681.659493975,651682.70658009,7,0,95,0,4
14,538,501.079016481526,1,0,651684.34192043,651685.38900539,7,1,84,8,4
14,539,555.484009208158,1,0,651686.918452209,651687.965538709,7,1,65,8,0
14,540,612.614910583943,0,0,651689.730318708,651690.777398278,7,0,67,8,8
14,541,446.551221073605,0,0,651692.471566043,651693.518653697,7,0,76,4,8
14,542,484.427530085668,0,0,651695.083399127,651696.130491401,7,0,65,8,0
14,543,590.49582364969,0,0,651697.63641749,651698.6835063,7,0,100,0,8
14,544,517.395201721229,0,0,651700.37766983,651701.424760179,7,0,87,4,16
14,545,493.916047853418,1,0,651703.071872241,651704.118952581,7,1,75,16,16
14,546,669.254986685701,1,0,651705.789593072,651706.836687271,7,1,100,0,16
14,547,728.944723610766,0,0,651708.530848876,651709.577933066,7,0,70,4,16
14,548,559.308596421033,1,0,651711.507405908,651712.554493948,7,1,89,8,16
14,549,634.008731110953,0,0,651714.295751677,651715.342831248,7,0,81,4,16
14,550,541.918754926883,1,0,651716.989914822,651718.037009021,7,1,94,16,16
14,551,507.49015621841,0,0,651719.684109919,651720.731198343,7,0,82,0,0
14,552,512.317566783167,0,0,651722.425363028,651723.472452608,7,0,68,16,8
14,553,460.922968573868,1,0,651725.013676152,651726.060763422,7,1,76,16,0
14,554,669.523689430207,1,0,651727.601987352,651728.649074622,7,1,82,16,16
14,555,544.329380383715,0,0,651730.496185836,651731.543268871,7,0,64,8,0
14,556,489.017804618925,1,0,651733.284506582,651734.331589233,7,1,74,0,0
14,557,699.858613312244,1,0,651735.884567945,651736.931667149,7,1,69,8,4
14,558,704.388063866645,0,0,651738.802310257,651739.849394447,7,0,91,4,8
14,559,495.825454127043,0,0,651741.743569834,651742.790702529,7,0,95,0,16
14,560,618.034005980007,1,0,651744.296586657,651745.343677007,7,1,82,16,4
14,561,569.507367094047,1,0,651751.085013268,651752.132095533,8,1,96,4,4
14,562,693.929444416426,1,0,651753.767437028,651754.814583582,8,1,95,16,8
14,563,452.302922843955,1,0,651756.696936433,651757.744028707,8,1,75,4,8
14,564,390.684916405007,1,0,651759.261721513,651760.308802239,8,1,77,16,4
14,565,541.538798366673,1,0,651761.86179173,651762.90887669,8,1,73,4,16
14,566,585.115994210355,1,0,651764.497160942,651765.544246672,8,1,94,0,4
14,567,625.518801971339,0,0,651767.226652724,651768.273740764,8,0,96,0,0
14,568,474.982512881979,1,0,651769.956142582,651771.003230237,8,1,74,16,16
14,569,633.435139199719,1,0,651772.532687064,651773.579773949,8,1,91,0,8
14,570,506.684047984891,0,0,651775.391591943,651776.438673438,8,0,86,8,0
14,571,682.766731479205,1,0,651778.003437346,651779.050520766,8,1,71,4,0
14,572,551.786844152957,1,0,651780.768215419,651781.815315008,8,1,99,8,4
14,573,442.521834746003,1,0,651783.509471224,651784.556559264,8,1,87,4,0
14,574,494.465387193486,1,0,651786.05072595,651787.09781091,8,1,86,8,0
14,575,663.607994327322,1,0,651788.780261233,651789.827363516,8,1,80,8,8
14,576,512.487334548496,1,0,651791.662640261,651792.709744854,8,1,84,16,0
14,577,461.397240520455,1,0,651794.415687034,651795.462759676,8,1,87,16,16
14,578,597.000124049373,1,0,651797.003980141,651798.051065871,8,1,64,16,8
14,579,594.703061971813,1,1,651799.792290493,651800.839375453,8,0,90,8,16
14,580,648.557945620269,0,0,651802.592367947,651803.639457527,8,0,84,4,4
14,581,591.601431486197,1,0,651805.45128014,651806.498353551,8,1,95,16,4
14,582,437.598953954875,1,0,651808.251356439,651809.298446019,8,1,74,4,16
14,583,590.895798173733,0,0,651810.933782509,651811.980878248,8,0,72,16,16
14,584,678.164523211308,1,0,651813.745629375,651814.792725884,8,1,89,16,0
14,585,696.843213983811,0,0,651816.533979763,651817.581087821,8,0,99,8,8
14,586,597.093669581227,1,0,651819.35755408,651820.404652513,8,1,94,8,4
14,587,606.769278296269,1,0,651822.098814118,651823.145911782,8,1,70,16,8
14,588,441.594078787602,0,0,651824.934187103,651825.981280148,8,0,66,8,8
14,589,651.054417481646,0,0,651827.463677423,651828.510767002,8,0,85,16,0
14,590,497.632075916044,0,0,651830.205020613,651831.252020882,8,0,63,4,8
14,591,548.528149724007,1,0,651832.957948819,651834.005041093,8,1,63,8,4
14,592,524.886157130823,1,0,651835.628618566,651836.675706221,8,1,72,8,16
14,593,672.524075256661,0,0,651838.21692861,651839.264013571,8,0,70,16,4
14,594,574.532262515277,0,0,651841.075861976,651842.122920374,8,0,68,4,0
14,595,581.240592175163,0,0,651843.852375585,651844.899470939,8,0,94,16,4
14,596,589.800199260935,0,0,651846.640694791,651847.687793995,8,0,89,4,16
14,597,758.133618626744,0,0,651849.370185804,651850.417272688,8,0,91,16,4
14,598,405.281866202131,0,0,651852.323219411,651853.370300522,8,0,86,0,16
14,599,502.368635614403,1,0,651854.793871143,651855.840955333,8,1,68,4,8
14,600,552.977528423071,1,0,651857.417476718,651858.464571302,8,1,87,0,0
14,601,562.116886605509,0,0,651860.135206018,651861.182290978,8,0,83,0,16
14,602,480.48899450805,1,0,651862.911754273,651863.958840003,8,1,97,0,8
14,603,580.129979876801,0,0,651865.441238048,651866.488325318,8,0,80,0,16
14,604,839.353837072849,0,0,651868.158963884,651869.206046919,8,0,90,8,8
14,605,619.045683415607,0,0,651871.100225385,651872.147317275,8,0,91,0,4
14,606,413.261337089352,0,0,651873.817939672,651874.865031946,8,0,75,4,4
14,607,508.72164638713,0,0,651876.406258955,651877.453390496,8,0,64,8,16
14,608,602.085843333043,1,0,651879.065157367,651880.112248871,8,1,71,0,8
14,609,515.357218449935,0,0,651881.794648379,651882.841734879,8,0,78,0,8
14,610,617.088541970588,1,0,651884.535896484,651885.582990298,8,1,74,16,16
14,611,565.803657635115,1,0,651887.277161142,651888.324275744,8,1,63,4,4
14,612,556.176168960519,1,0,651889.947823575,651890.994910075,8,1,67,16,16
14,613,546.140236780047,0,0,651892.700842632,651893.747929902,8,0,64,4,0
14,614,607.656998327002,0,0,651895.489208804,651896.536308777,8,0,70,16,0
14,615,436.395950964652,0,0,651898.218642457,651899.265735886,8,0,88,0,4
14,616,596.758368657902,1,0,651900.74814009,651901.795222356,8,1,81,0,0
14,617,472.894484526478,1,0,651903.407026568,651904.454125771,8,1,87,4,16
14,618,468.311909353361,0,0,651906.030634067,651907.077725572,8,0,74,4,4
14,619,435.73805259075,0,0,651908.66600559,651909.713101329,8,0,76,4,8
14,620,561.143705272116,0,0,651911.289614629,651912.33669651,8,0,73,8,0
14,621,621.993329492398,0,0,651914.030868509,651915.077953084,8,0,70,0,16
14,622,598.971124156378,1,0,651916.795650047,651917.842744246,8,1,62,8,4
14,623,690.386263770051,0,0,651919.607500378,651920.654586108,8,0,90,4,0
14,624,674.682551296428,1,0,651922.536999782,651923.584082432,8,1,95,16,0
14,625,618.277301313356,0,0,651925.325310904,651926.372396249,8,0,95,16,8
14,626,569.820340373553,0,0,651928.007740824,651929.054862356,8,0,63,8,0
14,627,504.813522798941,1,0,651930.701932841,651931.749020881,8,1,85,4,16
14,628,550.015638698824,1,0,651933.266712532,651934.313814045,8,1,65,0,4
14,629,509.757576393895,1,0,651936.007966026,651937.055053296,8,1,95,0,8
14,630,541.951861581765,0,0,651938.631574296,651939.678654637,8,0,79,8,16
14,631,642.048640642315,0,0,651941.39635391,651942.443443105,8,0,73,8,4
14,632,423.430465743877,0,0,651944.208219639,651945.255293435,8,0,65,0,0
14,633,545.467709889635,1,0,651946.725916679,651947.773007798,8,1,94,0,4
14,634,605.447322479449,0,0,651949.478942665,651950.52602801,8,0,71,16,8
14,635,392.843777663074,0,0,651952.196714695,651953.243761544,8,0,73,8,16
14,636,470.191288855858,1,0,651954.726154585,651955.77323839,8,1,65,8,0
14,637,736.622769967653,0,0,651957.396814708,651958.443900823,8,0,100,4,8
14,638,651.31426602602,1,0,651960.291023201,651961.338105467,8,1,79,8,8
14,639,472.669667447917,0,0,651963.067574151,651964.114654877,8,0,85,0,0
14,640,591.375074582174,0,0,651965.761760009,651966.808850359,8,0,96,0,16
14,641,486.137141706422,0,0,651972.561942943,651973.609034447,9,0,87,0,8
14,642,613.736301776953,0,0,651975.291457822,651976.338533159,9,0,62,16,16
14,643,489.947870140895,1,0,651978.150383874,651979.197446891,9,1,84,0,0
14,644,327.460853150114,0,0,651980.832783382,651981.879870651,9,0,74,4,0
14,645,412.406723597087,1,0,651983.397562302,651984.444648032,9,1,68,8,4
14,646,542.563179507852,1,0,651986.056461868,651987.103547983,9,1,70,8,0
14,647,568.683550693095,1,0,651988.809484774,651989.856569734,9,1,90,0,16
14,648,603.015908971429,0,0,651991.586034954,651992.633122609,9,0,96,16,8
14,649,762.18032813631,1,0,651994.3978772,651995.444967935,9,1,92,16,8
14,650,544.167311862111,1,0,651997.362670211,651998.409756326,9,1,62,8,16
14,651,713.083946960978,0,0,652000.00980152,652001.056888405,9,0,66,4,16
14,652,485.87382840924,0,0,652002.798124191,652003.845220315,9,0,63,0,8
14,653,547.681620460935,1,0,652005.504113337,652006.551170195,9,1,78,16,0
14,654,527.277919580229,0,0,652008.233571243,652009.280658128,9,0,94,0,8
14,655,691.222783992998,0,0,652010.833640305,652011.88072334,9,0,69,8,16
14,656,710.804978152737,0,0,652013.574904578,652014.622016485,9,0,94,0,0
14,657,633.626079885289,0,0,652016.422049669,652017.469125005,9,0,82,4,0
14,658,562.370575848036,1,0,652019.210359252,652020.257446906,9,1,89,16,0
14,659,754.432988818735,1,0,652022.0104394,652023.057519741,9,1,79,8,8
14,660,538.842146866955,0,0,652024.892876558,652025.940026191,9,0,67,4,16
14,661,640.822925022803,0,0,652027.551768809,652028.598882641,9,0,94,8,8
14,662,555.704976781271,1,0,652030.304797105,652031.35187937,9,1,78,8,8
14,663,598.410621052608,1,0,652033.093107842,652034.140196267,9,1,74,16,8
14,664,467.338343034498,0,0,652035.787301014,652036.834391364,9,0,95,16,16
14,665,603.06210431736,1,0,652038.387378545,652039.434460426,9,1,62,16,4
14,666,500.142406439409,0,0,652041.187454459,652042.234544424,9,0,74,16,0
14,667,475.818263133988,1,0,652043.881716154,652044.928737596,9,1,95,0,16
14,668,473.930029664189,0,0,652046.540551047,652047.587688362,9,0,94,4,4
14,669,395.887278951705,0,0,652049.187692365,652050.234793109,9,0,94,0,8
14,670,571.976121747866,1,0,652051.646582384,652052.693671579,9,1,95,0,4
14,671,475.852139759809,1,0,652054.352537268,652055.399636087,9,1,84,16,16
14,672,605.607081321068,1,0,652056.940849623,652057.987942282,9,1,61,16,4
14,673,521.283307461999,0,0,652059.740929386,652060.788017811,9,0,82,4,8
14,674,531.865114462562,1,0,652062.411601444,652063.458679859,9,1,80,0,16
14,675,606.197996297851,1,0,652065.046959492,652066.094056001,9,1,99,8,16
14,676,616.769024403766,0,0,652067.729394031,652068.776482456,9,0,79,8,4
14,677,431.814145529643,0,0,652070.588300065,652071.635457397,9,0,76,0,0
14,678,499.958780128509,1,0,652073.200145467,652074.247234277,9,1,88,16,16
14,679,497.206694097258,0,0,652075.906105356,652076.953184927,9,0,87,16,0
14,680,443.85803421028,0,0,652078.49441925,652079.5415019,9,0,77,4,4
14,681,496.799790416844,1,0,652081.153356927,652082.200406471,9,1,65,4,0
14,682,556.211200426333,0,0,652083.823978554,652084.871065824,9,0,98,8,0
14,683,618.987554335035,0,0,652086.518170956,652087.565307886,9,0,62,8,4
14,684,767.780740163289,0,0,652089.212379912,652090.259450243,9,0,67,16,8
14,685,640.433344524354,1,0,652092.047739423,652093.094826308,9,1,89,4,16
14,686,659.16939440649,1,0,652094.847821112,652095.894915696,9,1,83,16,4
14,687,436.564563889988,0,0,652097.765548025,652098.812639914,9,0,66,4,8
14,688,537.251873174682,0,0,652100.306806601,652101.353884632,9,0,76,16,4
14,689,468.612948781811,1,0,652103.083345232,652104.130433657,9,1,98,0,16
14,690,540.733845089562,1,0,652105.801076842,652106.848171041,9,1,71,0,16
14,691,550.698559498414,1,0,652108.448283219,652109.495294266,9,1,98,4,16
14,692,680.231378646567,0,0,652111.177699164,652112.224794133,9,0,100,8,8
14,693,547.214277787134,0,0,652113.942486092,652114.989569127,9,0,69,8,0
14,694,402.396198944189,0,0,652116.648442901,652117.695527091,9,0,67,4,16
14,695,376.901004347019,0,0,652119.224998932,652120.272106605,9,0,86,0,0
14,696,395.585084566846,0,0,652121.672122234,652122.719211814,9,0,95,0,4
14,697,512.204773258418,0,0,652124.307488752,652125.354574097,9,0,71,0,4
14,698,702.286946936511,0,0,652126.872272292,652127.919358407,9,0,95,16,4
14,699,522.958272602409,1,0,652129.660586879,652130.70766645,9,1,65,16,16
14,700,418.529142858461,1,0,652132.284193994,652133.33127087,9,1,77,4,0
14,701,586.164627922699,1,0,652134.778377234,652135.825464119,9,1,93,0,0
14,702,555.104437633418,1,0,652137.47258157,652138.519676924,9,1,64,8,4
14,703,731.536280829459,0,0,652140.202063343,652141.249147148,9,0,81,4,4
14,704,518.647479824722,1,0,652143.166864052,652144.213942853,9,1,87,0,4
14,705,574.296281556599,0,0,652145.896347366,652146.943430786,9,0,69,8,4
14,706,430.314722587354,1,0,652148.708194616,652149.755268412,9,1,75,0,4
14,707,477.489763638005,1,0,652151.320028855,652152.367120359,9,1,78,8,0
14,708,659.670998575166,1,0,652153.884805466,652154.93189851,9,1,89,4,8
14,709,589.9591880152,1,0,652156.661352566,652157.708442146,9,1,98,16,0
14,710,519.91669612471,0,0,652159.367322464,652160.414406654,9,0,87,8,8
14,711,461.60550438799,1,0,652162.143901131,652163.190952985,9,1,73,0,8
14,712,496.584597160108,0,0,652164.696880613,652165.743978277,9,0,69,4,8
14,713,740.25526153855,1,0,652167.249903211,652168.296987787,9,1,99,4,8
14,714,799.289794871584,0,0,652170.097037909,652171.144127873,9,0,91,8,16
14,715,481.119560543448,0,0,652173.097154167,652174.14420987,9,0,63,8,0
14,716,658.432964119129,0,0,652175.767790423,652176.814880387,9,0,61,4,4
14,717,385.123770451173,1,0,652178.603218072,652179.650256837,9,1,65,4,4
14,718,660.258449031971,1,0,652181.226771292,652182.273862797,9,1,90,4,0
14,719,495.650681899861,1,0,652184.097427874,652185.144541706,9,1,84,16,8
14,720,573.861275566742,1,0,652186.662223348,652187.709317932,9,1,90,8,16
