sub_id,Trial,RT,Resp,Error,Fix_onset,Disp_onset,block,tid,tloc,fish_setsize,bird_setsize
18,1,774.236606084742,1,0,706009.803186656,706010.850271797,1,1,88,8,8
18,2,683.810083079152,0,0,706012.685592948,706013.73267116,1,0,72,16,4
18,3,598.234856850468,0,0,706015.556229014,706016.603298757,1,0,97,0,4
18,4,622.267677215859,0,0,706018.250383282,706019.297456875,1,0,61,0,16
18,5,730.082953698002,1,0,706021.109254895,706022.156328488,1,1,97,4,0
18,6,597.867217729799,0,0,706024.0975274,706025.144608306,1,0,89,4,0
18,7,578.047426301055,0,0,706026.803454589,706027.850532416,1,0,86,16,8
18,8,472.215476213023,0,0,706029.462317811,706030.509389863,1,0,73,4,16
18,9,510.35986491479,1,0,706032.121181802,706033.168250775,1,1,65,16,8
18,10,855.570701183751,1,0,706034.838863435,706035.885939722,1,1,95,16,16
18,11,700.251444126479,0,0,706037.874207607,706038.921280044,1,0,81,8,8
18,12,544.015976367518,1,0,706040.768369497,706041.815448094,1,1,82,8,16
18,13,715.105604962446,0,0,706043.474290143,706044.521360655,1,0,88,0,8
18,14,548.071940778755,0,0,706046.321394224,706047.368474361,1,0,65,4,16
18,15,539.116174448282,0,0,706049.08614483,706050.133209953,1,0,71,4,8
18,16,591.655463678762,1,0,706051.768535031,706052.81559592,1,1,92,0,16
18,17,575.087450095452,0,0,706054.533278323,706055.580358075,1,0,91,0,4
18,18,662.241407320835,0,0,706057.192149628,706058.239218216,1,0,62,8,4
18,19,627.822685288265,0,0,706060.027491567,706061.074581713,1,0,68,8,0
18,20,723.778808722273,0,0,706062.886352017,706063.933433694,1,0,81,16,16
18,21,691.426180070266,1,0,706065.76875061,706066.815808419,1,1,87,4,0
18,22,664.481888758019,0,0,706068.52172406,706069.568796883,1,0,96,0,0
18,23,749.986666953191,0,0,706071.404131122,706072.451199325,1,0,90,0,8
18,24,690.084585919976,1,0,706074.357131443,706075.404179628,1,1,64,4,8
18,25,541.710436344147,1,0,706077.286565517,706078.333637185,1,1,76,8,16
18,26,662.935109692626,1,0,706080.063081345,706081.110151858,1,1,81,0,0
18,27,1556.34247383568,0,0,706082.780772602,706083.827843115,1,0,81,8,16
18,28,762.755101197399,1,0,706086.45141067,706087.498479258,1,1,100,4,8
18,29,544.279290712439,1,0,706089.427928731,706090.475002708,1,1,92,16,8
18,30,634.996075415984,0,0,706092.227966534,706093.275038587,1,0,81,0,0
18,31,756.541422451846,0,0,706095.051539401,706096.098610684,1,0,88,16,0
18,32,489.300494431518,1,0,706097.992768725,706099.039912381,1,1,63,8,4
18,33,524.627343052998,0,0,706100.710453823,706101.757520101,1,0,94,0,16
18,34,559.381367405877,0,0,706103.45166744,706104.498738337,1,0,89,4,4
18,35,718.305412796326,1,0,706106.204655133,706107.251716407,1,1,99,16,4
18,36,612.096199532971,0,0,706109.05175498,706110.098822798,1,0,69,4,4
18,37,584.886284079403,0,0,706111.734154805,706112.781266894,1,0,66,8,8
18,38,453.999053454027,0,0,706114.451827199,706115.498908876,1,0,66,0,16
18,39,460.255463141948,0,0,706117.00481266,706118.051878553,1,0,65,8,0
18,40,616.270347265527,1,0,706119.710734845,706120.757799583,1,1,99,0,16
18,41,555.711905355565,1,0,706122.440208648,706123.487257987,1,1,98,0,0
18,42,756.134517141618,1,0,706125.169637794,706126.216719471,1,1,91,16,4
18,43,689.174149767496,0,0,706128.063806999,706129.110871738,1,0,95,0,0
18,44,806.894509936683,0,0,706130.863847882,706131.910919935,1,0,100,4,0
18,45,613.196807098575,1,0,706133.769801943,706134.816842428,1,1,88,16,0
18,46,583.261742605828,1,0,706136.62863044,706137.675712117,1,1,74,0,8
18,47,667.103867977858,0,0,706139.3345584,706140.381624678,1,0,64,4,4
18,48,422.270833863877,1,0,706142.193433478,706143.240494752,1,1,87,0,4
18,49,610.817739274353,1,0,706144.722864242,706145.769959392,1,1,74,8,0
18,50,785.809732042253,0,0,706147.417056621,706148.464110966,1,0,99,4,16
18,51,817.479437333532,1,0,706150.311201189,706151.358274011,1,1,61,16,16
18,52,566.151316859759,1,0,706153.299476387,706154.34654998,1,1,84,0,8
18,53,541.134532541037,1,0,706156.005401652,706157.05247794,1,1,73,0,4
18,54,644.808768061921,1,0,706158.687873465,706159.73487507,1,1,87,4,4
18,55,812.221620231867,0,0,706161.405564722,706162.452554008,1,0,81,8,8
18,56,780.36905778572,1,0,706164.476117559,706165.523192307,1,1,99,8,4
18,57,578.84237379767,1,0,706167.440876942,706168.48794476,1,1,94,4,0
18,58,707.472569658421,0,0,706170.182095564,706171.229158763,1,0,68,4,8
18,59,808.664952288382,0,0,706172.946894675,706173.993904364,1,0,81,16,8
18,60,552.069775643758,0,0,706175.911578991,706176.958656048,1,0,82,8,0
18,61,1814.53986407723,1,0,706178.699866585,706179.746927859,1,1,76,16,16
18,62,599.82359688729,1,0,706182.711720734,706183.758822044,1,1,68,16,4
18,63,604.537846869789,1,0,706185.4058469,706186.452919723,1,1,93,4,4
18,64,514.783468330279,1,0,706188.158828819,706189.205902412,1,1,77,4,16
18,65,744.986774749123,1,0,706190.92357827,706191.970656097,1,1,81,16,0
18,66,550.847519887611,1,0,706193.817739391,706194.864810289,1,1,85,0,8
18,67,905.297069810331,0,0,706196.500132286,706197.547203569,1,0,86,16,8
18,68,674.219898763113,1,0,706199.606063172,706200.653133685,1,1,92,16,16
18,69,634.679636335932,0,0,706202.476689229,706203.523763976,1,0,97,8,4
18,70,919.216541922651,0,0,706205.312031938,706206.359098601,1,0,62,8,8
18,71,657.725412864238,1,0,706208.335612042,706209.38267909,1,1,93,8,4
18,72,914.090381935239,0,0,706211.100354179,706212.147427386,1,0,91,8,0
18,73,502.016573911533,1,0,706214.112162902,706215.159239574,1,1,87,16,4
18,74,552.686100592837,0,0,706216.735727377,706217.782810208,1,0,69,4,16
18,75,601.817317423411,1,0,706219.347539333,706220.394608306,1,1,88,4,8
18,76,640.338584198616,0,0,706222.135813839,706223.182887047,1,0,73,16,0
18,77,484.160475898534,1,0,706224.971146154,706226.018225521,1,1,84,8,16
18,78,405.193515005521,0,0,706227.63001438,706228.677091822,1,0,76,8,16
18,79,501.221626414917,1,0,706230.135936257,706231.18301216,1,1,72,0,4
18,80,624.978582723998,1,0,706232.818333388,706233.865403131,1,1,68,16,0
18,81,716.717827599496,0,0,706261.948184685,706262.995255967,2,0,64,16,4
18,82,730.775501113385,0,0,706264.901208102,706265.948264757,2,0,90,16,4
18,83,582.953002653085,1,0,706267.854198799,706268.90123505,2,1,99,0,4
18,84,544.223856180906,0,0,706270.618902439,706271.665972952,2,0,100,0,4
18,85,610.04588950891,1,0,706273.266000438,706274.313070181,2,1,81,8,4
18,86,749.32491639629,1,0,706276.042508182,706277.089588704,2,1,90,8,8
18,87,511.330355308019,0,0,706279.042587485,706280.089635669,2,0,76,0,0
18,88,455.949273193255,1,0,706281.63083127,706282.677913717,2,1,65,4,8
18,89,659.813064266928,0,0,706284.266174441,706285.313240335,2,0,62,0,8
18,90,422.436752705835,1,0,706287.101507526,706288.148582659,2,1,75,8,16
18,91,616.627592477016,0,0,706289.772140974,706290.819203788,2,0,83,4,8
18,92,416.376673965715,1,0,706292.501585905,706293.548662577,2,1,85,8,8
18,93,749.853469897062,0,0,706295.136921376,706296.18403539,2,0,62,16,8
18,94,699.336388381198,0,0,706297.960490779,706299.007568606,2,0,97,8,0
18,95,894.793369574472,0,0,706300.737004682,706301.784088669,2,0,98,8,4
18,96,498.198131448589,1,0,706303.8546954,706304.90179286,2,1,77,16,4
18,97,579.443685011938,0,0,706306.572386657,706307.619465639,2,0,66,4,0
18,98,611.915267189033,0,0,706309.301843137,706310.348950606,2,0,87,0,4
18,99,775.91119275894,0,0,706312.160706281,706313.207782568,2,0,66,8,4
18,100,625.733879045583,0,0,706315.160743622,706316.207898442,2,0,81,16,16
18,101,665.436980547383,1,0,706317.93726638,706318.984340742,2,1,61,16,8
18,102,427.722672000527,0,0,706320.854961794,706321.902035002,2,0,62,8,0
18,103,653.125496581197,1,0,706323.372641579,706324.419717097,2,1,79,8,0
18,104,622.036699671298,0,0,706326.184455384,706327.231522817,2,0,87,4,8
18,105,639.599071349949,0,0,706329.008024017,706330.055092989,2,0,91,16,8
18,106,619.021673919633,1,0,706331.784540615,706332.831609588,2,1,70,0,8
18,107,542.540030437522,0,0,706334.561042969,706335.608118101,2,0,82,0,4
18,108,638.394138775766,1,0,706337.361096171,706338.408160139,2,1,69,16,0
18,109,514.850846375339,1,0,706340.172924989,706341.219770289,2,1,63,0,16
18,110,556.306287413463,1,0,706342.808225814,706343.855301716,2,1,82,4,16
18,111,565.967689850368,1,0,706345.490627564,706346.537738113,2,1,65,4,4
18,112,401.604895014316,1,0,706348.278903225,706349.325973737,2,1,67,0,16
18,113,851.341888774186,0,0,706350.914243316,706351.96130382,2,0,94,16,4
18,114,481.220517773181,1,0,706353.914269878,706354.961360024,2,1,72,4,4
18,115,487.166262697428,1,0,706356.620197068,706357.66727297,2,1,67,0,0
18,116,498.169259168208,1,0,706359.173184454,706360.220257661,2,1,67,4,4
18,117,527.478759759106,1,0,706361.879110488,706362.926178306,2,1,72,0,8
18,118,381.262709619477,1,0,706364.526205023,706365.57328131,2,1,62,0,16
18,119,403.364943340421,1,0,706367.032123435,706368.079198568,2,1,64,4,0
18,120,566.525500384159,0,0,706369.549817079,706370.596891827,2,0,78,0,4
18,121,686.436296906322,0,0,706372.243972117,706373.291050714,2,0,95,16,8
18,122,710.08684951812,1,0,706375.138137858,706376.185202981,2,1,81,4,8
18,123,605.634219944477,1,0,706378.055830962,706379.102894546,2,1,84,16,0
18,124,609.030743595213,0,0,706380.785282822,706381.83235295,2,0,72,0,16
18,125,760.397976147942,0,0,706383.455907416,706384.502978314,2,0,76,16,16
18,126,534.141689771786,1,0,706386.44418377,706387.491267371,2,1,87,4,16
18,127,526.860895100981,0,0,706389.232466745,706390.279586148,2,0,65,8,0
18,128,563.155924202874,1,0,706391.8560343,706392.903107892,2,1,63,16,16
18,129,625.401656492613,1,0,706394.6207876,706395.667855033,2,1,93,8,8
18,130,531.871566199698,1,0,706397.491425591,706398.538498414,2,1,92,4,16
18,131,717.42962312419,0,0,706400.232673085,706401.279712801,2,0,73,16,8
18,132,621.712561347522,1,0,706403.197390507,706404.244468719,2,1,90,0,8
18,133,529.392023105174,1,0,706405.973896711,706407.020970304,2,1,97,0,0
18,134,565.332116791978,1,0,706408.585706743,706409.632773791,2,1,74,8,16
18,135,619.655707036145,0,0,706411.256366368,706412.303421483,2,0,79,16,16
18,136,686.490961466916,0,0,706413.938725002,706414.985824387,2,0,91,16,0
18,137,466.988071217202,0,0,706416.821126675,706417.868188334,2,0,72,4,4
18,138,413.455578964204,1,0,706419.397626412,706420.444705779,2,1,85,4,8
18,139,547.238112078048,0,0,706421.891786532,706422.93885666,2,0,88,16,16
18,140,882.863383390941,0,0,706424.680059883,706425.727139635,2,0,92,16,0
18,141,473.624438745901,1,0,706427.715415988,706428.762466868,2,1,77,8,0
18,142,692.611479433253,0,0,706430.421349723,706431.468405992,2,0,69,4,16
18,143,990.302166785114,0,0,706433.350787646,706434.397859314,2,0,73,8,4
18,144,582.675444777124,0,0,706436.480302871,706437.527322954,2,0,93,4,16
18,145,752.191731822677,1,0,706439.162644182,706440.209716234,2,1,80,16,0
18,146,541.362430318259,0,0,706442.021505016,706443.068583613,2,0,83,4,4
18,147,498.894913471304,0,0,706444.739252093,706445.786271021,2,0,95,8,16
18,148,453.20718572475,0,0,706447.421593404,706448.468661607,2,0,76,8,8
18,149,694.067407399416,0,0,706449.962802478,706451.009872606,2,0,81,8,4
18,150,1006.68077880982,0,0,706452.892263115,706453.939333628,2,0,100,8,8
18,151,699.393362738192,1,0,706456.080544396,706457.127671114,2,1,99,0,0
18,152,666.867885971442,1,0,706458.904171928,706459.951188931,2,1,99,4,0
18,153,555.575628764927,1,0,706461.657109192,706462.704254002,2,1,97,8,16
18,154,677.924820338376,0,0,706464.45714584,706465.504018054,2,0,64,16,4
18,155,457.161135040224,1,0,706467.339544433,706468.386611097,2,1,67,0,0
18,156,498.216609586962,1,0,706470.033701781,706471.080765365,2,1,64,0,8
18,157,561.711545102298,1,0,706472.621972515,706473.669088838,2,1,61,0,16
18,158,780.367517960258,0,0,706475.304363486,706476.351432844,2,0,94,4,0
18,159,458.401098963805,0,0,706478.210296758,706479.25737112,2,0,76,4,0
18,160,563.056603772566,1,0,706480.751503523,706481.798579425,2,1,69,8,16
18,161,618.893096339889,1,0,706503.763627145,706504.810759637,3,1,97,8,0
18,162,581.260707811452,1,0,706506.587205017,706507.63427322,3,1,68,8,0
18,163,637.3832274694,1,0,706509.246060154,706510.293138366,3,1,83,4,8
18,164,462.793135433458,0,0,706512.01085657,706513.057885507,3,0,65,16,8
18,165,537.807687185705,1,0,706514.716742569,706515.763814237,3,1,71,8,4
18,166,421.483200741932,1,0,706517.410892603,706518.457963885,3,1,63,0,16
18,167,429.577036062256,1,0,706520.057997531,706521.105060345,3,1,63,0,4
18,168,381.828219396994,1,0,706522.634498038,706523.68157317,3,1,84,0,8
18,169,704.477946739644,0,0,706525.116887931,706526.163964218,3,0,79,16,16
18,170,463.773249881342,1,0,706527.987518992,706529.03463647,3,1,82,0,8
18,171,498.080332996324,1,0,706530.505209171,706531.55227083,3,1,77,8,8
18,172,691.324934945442,0,0,706533.164075087,706534.21114252,3,0,70,16,4
18,173,615.628999774344,0,0,706536.081765882,706537.128838705,3,0,82,4,8
18,174,561.124477302656,0,0,706538.917103202,706539.964175639,3,0,92,8,8
18,175,419.765498256311,0,0,706541.552437134,706542.599548837,3,0,84,4,0
18,176,494.685349054635,0,0,706544.093648518,706545.140727115,3,0,79,0,16
18,177,597.797539434396,0,0,706546.658395351,706547.705473948,3,0,61,16,8
18,178,509.973362553865,0,0,706549.317261267,706550.36433717,3,0,88,8,0
18,179,651.264203363098,0,0,706551.976124874,706553.023199236,3,0,61,4,4
18,180,952.093489351682,1,0,706554.823222796,706555.870299468,3,1,99,16,0
18,181,504.942673374899,0,0,706557.917447743,706558.964467056,3,0,80,0,4
18,182,690.506889717653,0,0,706560.59978328,706561.646856872,3,0,92,8,4
18,183,555.955971591175,0,0,706563.423417356,706564.470440133,3,0,89,4,4
18,184,564.651503227651,0,0,706566.07046223,706567.117528893,3,0,88,8,16
18,185,656.286423327401,1,0,706568.705794622,706569.752855126,3,1,81,0,8
18,186,703.405441367067,1,0,706571.552892544,706572.599965752,3,1,71,16,0
18,187,723.337641800754,1,0,706574.399993546,706575.447068293,3,1,76,0,0
18,188,728.37064077612,1,0,706577.258884408,706578.305936827,3,1,79,16,16
18,189,569.005043478683,1,0,706580.094204789,706581.141322267,3,1,87,16,8
18,190,520.086262142286,1,0,706582.847185938,706583.894059414,3,1,85,0,8
18,191,498.128453269601,1,0,706585.458984036,706586.506064558,3,1,87,16,0
18,192,408.125003916211,1,0,706588.164910071,706589.211980584,3,1,78,4,4
18,193,441.186348441988,0,0,706590.670825019,706591.717904001,3,0,66,16,8
18,194,587.936341529712,1,0,706593.212044487,706594.25912116,3,1,72,16,4
18,195,557.887713075615,0,0,706595.965019862,706597.012116552,3,0,78,8,4
18,196,473.400005721487,0,0,706598.69448481,706599.741557248,3,0,89,16,0
18,197,589.599379338324,0,0,706601.400403531,706602.447489057,3,0,94,0,16
18,198,429.282924858853,1,0,706604.188687661,706605.235762793,3,1,95,8,0
18,199,643.271998036653,0,0,706606.847567821,706607.894624475,3,0,88,16,4
18,200,514.647576608695,0,0,706609.612302258,706610.659371616,3,0,98,8,16
18,201,676.06733343564,1,0,706612.341744494,706613.38882771,3,1,71,0,0
18,202,694.168267538771,1,0,706615.141794231,706616.188867823,3,1,77,16,4
18,203,463.395986589603,1,0,706617.953605726,706619.000674699,3,1,94,4,4
18,204,611.203856533393,1,0,706620.506589646,706621.553659389,3,1,67,16,4
18,205,449.392592883669,1,0,706623.271323314,706624.31840884,3,1,85,8,0
18,206,371.596687706187,1,0,706625.824311085,706626.871387372,3,1,86,4,0
18,207,497.608368983492,0,0,706628.436152298,706629.483182005,3,0,95,0,4
18,208,383.164424099959,0,0,706631.118511317,706632.16558568,3,0,75,4,0
18,209,410.132967983373,1,0,706633.612668742,706634.659742335,3,1,70,0,0
18,210,405.429497011937,0,0,706636.130356612,706637.17742058,3,0,67,4,16
18,211,424.492837162688,0,0,706638.636267325,706639.683335913,3,0,68,16,16
18,212,474.478285526857,1,0,706641.142193437,706642.18926318,3,1,83,0,8
18,213,419.32279150933,1,0,706643.789290281,706644.836365798,3,1,96,0,16
18,214,509.5348902978,0,0,706646.389333551,706647.436412148,3,0,92,0,0
18,215,597.270525875501,0,0,706649.083493979,706650.130560642,3,0,98,8,8
18,216,431.69163481798,1,0,706651.860002108,706652.907079165,3,1,91,8,16
18,217,535.630339523777,0,0,706654.507100877,706655.554175624,3,0,65,8,16
18,218,516.802981263027,0,0,706657.224792519,706658.271858027,3,0,85,8,8
18,219,398.672636132687,1,0,706659.918947942,706660.966019609,3,1,75,4,8
18,220,813.715659547597,1,0,706662.566085207,706663.613124538,3,1,69,16,0
18,221,665.260282810777,0,0,706665.448449539,706666.495515817,3,0,99,16,16
18,222,523.658007499762,0,0,706668.319080215,706669.366149188,3,0,69,16,16
18,223,675.232734996825,0,0,706671.060293062,706672.107372044,3,0,61,0,0
18,224,672.801312059164,1,0,706673.989762938,706675.036835761,3,1,91,4,16
18,225,577.043059282005,0,0,706676.907432175,706677.954506153,3,0,95,0,16
18,226,437.305157072842,1,0,706679.578079482,706680.62514884,3,1,85,4,16
18,227,610.200644470751,0,0,706682.072229593,706683.119305495,3,0,73,8,4
18,228,499.739521066658,0,0,706684.754624028,706685.801706475,3,0,73,4,16
18,229,607.430454809219,1,0,706687.342897841,706688.389972204,3,1,97,4,0
18,230,556.608867831528,0,0,706690.095882455,706691.142958742,3,0,66,4,0
18,231,654.173749382608,1,0,706692.778278046,706693.825353563,3,1,71,4,4
18,232,530.236630700529,0,0,706695.578322008,706696.625395601,3,0,84,16,8
18,233,421.585215721279,0,0,706698.260712209,706699.307781952,3,0,67,4,8
18,234,488.475519930944,0,0,706700.801964785,706701.848999496,3,0,69,8,8
18,235,502.043521264568,0,0,706703.484321109,706704.531398166,3,0,94,4,16
18,236,415.207927930169,0,0,706706.190246759,706707.237312652,3,0,76,0,4
18,237,522.518518730067,1,0,706708.660869505,706709.707948872,3,1,97,4,8
18,238,445.011720294133,1,0,706711.296211521,706712.343279724,3,1,65,8,4
18,239,598.655235837214,1,0,706713.978588248,706715.025687248,3,1,99,0,4
18,240,616.818918730132,1,0,706716.790406672,706717.837493739,3,1,62,8,16
18,241,463.462585234083,1,0,706732.63770824,706733.684772208,4,1,75,8,16
18,242,569.413103628904,1,0,706735.190691006,706736.237759979,4,1,88,16,16
18,243,437.712062383071,1,0,706737.955431602,706739.00250789,4,1,97,0,8
18,244,550.007916870527,1,0,706740.62606505,706741.673147112,4,1,67,0,0
18,245,353.354472317733,1,0,706743.237873542,706744.284940591,4,1,78,4,0
18,246,389.200250152498,0,0,706745.790852844,706746.837941835,4,0,66,8,4
18,247,439.0120805474,0,0,706748.285009114,706749.332082706,4,0,78,8,0
18,248,597.072270233184,1,0,706750.790927911,706751.838001889,4,1,99,8,4
18,249,513.252472737804,1,0,706753.555670433,706754.60275057,4,1,80,8,4
18,250,497.846275684424,1,0,706756.285133842,706757.332246315,4,1,88,4,8
18,251,602.395530906506,0,0,706758.955761515,706760.002825099,4,0,81,16,0
18,252,367.014479706995,1,0,706761.744110704,706762.791132711,4,1,86,0,4
18,253,406.172474380583,0,1,706764.249974452,706765.297031106,4,1,72,0,16
18,254,642.272635479458,0,0,706766.720589499,706767.767665016,4,0,61,4,8
18,255,734.446502989158,1,0,706769.520631922,706770.567701279,4,1,82,8,16
18,256,701.787829282694,0,0,706772.391260288,706773.438331571,4,0,76,8,0
18,257,374.465042841621,1,0,706775.238398246,706776.285435652,4,1,87,0,8
18,258,504.729019245133,0,0,706777.803120442,706778.850240615,4,0,85,4,4
18,259,667.983507155441,0,0,706780.461976349,706781.509050326,4,0,80,16,16
18,260,570.911762421019,0,0,706783.262023006,706784.309094289,4,0,71,4,4
18,261,428.409059997648,0,0,706785.897345389,706786.944423986,4,0,65,8,0
18,262,477.141840732656,1,0,706788.473868224,706789.520935657,4,1,95,0,4
18,263,463.250855915248,1,0,706791.191546392,706792.2386196,4,1,84,4,0
18,264,521.717796917073,0,0,706793.815120491,706794.862189079,4,0,79,16,8
18,265,460.955709801055,0,0,706796.48574701,706797.532822527,4,0,68,8,16
18,266,442.680002772249,0,0,706799.015202411,706800.062271384,4,0,69,16,0
18,267,690.521903336048,0,0,706801.7093536,706802.756421033,4,0,83,16,16
18,268,553.365559317172,1,0,706804.462337444,706805.509417581,4,1,78,4,16
18,269,719.062248943374,0,0,706807.203551061,706808.250622344,4,0,80,16,8
18,270,670.827994705178,1,0,706809.991840195,706811.038929186,4,1,73,4,4
18,271,577.155853272416,1,0,706812.909523291,706813.956600348,4,1,62,8,16
18,272,562.926101498306,0,0,706815.697807036,706816.744893333,4,0,94,16,8
18,273,630.428881035186,1,0,706818.47431324,706819.521391067,4,1,90,0,4
18,274,733.774743508548,0,0,706821.203771644,706822.250859481,4,0,74,16,0
18,275,622.376621584408,0,0,706824.074411175,706825.121475143,4,0,88,0,0
18,276,555.653776042163,0,0,706826.792084339,706827.839169865,4,0,90,0,4
18,277,447.630619746633,1,0,706829.450957184,706830.498029237,4,1,94,8,4
18,278,554.331045015715,0,0,706831.992175498,706833.039244086,4,0,69,8,8
18,279,610.758070019074,1,0,706834.615795407,706835.662822804,4,1,72,8,8
18,280,514.917820226401,0,0,706837.321666008,706838.368763468,4,0,62,16,4
18,281,424.033576855436,1,0,706839.93346988,706840.980533464,4,1,75,0,16
18,282,889.597146539018,0,0,706842.509981935,706843.557059378,4,0,81,4,0
18,283,643.099919776432,0,0,706845.592384301,706846.639455199,4,0,63,0,16
18,284,721.440931782126,0,0,706848.415958709,706849.463024987,4,0,61,0,0
18,285,802.882816293277,0,0,706851.333694929,706852.380725021,4,0,73,16,8
18,286,875.554871512577,0,0,706854.227813319,706855.274881522,4,0,87,16,4
18,287,604.089750559069,1,0,706857.298489344,706858.34552444,4,1,97,8,16
18,288,539.28709786851,0,0,706860.01613479,706861.063201068,4,0,74,4,16
18,289,684.129986912012,0,0,706862.710311771,706863.757380359,4,0,69,0,8
18,290,520.877423812635,1,0,706865.651514533,706866.698589665,4,1,69,8,4
18,291,662.681034416892,0,0,706868.251574356,706869.298671431,4,0,65,0,8
18,292,561.459779622965,0,0,706870.992777579,706872.039840393,4,0,93,16,4
18,293,531.008095480502,1,0,706873.722225204,706874.769288403,4,1,73,0,8
18,294,592.474278877489,0,0,706876.392852493,706877.43992955,4,0,92,8,8
18,295,683.057096553966,1,0,706879.122306277,706880.169375635,4,1,100,8,0
18,296,629.454156151041,0,0,706881.945880299,706882.992950427,4,0,83,4,8
18,297,550.849444698542,1,0,706884.722389583,706885.76947357,4,1,98,4,16
18,298,557.493511587381,1,0,706887.35772544,706888.404801727,4,1,83,8,0
18,299,480.292373220436,1,0,706889.993053982,706891.040158372,4,1,79,0,0
18,300,709.199511096813,0,0,706892.604870943,706893.651943381,4,0,74,16,16
18,301,514.860845752992,1,0,706895.428430722,706896.475537421,4,1,62,4,4
18,302,768.497971002944,0,0,706898.063771198,706899.110852105,4,0,90,4,16
18,303,596.239596488886,1,0,706900.899107747,706901.946185575,4,1,100,4,16
18,304,867.137667723,0,0,706903.652098136,706904.699170958,4,0,70,0,4
18,305,658.602357376367,1,0,706906.734498192,706907.78156832,4,1,99,4,4
18,306,854.984403355047,0,0,706909.499245718,706910.546328934,4,0,81,16,8
18,307,599.052131990902,0,0,706912.558114175,706913.605192002,4,0,98,0,0
18,308,674.620259669609,1,0,706915.252291541,706916.299407864,4,1,81,4,0
18,309,536.870303563774,0,0,706918.005282699,706919.052333194,4,0,84,0,16
18,310,481.444565928541,1,0,706920.640582369,706921.687667895,4,1,98,4,8
18,311,540.365377557464,0,0,706923.38181023,706924.428878818,4,0,88,4,0
18,312,576.706217136234,0,0,706926.052458692,706927.099536134,4,0,78,0,16
18,313,571.043419535272,1,0,706928.734831954,706929.781904777,4,1,62,4,8
18,314,516.059618792497,1,0,706931.534893625,706932.581967988,4,1,68,16,4
18,315,446.765609201975,1,0,706934.264326622,706935.311403294,4,1,62,16,16
18,316,633.579413639382,1,0,706936.911428855,706937.958503603,4,1,88,16,0
18,317,598.073172615841,1,0,706939.687946223,706940.735015196,4,1,74,16,0
18,318,575.590210966766,1,0,706942.370333345,706943.417408092,4,1,84,8,8
18,319,503.354703309014,1,0,706945.005674976,706946.052746258,4,1,93,8,8
18,320,720.498928800225,0,0,706947.57041411,706948.617486932,4,0,71,16,4
18,321,521.972257061861,1,0,706983.476892874,706984.52392951,5,1,70,16,4
18,322,448.432496632449,0,0,706986.253366356,706987.300441488,5,0,87,8,4
18,323,551.766810240224,0,0,706988.924007503,706989.971068392,5,0,100,0,16
18,324,410.711951553822,0,0,706991.629927764,706992.676980953,5,0,77,8,0
18,325,430.768879712559,1,0,706994.241720472,706995.288814083,5,1,74,0,0
18,326,940.854125889018,0,0,706996.747643889,706997.794781001,5,0,72,0,16
18,327,596.489437157288,1,0,706999.877104449,707000.924173037,5,1,65,16,8
18,328,507.020700722933,1,0,707002.712445618,707003.759517286,5,1,96,4,0
18,329,434.882588451728,0,0,707005.34777878,707006.394872776,5,0,77,0,4
18,330,632.978487294167,1,0,707007.865470884,707008.912536007,5,1,61,4,4
18,331,426.411874825135,0,0,707010.689037977,707011.736113494,5,0,86,0,8
18,332,563.941632513888,0,0,707013.265546568,707014.312615541,5,0,92,16,4
18,333,451.910247211345,1,0,707015.912644952,707016.959724704,5,1,63,4,16
18,334,608.486406737939,0,0,707018.442097273,707019.489161242,5,0,90,0,0
18,335,825.719173415564,0,0,707021.159781986,707022.206854809,5,0,87,16,4
18,336,539.674370083958,0,0,707024.218680085,707025.265725575,5,0,63,16,0
18,337,522.358759306371,1,0,707026.853987454,707027.901064127,5,1,81,16,0
18,338,537.013894529082,1,0,707029.53638343,707030.583455867,5,1,96,16,4
18,339,626.822552760132,0,0,707032.171720826,707033.218790569,5,0,87,8,0
18,340,481.210123747587,0,0,707034.901168066,707035.948247048,5,0,68,4,8
18,341,1713.88989349362,0,0,707037.583564042,707038.630649183,5,0,100,4,4
18,342,583.845730638132,1,0,707041.489556213,707042.53663943,5,1,62,8,0
18,343,1100.86184053216,1,0,707044.289567069,707045.336641047,5,1,96,8,4
18,344,481.725973426364,1,0,707047.54842852,707048.595503267,5,1,77,8,16
18,345,554.177060024813,1,0,707050.171997614,707051.219063123,5,1,73,16,8
18,346,428.135736729018,0,0,707052.972036958,707054.01910901,5,0,75,0,4
18,347,496.955857612193,1,0,707055.619131877,707056.666209704,5,1,65,8,8
18,348,461.949682794511,0,0,707058.266239115,707059.313308858,5,0,67,4,16
18,349,429.960458655842,1,0,707060.866273146,707061.913351743,5,1,77,0,16
18,350,767.458187416196,0,0,707063.348663809,707064.395730087,5,0,83,4,8
18,351,458.96699372679,0,0,707066.231066252,707067.278135994,5,0,87,16,8
18,352,794.215386966243,1,0,707068.79580962,707069.842878978,5,1,94,8,0
18,353,501.184670021757,1,0,707071.737027395,707072.784105222,5,1,65,0,4
18,354,475.021852529608,1,0,707074.431226319,707075.478314155,5,1,66,8,4
18,355,700.018926756456,0,0,707076.984173283,707078.031248801,5,0,62,0,8
18,356,799.146755831316,0,0,707079.74891773,707080.795992862,5,0,89,0,16
18,357,612.84726113081,1,0,707082.690137815,707083.737274541,5,1,96,4,8
18,358,625.382408266887,0,0,707085.41957928,707086.46667828,5,0,82,0,8
18,359,452.120821690187,1,0,707088.10197872,707089.149055393,5,1,66,8,16
18,360,749.498534598388,0,0,707090.784386245,707091.831488709,5,0,75,4,0
18,361,635.925374692306,1,0,707093.655016536,707094.702088974,5,1,65,8,16
18,362,547.619609860703,1,0,707096.43152351,707097.478597102,5,1,86,8,8
18,363,622.13678995613,0,0,707099.16097614,707100.208045113,5,0,80,0,4
18,364,440.720543963835,0,0,707101.902196301,707102.949293761,5,0,78,16,16
18,365,465.969845536165,1,0,707104.466940825,707105.514018267,5,1,91,0,8
18,366,443.199702072889,0,0,707107.078746622,707108.125813285,5,0,73,0,4
18,367,465.420504100621,1,0,707109.643484986,707110.690565508,5,1,88,16,16
18,368,520.164473331533,1,0,707112.231770348,707113.278840476,5,1,89,4,16
18,369,568.263605819084,1,0,707114.984754192,707116.031822395,5,1,65,8,16
18,370,463.434483041056,1,0,707117.796561452,707118.843635044,5,1,65,4,0
18,371,467.165538924746,0,0,707120.38483103,707121.431911167,5,0,73,0,0
18,372,582.072593620978,1,0,707123.043697716,707124.090768999,5,1,78,16,0
18,373,545.166244264692,0,0,707125.690807649,707126.737884321,5,0,68,8,0
18,374,752.174023538828,0,0,707128.443780714,707129.490852382,5,0,98,16,16
18,375,872.638011001982,1,0,707131.432114042,707132.479134895,5,1,93,16,16
18,376,625.303106033243,0,0,707134.51444904,707135.56155035,5,0,67,0,0
18,377,727.231921860948,1,0,707137.220383929,707138.267454057,5,1,62,4,16
18,378,980.976836523041,1,0,707140.055727793,707141.102801385,5,1,99,4,4
18,379,777.059920597821,0,0,707143.161641355,707144.208734195,5,0,88,4,8
18,380,655.631987145171,0,0,707146.138172889,707147.185234163,5,0,66,0,16
18,381,643.250824999996,1,0,707149.020564553,707150.06764238,5,1,83,4,4
18,382,503.638035734184,0,0,707151.903003182,707152.950052522,5,0,69,0,8
18,383,803.794022416696,0,0,707154.655946605,707155.703020968,5,0,62,16,0
18,384,589.405358186923,1,0,707157.597165535,707158.644240282,5,1,62,8,16
18,385,761.661422904581,1,0,707160.26783055,707161.314873345,5,1,91,8,4
18,386,573.386686039157,1,0,707163.091367231,707164.138445058,5,1,82,4,8
18,387,648.526350385509,1,0,707165.809060027,707166.856126691,5,1,68,8,4
18,388,733.723543467931,0,0,707168.620863053,707169.66794165,5,0,77,8,8
18,389,633.062409004197,0,0,707171.597382654,707172.644456246,5,0,80,16,4
18,390,804.273300687782,0,0,707174.4091826,707175.456255807,5,0,94,4,4
18,391,588.273953646421,0,0,707177.362179455,707178.409248428,5,0,89,4,0
18,392,698.543365695514,0,0,707180.079866863,707181.126935066,5,0,98,0,0
18,393,597.400258178823,0,0,707182.915201487,707183.962277775,5,0,97,4,0
18,394,772.568178945221,1,0,707185.727009902,707186.774078875,5,1,73,4,16
18,395,824.969651526771,0,0,707188.703526808,707189.750653141,5,0,61,16,8
18,396,817.53448699601,1,0,707191.632981671,707192.680054878,5,1,79,8,8
18,397,1078.64334818441,0,0,707194.550749073,707195.597749908,5,0,86,16,16
18,398,655.730922473595,1,0,707197.797841837,707198.844852296,5,1,62,16,0
18,399,781.011175131425,1,0,707200.515469575,707201.562573965,5,1,73,8,8
18,400,853.916902560741,1,0,707203.37432425,707204.421420171,5,1,84,16,8
18,401,902.712046983652,0,0,707239.398429829,707240.445483788,6,0,68,0,4
18,402,642.050512251444,0,0,707242.374942115,707243.422008393,6,0,87,4,0
18,403,957.816340960562,0,0,707245.257339168,707246.304405447,6,0,62,8,4
18,404,443.882625433616,1,0,707248.363291612,707249.410344416,6,1,61,0,0
18,405,454.663883661851,0,1,707251.057417008,707252.104495605,6,1,88,8,16
18,406,467.45426079724,0,0,707253.598635321,707254.64570083,6,0,76,4,4
18,407,693.38833366055,1,0,707256.257507012,707257.30457714,6,1,83,16,4
18,408,427.12328536436,1,0,707259.034018605,707260.081081419,6,1,84,4,8
18,409,594.446056522429,1,0,707261.563469772,707262.61054298,6,1,63,16,4
18,410,652.713586925529,0,0,707264.28120376,707265.328228847,6,0,62,8,4
18,411,656.402297085151,0,0,707267.104726197,707268.151801715,6,0,100,4,4
18,412,417.548499535769,0,0,707269.822429388,707270.869489122,6,0,87,0,4
18,413,433.147947653197,0,0,707272.457758315,707273.504821899,6,0,74,0,8
18,414,535.953323007561,1,0,707275.046027509,707276.093128049,6,1,97,16,4
18,415,615.517745725811,1,0,707277.787246516,707278.834316643,6,1,83,4,16
18,416,493.416512850672,1,0,707280.622576906,707281.669656273,6,1,74,16,4
18,417,565.948441741057,0,0,707283.257914302,707284.304998289,6,0,65,16,0
18,418,549.756536376663,1,0,707285.999183739,707287.046201127,6,1,93,16,8
18,419,653.759914799593,0,0,707288.658001535,707289.705079362,6,0,72,16,8
18,420,758.378463215195,0,0,707291.528630286,707292.575698104,6,0,90,0,16
18,421,428.519544191659,1,0,707294.399257498,707295.446339944,6,1,66,4,8
18,422,466.367126908153,1,0,707297.046363581,707298.093433324,6,1,88,0,4
18,423,473.132456885651,0,0,707299.587576505,707300.634655487,6,0,66,0,0
18,424,567.922144196928,1,0,707302.128792509,707303.175864177,6,1,75,16,8
18,425,705.776809947565,1,0,707304.870068491,707305.917081644,6,1,100,8,4
18,426,548.649769392796,1,0,707307.823048408,707308.87007003,6,1,65,8,4
18,427,611.370160360821,0,0,707310.458375025,707311.505413201,6,0,69,4,16
18,428,530.801370623522,1,0,707313.281903622,707314.329014941,6,1,63,8,8
18,429,511.686060577631,1,0,707315.88201118,707316.929022409,6,1,93,0,8
18,430,614.968404290266,0,0,707318.599634684,707319.646704812,6,0,75,8,0
18,431,853.85068890173,1,0,707321.446734146,707322.493842385,6,1,99,8,16
18,432,574.681314756162,0,0,707324.493929772,707325.540946005,6,0,100,4,4
18,433,631.778174312785,0,0,707327.152702527,707328.199816925,6,0,75,16,0
18,434,450.12055686675,1,0,707329.870397248,707330.917470841,6,1,66,16,8
18,435,605.653468053788,1,0,707332.541016068,707333.588094665,6,1,65,16,0
18,436,775.489273946732,1,0,707335.246944797,707336.29401685,6,1,92,4,0
18,437,483.636541990563,0,0,707338.1058218,707339.152886539,6,0,68,8,16
18,438,430.610275361687,0,0,707340.705860836,707341.752971769,6,0,77,0,0
18,439,559.411394409835,0,0,707343.200008637,707344.24707376,6,0,74,16,4
18,440,535.256925970316,1,0,707345.847111255,707346.894184463,6,1,79,4,8
18,441,403.124726843089,0,0,707348.482440952,707349.52951339,6,0,85,16,8
18,442,439.203022047877,1,0,707351.000128437,707352.047200874,6,1,78,4,0
18,443,489.986882545054,1,0,707353.529638888,707354.576658201,6,1,72,0,4
18,444,536.754429922439,1,0,707356.070793683,707357.117862656,6,1,81,16,0
18,445,507.067666039802,0,0,707358.753187348,707359.800265176,6,0,77,8,0
18,446,623.739388538525,0,0,707361.376755673,707362.423829651,6,0,80,8,4
18,447,789.342917269096,0,0,707364.212094532,707365.259169665,6,0,91,16,16
18,448,503.176850616001,0,0,707367.16507368,707368.212159206,6,0,68,0,16
18,449,418.520144768991,0,0,707369.729824363,707370.776903345,6,0,86,0,16
18,450,617.951093357988,1,0,707372.200455578,707373.247529555,6,1,94,16,16
18,451,416.789738577791,1,0,707375.047564279,707376.094644031,6,1,96,0,16
18,452,665.516282897443,0,0,707377.682893206,707378.729961024,6,0,61,4,0
18,453,440.218937932514,0,0,707380.577053942,707381.62412407,6,0,73,8,8
18,454,558.687280048616,1,0,707383.106502799,707384.1535941,6,1,80,4,16
18,455,409.51664315071,1,0,707385.741826722,707386.788919947,6,1,88,0,4
18,456,406.016949680634,1,0,707388.224226624,707389.271303681,6,1,100,0,8
18,457,496.644038008526,0,0,707390.800735215,707391.847807267,6,0,72,0,16
18,458,463.220443809405,1,0,707393.541957686,707394.589028584,6,1,76,0,0
18,459,532.417442998849,1,0,707396.106702979,707397.153774262,6,1,83,4,8
18,460,428.720879601315,0,0,707398.824383073,707399.871490927,6,0,66,4,8
18,461,405.456829234026,1,0,707401.30678259,707402.353860032,6,1,85,4,16
18,462,535.753912408836,1,0,707403.930351299,707404.977433746,6,1,78,8,16
18,463,461.351836100221,1,0,707406.565746055,707407.612758824,6,1,88,8,0
18,464,803.285486996174,1,0,707409.165723111,707410.212792084,6,1,71,8,8
18,465,535.42938909959,0,0,707412.224598498,707413.271674015,6,0,63,8,16
18,466,504.446841776371,0,0,707414.824636763,707415.871710355,6,0,74,0,8
18,467,632.260917220265,0,0,707417.412911346,707418.459973774,6,0,82,8,0
18,468,455.778349889442,1,0,707420.142378989,707421.189437953,6,1,94,8,8
18,469,686.078666825779,1,0,707422.671812062,707423.718890274,6,1,75,4,16
18,470,1027.92878088076,1,0,707425.460095037,707426.50716555,6,1,92,4,4
18,471,872.472477145493,0,0,707428.695439132,707429.742507335,6,0,76,16,0
18,472,614.051808719523,0,0,707431.777834569,707432.824908546,6,0,95,16,16
18,473,718.892480479553,0,0,707434.566115234,707435.613183822,6,0,62,16,16
18,474,964.369171764702,0,0,707437.401452939,707438.448527686,6,0,96,0,0
18,475,802.597559173591,1,0,707440.613268514,707441.660342876,6,1,86,8,0
18,476,780.854495475069,0,0,707443.531135622,707444.578035981,6,0,65,16,16
18,477,871.913126786239,1,0,707446.436882572,707447.483953085,6,1,61,4,4
18,478,750.746197882108,0,0,707449.378104582,707450.425196652,6,0,66,4,0
18,479,911.442225333303,0,0,707452.213442286,707453.260514724,6,0,99,8,8
18,480,705.370289739221,0,0,707455.213489251,707456.260560919,6,0,91,0,8
18,481,634.897139971145,1,0,707470.754905436,707471.801980568,7,1,79,4,0
18,482,437.34057364054,1,0,707473.637299794,707474.684373772,7,1,67,8,16
18,483,373.134612571448,1,0,707476.225570913,707477.27265105,7,1,65,4,16
18,484,649.741291883402,0,0,707478.660906076,707479.707981594,7,0,98,8,8
18,485,372.622612630948,1,0,707481.461000469,707482.508024402,7,1,88,8,4
18,486,447.160965530202,1,0,707483.93157856,707484.978650227,7,1,97,16,8
18,487,420.109269674867,0,0,707486.543381277,707487.590462569,7,0,87,0,4
18,488,394.526590593159,0,0,707489.202244113,707490.249318091,7,0,96,4,0
18,489,414.102315786295,0,0,707491.684637471,707492.731715298,7,0,98,4,4
18,490,543.162129702978,0,0,707494.24938084,707495.296455972,7,0,84,0,4
18,491,434.215063578449,0,0,707496.896478069,707497.943552431,7,0,90,0,0
18,492,451.266975025646,0,0,707499.461255314,707500.508295415,7,0,87,8,8
18,493,1052.41046741139,1,0,707502.07302762,707503.120105447,7,1,81,4,4
18,494,406.426164670847,0,0,707505.273085672,707506.320154645,7,0,84,4,8
18,495,418.095146305859,1,0,707507.75547672,707508.802545693,7,1,74,0,4
18,496,497.668808093295,1,0,707510.284972927,707511.33199455,7,1,85,16,16
18,497,413.400914170779,1,0,707513.026138424,707514.073214327,7,1,82,0,4
18,498,652.743613929488,1,0,707515.543825909,707516.590902196,7,1,100,16,4
18,499,409.262182889506,0,0,707518.332108884,707519.379175932,7,0,75,4,0
18,500,402.587319142185,1,0,707520.943908522,707521.990981729,7,1,85,4,8
18,501,477.680018171668,0,0,707523.602770203,707524.64985265,7,0,78,16,0
18,502,530.598495388404,1,0,707526.155752199,707527.202823097,7,1,85,16,16
18,503,482.584439683706,1,0,707528.802847119,707529.84992764,7,1,86,16,4
18,504,569.26219840534,1,1,707531.544069205,707532.591143952,7,0,91,4,16
18,505,623.694733018056,0,0,707534.167645999,707535.214713432,7,0,89,8,4
18,506,398.032828466967,1,0,707536.93239006,707537.979527942,7,1,88,8,8
18,507,536.791386199184,0,0,707539.520661564,707540.567740931,7,0,71,8,0
18,508,508.147485787049,0,0,707542.250123047,707543.297193175,7,0,83,8,8
18,509,421.745744999498,0,0,707544.979626107,707546.026641955,7,0,79,0,0
18,510,594.980384339578,1,0,707547.497245453,707548.544337139,7,1,70,8,16
18,511,386.768057476729,0,0,707550.238479473,707551.285547676,7,0,65,0,4
18,512,434.277042513713,0,0,707552.873848822,707553.92090894,7,0,88,4,0
18,513,389.658740488812,0,0,707555.532676241,707556.579752144,7,0,97,4,16
18,514,360.289570875466,0,0,707558.073890321,707559.120958909,7,0,86,16,8
18,515,318.041867460124,0,0,707560.568048131,707561.615125188,7,0,87,4,8
18,516,366.361583350226,0,0,707563.026906424,707564.073982327,7,0,65,16,8
18,517,468.968702945858,0,0,707565.568123968,707566.615197561,7,0,83,8,4
18,518,389.574433793314,0,0,707568.203465214,707569.250527643,7,0,78,4,4
18,519,768.869459629059,1,0,707570.709384012,707571.756464534,7,1,64,0,8
18,520,492.908747401088,0,0,707573.721190425,707574.768266712,7,0,72,8,16
18,521,586.117009050213,1,0,707576.380051722,707577.427126854,7,1,85,0,8
18,522,484.667856479064,1,0,707579.203627668,707580.250703956,7,1,94,4,4
18,523,854.059338569641,1,0,707581.780142419,707582.827214856,7,1,86,16,0
18,524,751.020291005261,1,0,707584.744889868,707585.79196885,7,1,96,0,0
18,525,492.191947298124,0,1,707587.603751857,707588.650830069,7,1,73,8,4
18,526,509.286204702221,0,0,707590.203801287,707591.250869874,7,0,77,4,4
18,527,566.460056812502,0,0,707592.874422416,707593.921502168,7,0,93,0,0
18,528,560.727966018021,1,0,707595.63919304,707596.686253543,7,1,93,0,8
18,529,669.279675697908,1,0,707598.30980262,707599.356875443,7,1,71,0,16
18,530,553.111869026907,0,0,707601.098085595,707602.145150334,7,0,94,8,8
18,531,558.107526623644,1,0,707603.768714424,707604.815781087,7,1,89,8,0
18,532,815.622378489934,0,0,707606.533457715,707607.580523224,7,0,79,8,0
18,533,634.546054294333,0,0,707609.592323092,707610.639405539,7,0,61,8,16
18,534,472.667037160136,0,0,707612.392377064,707613.439446422,7,0,76,16,16
18,535,658.494182862341,0,0,707615.039477373,707616.086548271,7,0,71,8,16
18,536,488.810822251253,0,0,707617.757161316,707618.804233368,7,0,70,4,16
18,537,454.13533016108,0,0,707620.439554981,707621.486629344,7,0,85,16,4
18,538,416.182652930729,0,0,707623.133715794,707624.180785922,7,0,67,16,4
18,539,354.5594047755,0,0,707625.616103762,707626.663182359,7,0,76,16,16
18,540,446.921903872862,1,0,707628.039666774,707629.086810815,7,1,86,0,8
18,541,421.684536035173,0,0,707630.627993712,707631.675028424,7,0,66,0,16
18,542,461.164359468967,0,0,707633.098581427,707634.1456504,7,0,68,16,0
18,543,426.663255318999,1,0,707635.628034518,707636.675099257,7,1,96,0,16
18,544,411.46570793353,0,0,707638.169244748,707639.216305252,7,0,66,16,0
18,545,656.589388847351,1,0,707640.781044001,707641.828119518,7,1,100,4,16
18,546,521.348232869059,1,0,707643.522279946,707644.56933121,7,1,97,4,8
18,547,675.453318399377,1,0,707646.169367936,707647.216439219,7,1,72,16,8
18,548,744.112910004333,1,0,707648.969409204,707650.016490496,7,1,96,8,4
18,549,585.021020960994,1,0,707651.910628518,707652.957702111,7,1,100,0,0
18,550,465.208774898201,1,0,707654.616552628,707655.663624296,7,1,84,0,16
18,551,497.905944939703,1,0,707657.25189272,707658.298962463,7,1,68,16,16
18,552,468.842820380814,1,0,707659.957800276,707661.004877334,7,1,81,0,16
18,553,640.551468473859,1,0,707662.604909439,707663.651979567,7,1,63,4,0
18,554,428.95224201493,1,0,707665.369648112,707666.416759815,7,1,99,0,8
18,555,445.445187971927,1,0,707667.899113522,707668.94618596,7,1,84,4,8
18,556,436.270378064364,0,0,707670.4873831,707671.534455538,7,0,67,16,0
18,557,649.241610546596,1,0,707673.099186973,707674.14626634,7,1,95,8,0
18,558,626.072261016816,0,0,707675.934526217,707676.98159596,7,0,70,16,8
18,559,493.716013734229,1,0,707678.628698194,707679.675772556,7,1,96,8,0
18,560,559.377132798545,1,0,707681.216961998,707682.26403405,7,1,64,16,4
18,561,1047.02176316641,0,0,707711.570368299,707712.617444586,8,0,73,4,0
18,562,721.332372399047,0,0,707714.699832709,707715.746906301,8,0,86,4,16
18,563,727.559524937533,0,0,707717.605755587,707718.652826485,8,0,68,0,8
18,564,538.529876619577,1,0,707720.511688089,707721.558753597,8,1,70,8,16
18,565,700.652190018445,1,0,707723.264668083,707724.311733977,8,1,61,8,16
18,566,723.451590631157,1,0,707726.21765339,707727.264724288,8,1,88,8,8
18,567,792.349089053459,1,0,707729.017702742,707730.06477441,8,1,100,4,4
18,568,834.793893154711,0,0,707731.935382759,707732.982479449,8,0,99,0,16
18,569,668.642177945003,0,0,707734.829548499,707735.876626711,8,0,86,16,0
18,570,708.679811796173,1,0,707737.629596311,707738.676676063,8,1,92,0,4
18,571,551.678653922863,1,0,707740.394339218,707741.441440142,8,1,73,0,0
18,572,494.674185174517,1,0,707743.100313758,707744.147346544,8,1,79,4,4
18,573,675.044103292748,0,0,707745.770899855,707746.817971908,8,0,75,0,8
18,574,796.438929974101,0,0,707748.535642377,707749.582721359,8,0,68,8,8
18,575,633.664490305819,1,0,707751.406283832,707752.453372438,8,1,80,4,16
18,576,817.599545582198,1,0,707754.20633126,707755.253389454,8,1,78,4,16
18,577,898.661472136155,1,0,707757.159307712,707758.206378995,8,1,69,16,4
18,578,751.864513731562,0,0,707760.218209661,707761.265253611,8,0,78,16,8
18,579,570.260021020658,1,0,707763.088808385,707764.135875818,8,1,65,0,0
18,580,745.958419982344,1,0,707765.783008849,707766.830038941,8,1,62,16,16
18,581,875.035557197407,1,0,707768.641836577,707769.688902085,8,1,91,8,0
18,582,881.246926146559,0,0,707771.606585951,707772.653659158,8,0,89,0,0
18,583,536.958844983019,1,0,707774.73605344,707775.783121643,8,1,73,0,0
18,584,629.633163567632,1,0,707777.383154904,707778.430215408,8,1,67,0,4
18,585,790.149798616767,0,0,707780.206719687,707781.253791354,8,0,97,4,8
18,586,536.631626775488,1,0,707783.230290167,707784.277367994,8,1,76,16,4
18,587,531.610176665708,1,0,707785.983279786,707787.030349144,8,1,73,4,8
18,588,521.265850984491,1,0,707788.665672296,707789.712743964,8,1,94,8,4
18,589,472.451458219439,1,0,707791.383355469,707792.430435221,8,1,89,16,8
18,590,519.906548550352,0,0,707794.065750675,707795.112826192,8,0,68,16,8
18,591,539.992733858526,1,0,707796.818739138,707797.865810806,8,1,65,16,16
18,592,565.610829624347,0,0,707799.548189458,707800.595263051,8,0,98,8,0
18,593,647.046554717235,0,0,707802.171762787,707803.218835225,8,0,72,4,8
18,594,616.691111237742,1,0,707805.065941231,707806.11300366,8,1,63,0,16
18,595,518.907955964096,1,0,707807.830667199,707808.877751571,8,1,94,0,4
18,596,532.340065459721,1,0,707810.548364616,707811.595434744,8,1,87,16,4
18,597,522.988942801021,1,0,707813.136633424,707814.183715101,8,1,90,4,8
18,598,770.32615756616,0,0,707815.807268797,707816.85433546,8,0,62,0,0
18,599,755.416177213192,0,0,707818.654372109,707819.701440697,8,0,84,4,4
18,600,468.630320974626,1,0,707821.583812728,707822.630929436,8,1,66,0,16
18,601,561.945987166837,0,0,707824.277985474,707825.325055602,8,0,74,0,8
18,602,551.290611736476,1,0,707827.019189467,707828.066263445,8,1,95,4,4
18,603,899.949171580374,1,0,707829.748655186,707830.795769969,8,1,74,0,16
18,604,663.968733861111,1,0,707832.760468528,707833.807537501,8,1,97,16,0
18,605,597.224715398625,1,0,707835.572284642,707836.619350536,8,1,65,16,4
18,606,766.273657907732,0,0,707838.419392958,707839.466444993,8,0,92,16,8
18,607,563.576688058674,0,0,707841.395894466,707842.442966519,8,0,86,4,0
18,608,629.689368070103,0,0,707844.101811262,707845.148885239,8,0,96,16,8
18,609,548.153552692384,0,0,707846.925394523,707847.972466961,8,0,90,8,8
18,610,719.732468482107,1,0,707849.66661276,707850.713685582,8,1,62,16,4
18,611,610.065137618221,0,0,707852.537246901,707853.584311639,8,0,89,8,4
18,612,552.13290953543,0,0,707855.337295483,707856.384349057,8,0,95,8,0
18,613,804.812633083202,0,0,707858.066736179,707859.113806307,8,0,97,8,16
18,614,1093.78430608194,0,0,707860.972674455,707862.019743043,8,0,75,4,0
18,615,706.44164015539,0,0,707864.255065965,707865.302141482,8,0,97,4,0
18,616,582.645417656749,0,0,707867.172756375,707868.219831508,8,0,86,4,16
18,617,1088.86410109699,0,0,707869.83163538,707870.878701273,8,0,64,0,4
18,618,938.169012893923,1,0,707873.102265132,707874.149337955,8,1,68,16,16
18,619,1068.85567808058,1,0,707876.102322492,707877.149401089,8,1,78,16,16
18,620,921.69339011889,0,0,707879.337652343,707880.384719006,8,0,61,0,4
18,621,1061.19992991444,0,0,707882.420054324,707883.467120217,8,0,80,8,16
18,622,813.059683539905,0,0,707885.667160176,707886.714231459,8,0,97,8,0
18,623,695.386288687587,1,0,707888.678980063,707889.726039797,8,1,96,16,16
18,624,877.735683694482,0,0,707891.514311993,707892.561401754,8,0,79,0,8
18,625,958.692515618168,0,0,707894.502593351,707895.549665019,8,0,93,4,0
18,626,1060.21750578657,0,0,707897.584989558,707898.63206546,8,0,75,8,0
18,627,793.552866671234,0,0,707900.70268528,707901.749756178,8,0,78,4,8
18,628,825.381176429801,0,0,707903.655677516,707904.702745335,8,0,100,8,4
18,629,858.534911996685,0,0,707906.608661668,707907.655736031,8,0,97,0,16
18,630,865.510431467555,0,0,707909.667523966,707910.714601023,8,0,96,16,0
18,631,634.324315935373,1,0,707912.608755214,707913.655828037,8,1,88,0,8
18,632,907.979873125441,0,0,707915.397020481,707916.444098693,8,0,96,8,4
18,633,702.664773678407,1,0,707918.479428621,707919.526498364,8,1,97,16,0
18,634,456.23222051654,1,0,707921.361828754,707922.408897727,8,1,97,4,16
18,635,545.654761488549,1,0,707924.044221265,707925.091293318,8,1,92,4,4
18,636,714.58398073446,1,0,707926.738381693,707927.785452206,8,1,70,16,0
18,637,746.948158368468,0,0,707929.609029692,707930.656159874,8,0,75,8,8
18,638,1129.46531991474,1,0,707932.538473391,707933.585544289,8,1,86,8,4
18,639,818.518065963872,1,0,707935.891463548,707936.938535601,8,1,88,8,16
18,640,842.980889370665,0,0,707938.773859062,707939.820939199,8,0,85,8,8
18,641,623.704356956296,0,0,707971.092050154,707972.139074856,9,0,86,4,8
18,642,657.046724110842,0,0,707973.809694831,707974.856763804,9,0,62,0,4
18,643,646.473730681464,0,0,707976.527382238,707977.574455446,9,0,61,0,4
18,644,717.399596120231,1,0,707979.433306271,707980.480380249,9,1,92,4,0
18,645,678.163069067523,1,0,707982.280413432,707983.327483945,9,1,77,0,4
18,646,759.067161008716,0,0,707985.080455855,707986.127523673,9,0,69,0,16
18,647,568.024159176275,0,0,707988.068736059,707989.115818505,9,0,82,4,0
18,648,668.346141814254,0,0,707990.751149357,707991.798197542,9,0,90,4,16
18,649,442.54642073065,1,0,707993.609997873,707994.657069541,9,1,85,16,4
18,650,510.226282873191,0,0,707996.245347203,707997.292422336,9,0,76,0,0
18,651,627.294131787494,1,0,707998.857136832,707999.90420619,9,1,90,4,16
18,652,726.656403043307,0,0,708001.716024229,708002.763077804,9,0,98,8,0
18,653,395.570223801769,1,0,708004.57486851,708005.621944797,9,1,68,8,16
18,654,476.570556405932,1,0,708007.127884768,708008.174922944,9,1,98,0,4
18,655,513.961958466098,0,0,708009.798483954,708010.845551772,9,0,78,8,8
18,656,737.51734837424,0,0,708012.480872615,708013.527943128,9,0,72,16,8
18,657,525.241358089261,1,0,708015.31621109,708016.363282373,9,1,71,8,8
18,658,590.634928317741,1,0,708018.080965545,708019.128034518,9,1,70,16,16
18,659,466.131529770792,1,0,708020.810409706,708021.857481758,9,1,88,8,16
18,660,618.116242229007,0,0,708023.363394012,708024.410464909,9,0,61,0,8
18,661,429.167051101103,1,1,708026.175199347,708027.222275634,9,0,100,8,0
18,662,477.024812134914,0,0,708028.775244157,708029.822313514,9,0,96,16,16
18,663,614.995351759717,1,0,708031.422339461,708032.469417673,9,1,84,8,16
18,664,500.849752686918,1,0,708034.222382269,708035.269450472,9,1,73,16,0
18,665,1582.02293340582,1,0,708036.928307534,708037.975382281,9,1,93,16,0
18,666,466.698964475654,1,0,708040.610720832,708041.657785571,9,1,95,16,4
18,667,589.796095038764,0,0,708043.175495768,708044.222607087,9,0,97,16,4
18,668,1098.51703431923,1,0,708045.857853247,708046.904922605,9,1,65,8,8
18,669,1457.85984187387,0,0,708049.128493779,708050.175561982,9,0,88,8,16
18,670,2441.049301764,0,0,708052.846196584,708053.893270562,9,0,61,8,16
18,671,2500,-1,-1,708057.469798401,708058.516860444,9,0,76,0,16
18,672,447.280303924344,0,0,708062.563988702,708063.611061139,9,0,66,4,16
18,673,733.845961629413,1,0,708065.10521202,708066.152290617,9,1,77,16,16
18,674,655.392540618777,1,0,708067.987604069,708069.034678431,9,1,94,8,4
18,675,642.603703192435,0,0,708070.787648416,708071.834720854,9,0,82,4,8
18,676,649.471818236634,1,0,708073.587689299,708074.634764047,9,1,88,0,0
18,677,490.157420863397,1,0,708076.48185042,708077.528926322,9,1,92,16,8
18,678,2895.59101173654,1,0,708079.19956131,708080.246623739,9,1,72,8,4
18,679,768.564569414593,1,0,708084.305505284,708085.352575412,9,1,91,4,8
18,680,2500,-1,-1,708087.17613673,708088.223216097,9,0,90,4,4
18,681,1914.70054746605,1,0,708092.423296478,708093.470344663,9,1,90,16,8
18,682,677.813138230704,1,0,708096.529223128,708097.576289792,9,1,92,4,0
18,683,961.510825552978,1,0,708099.270436361,708100.317513803,9,1,74,16,4
18,684,428.837908199057,1,0,708102.482249626,708103.529314749,9,1,75,4,16
18,685,500.084447325207,0,0,708105.011704642,708106.058772846,9,0,69,16,0
18,686,611.512596486136,0,0,708107.682333086,708108.729406293,9,0,88,8,0
18,687,1268.25467462186,1,0,708110.517666941,708111.564743613,9,1,83,0,16
18,688,1659.92662811186,0,0,708113.953059079,708115.00009225,9,0,80,8,8
18,689,896.650043432601,1,0,708117.741310487,708118.78837869,9,1,95,8,0
18,690,1906.1120353872,0,0,708120.823712468,708121.870780671,9,0,96,16,16
18,691,628.644580137916,1,0,708124.859119389,708125.906140241,9,1,93,8,8
18,692,420.482683228329,0,0,708127.694451704,708128.741476406,9,0,85,4,8
18,693,2175.66735751461,0,0,708130.212091453,708131.259159656,9,0,100,8,0
18,694,1307.97163490206,0,0,708134.482739683,708135.52981828,9,0,78,4,4
18,695,1403.34261558019,0,0,708137.906323868,708138.953400156,9,0,92,4,8
18,696,1227.29159099981,0,0,708141.506378302,708142.55345151,9,0,93,0,8
18,697,972.905328962952,0,0,708144.94172078,708145.988861356,9,0,86,0,0
18,698,1471.68807778507,0,0,708148.082988523,708149.130017075,9,0,63,0,0
18,699,818.817951716483,0,0,708151.788891845,708152.835957738,9,0,67,0,0
18,700,925.172680756077,0,0,708154.70658264,708155.753652768,9,0,68,0,4
18,701,444.596345769241,1,0,708157.694867078,708158.741941056,9,1,62,0,16
18,702,809.04991470743,0,0,708160.365490132,708161.41256103,9,0,96,4,0
18,703,385.428003268316,1,0,708163.389066002,708164.436133435,9,1,99,16,4
18,704,425.537240225822,1,0,708166.00086872,708167.047944622,9,1,75,16,8
18,705,1048.62474673428,0,0,708168.600911604,708169.647984427,9,0,63,8,4
18,706,2799.05282508116,1,0,708171.777434208,708172.824507415,9,1,87,0,8
18,707,930.060163955204,1,1,708176.777503501,708177.824575939,9,0,80,0,8
18,708,1118.22172184475,0,0,708179.801082066,708180.848157583,9,0,72,16,0
18,709,1353.91728742979,1,0,708182.977642396,708184.024682496,9,1,62,0,16
18,710,1026.68227243703,1,0,708186.424722763,708187.471782112,9,1,70,8,4
18,711,1173.36797679309,0,0,708189.707119663,708190.75419287,9,0,80,16,0
18,712,1236.99803417549,1,0,708192.942459523,708193.989575461,9,1,78,4,4
18,713,633.114763884805,1,0,708196.2484065,708197.295465464,9,1,71,4,4
18,714,1521.43253968097,0,0,708198.977847966,708200.024924253,9,0,75,4,4
18,715,1147.29909005109,1,0,708202.577908174,708203.624979841,9,1,67,4,16
18,716,2793.75189216807,0,0,708205.848539851,708206.895612289,9,0,90,4,0
18,717,2500,-1,-1,708210.742730999,708211.789805361,9,1,74,8,4
18,718,723.374213208444,1,0,708215.836927459,708216.883999896,9,1,80,16,16
18,719,986.762822023593,1,0,708218.66051072,708219.707578538,9,1,97,0,8
18,720,1572.63985881582,1,0,708221.813522127,708222.860572622,9,1,72,16,8
