sub_id,Trial,RT,Resp,Error,Fix_onset,Disp_onset,block,tid,tloc,fish_setsize,bird_setsize
8,1,570.306832829374,0,0,96274.9473229072,96275.9944003493,1,0,67,16,0
8,2,501.788522466086,1,0,96277.6650222485,96278.7120943011,1,1,75,8,16
8,3,447.091133741196,0,0,96280.2415250649,96281.2886032769,1,0,77,16,0
8,4,586.61268700962,1,1,96282.8768751651,96283.9239876388,1,0,80,16,16
8,5,587.663249534671,0,0,96285.6180795432,96286.6651535207,1,0,75,0,0
8,6,655.21915377758,0,0,96288.3004701292,96289.3475487262,1,0,84,16,8
8,7,653.449481425923,1,0,96291.1711081197,96292.2181794025,1,1,71,0,16
8,8,654.355298058363,0,0,96294.0182056569,96295.0652815592,1,0,94,4,8
8,9,581.576223383308,1,0,96296.8770726508,96297.9241458584,1,1,66,8,8
8,10,649.184867477743,1,0,96299.5594709361,96300.6065418338,1,1,76,4,0
8,11,604.332123315544,0,0,96302.4183313856,96303.4654003586,1,0,97,4,8
8,12,558.397249726113,1,0,96305.1242558806,96306.1713225438,1,1,76,4,8
8,13,694.84795758035,0,0,96307.8066495463,96308.853721214,1,0,100,16,8
8,14,786.714240108267,1,0,96310.7478661662,96311.7949424535,1,1,81,4,16
8,15,572.568872128613,1,0,96313.7479077422,96314.7949847993,1,1,71,4,0
8,16,562.828167443513,0,0,96316.4656043887,96317.5126791361,1,0,75,8,16
8,17,532.91966530378,1,0,96319.2774066443,96320.3244771571,1,1,86,4,16
8,18,649.235682518338,1,0,96321.8892155212,96322.9362871889,1,1,94,16,16
8,19,642.387970583513,0,0,96324.6539642023,96325.7010304805,1,0,94,8,16
8,20,498.27112062485,1,0,96327.5010578898,96328.5481337921,1,1,86,0,4
8,21,468.658654615865,0,0,96330.1128659968,96331.159933045,1,0,68,8,4
8,22,480.578631701064,1,1,96332.8187866422,96333.8658629295,1,0,89,16,8
8,23,806.045129196718,1,0,96335.5482419666,96336.5953105545,1,1,70,16,8
8,24,727.419629896758,0,0,96338.5718197613,96339.6188929689,1,0,97,0,16
8,25,569.375993625727,0,0,96341.4659762624,96342.5130456203,1,0,86,8,4
8,26,545.808977840352,0,0,96344.195490486,96345.242507104,1,0,83,0,4
8,27,536.664194994955,0,0,96346.8425345904,96347.8896000987,1,0,86,8,8
8,28,708.497570929467,1,0,96349.477860053,96350.5249340305,1,1,83,8,4
8,29,488.575841489364,0,0,96352.3367212725,96353.3838017943,1,0,82,0,16
8,30,562.044768870692,0,0,96355.0661800615,96356.1132528841,1,0,72,4,8
8,31,800.921279078466,0,0,96357.8662194047,96358.9132933821,1,0,90,8,16
8,32,808.634001616156,1,0,96360.8544984532,96361.9015724306,1,1,76,4,0
8,33,618.653111159801,1,0,96363.7604344201,96364.8075003133,1,1,97,8,4
8,34,588.271490181796,0,0,96366.595766735,96367.6428380178,1,0,96,16,4
8,35,995.099415056757,1,0,96369.2899213883,96370.3369949808,1,1,69,4,8
8,36,539.646114077186,1,0,96372.3723322233,96373.4194031211,1,1,66,16,0
8,37,634.592481103027,1,0,96375.1606048044,96376.2076668481,1,1,88,4,16
8,38,751.024756973493,0,0,96377.8900524295,96378.9371221724,1,0,97,0,8
8,39,899.778479564702,1,0,96380.8783395622,96381.9254085352,1,1,71,4,16
8,40,619.727156372392,1,0,96384.031325177,96385.0783960747,1,1,87,0,8
8,41,584.267880782136,1,0,96386.8548853404,96387.9019677871,1,1,75,16,0
8,42,717.845228966326,1,0,96389.6432283697,96390.6902472975,1,1,97,4,0
8,43,538.910835806746,1,0,96392.4432203625,96393.4902943399,1,1,94,0,4
8,44,583.662334844121,1,0,96395.1373734759,96396.1844436037,1,1,71,0,16
8,45,538.127437248477,1,0,96397.9138885341,96398.9609513476,1,1,75,16,16
8,46,985.601236694492,0,0,96400.5962910539,96401.6433469381,1,0,77,16,16
8,47,515.203693677904,1,0,96403.7257346754,96404.7728140423,1,1,95,0,0
8,48,590.922341565602,0,0,96406.4081310358,96407.4552458193,1,0,71,0,0
8,49,504.791229526745,0,0,96409.2552389669,96410.3023006256,1,0,62,4,16
8,50,1073.41501957853,1,0,96411.8435093153,96412.8905748236,1,1,90,8,0
8,51,614.15751973982,0,0,96415.1376714368,96416.1847461842,1,0,86,4,4
8,52,677.523492762703,1,0,96418.008303268,96419.0553795552,1,1,83,8,0
8,53,751.566014179843,0,0,96420.8083456908,96421.8554173585,1,0,98,0,8
8,54,685.454873979324,1,0,96423.7025048867,96424.7495811739,1,1,66,4,4
8,55,724.965109358891,0,0,96426.5849034799,96427.6320059445,1,0,98,16,0
8,56,897.944518481381,0,0,96429.3967126648,96430.4437866422,1,0,79,0,4
8,57,765.905480206129,1,0,96432.3849967178,96433.4320618411,1,1,66,16,4
8,58,773.39761928306,0,0,96435.3262164174,96436.3732846204,1,0,62,16,8
8,59,728.52524202608,0,0,96438.2203736884,96439.267446126,1,0,62,16,16
8,60,641.657696818584,0,0,96441.0321763289,96442.0792472267,1,0,100,0,8
8,61,621.148437712691,0,0,96443.8675190379,96444.9145887808,1,0,65,16,4
8,62,670.032893540338,1,0,96446.6675564562,96447.7146296638,1,1,81,4,4
8,63,700.434532569489,0,0,96449.4793683359,96450.5264369239,1,0,76,8,0
8,64,634.384986347868,0,0,96452.2323444805,96453.2794219226,1,0,79,8,16
8,65,753.22250755562,1,0,96454.9382751349,96455.9853437229,1,1,100,4,4
8,66,455.86327293131,0,0,96457.7618510819,96458.8089404578,1,0,83,0,8
8,67,602.858102123719,1,0,96460.4678140731,96461.5148453197,1,1,85,16,4
8,68,753.883488083375,0,0,96463.2795759076,96464.3266433407,1,0,98,8,8
8,69,598.829855109216,1,0,96466.1266738297,96467.1737647456,1,1,84,4,4
8,70,617.706873468705,1,0,96468.8208427266,96469.8679120845,1,1,78,4,0
8,71,536.229187433491,1,0,96471.6561684973,96472.7032413198,1,1,87,8,8
8,72,562.228395952843,1,0,96474.350328155,96475.3974063671,1,1,89,0,0
8,73,627.458742077579,1,0,96477.0091894515,96478.0562611192,1,1,94,8,8
8,74,583.812855169526,1,0,96479.8327769473,96480.8798370661,1,1,70,8,4
8,75,628.391121106688,0,0,96482.515160219,96483.5622365063,1,0,74,0,0
8,76,665.474168301444,0,0,96485.2328491663,96486.2799185242,1,0,76,16,4
8,77,599.458113822038,0,0,96487.9740643233,96489.0211386858,1,0,80,0,16
8,78,534.002179701929,1,0,96490.7152825601,96491.7623530729,1,1,93,0,4
8,79,673.206908890279,1,0,96493.4682725634,96494.5153426912,1,1,63,8,0
8,80,756.729515414918,0,0,96496.350707343,96497.3977366649,1,0,73,8,0
8,81,700.932673949865,0,0,96532.2453646803,96533.2924017013,2,0,83,16,16
8,82,832.607537755393,0,0,96535.0806669682,96536.1277351712,2,0,79,8,8
8,83,583.917949916213,0,0,96538.1513464577,96539.1983734697,2,0,84,16,4
8,84,715.764891923754,1,0,96540.9513453798,96541.9984085783,2,1,71,0,0
8,85,841.066702487296,0,0,96543.9160870546,96544.9631644967,2,0,100,4,4
8,86,529.295628875843,0,0,96546.8337809294,96547.8808556768,2,0,88,0,0
8,87,662.82100713579,0,0,96549.5632701304,96550.6103714402,2,0,90,8,0
8,88,619.825706759002,0,0,96552.3632825262,96553.4103491894,2,0,62,8,4
8,89,646.90127025824,0,0,96555.1280277427,96556.1750994104,2,0,100,0,8
8,90,571.337377274176,1,0,96557.8927718042,96558.9398546358,2,1,92,0,8
8,91,672.999799091485,1,0,96560.6339954305,96561.681058629,2,1,98,4,8
8,92,651.332957902923,1,0,96563.5046268766,96564.5516977744,2,1,66,4,8
8,93,562.827782472596,1,0,96566.234071422,96567.2811554085,2,1,78,0,4
8,94,629.087903143954,1,0,96568.9517615242,96569.9988339618,2,1,81,16,0
8,95,554.506434316863,0,0,96571.7753370862,96572.8224095238,2,0,63,0,8
8,96,619.156642031157,1,0,96574.4577245924,96575.5048028045,2,1,73,16,8
8,97,448.440042135189,0,0,96577.269536857,96578.3166104495,2,0,64,4,16
8,98,514.579669557861,1,0,96579.834276376,96580.8813495836,2,1,71,0,16
8,99,880.256649106741,0,0,96582.4225544236,96583.4696253214,2,0,91,4,8
8,100,578.175465154345,1,0,96585.3637756631,96586.4108504105,2,1,67,4,0
8,101,518.279928553966,0,0,96588.0696947686,96589.116769901,2,0,94,8,16
8,102,646.870858239708,0,0,96590.6579716613,96591.7050487185,2,0,80,4,4
8,103,586.563796779956,1,0,96593.4933159101,96594.540386038,2,1,69,8,0
8,104,650.058732237085,1,0,96596.2698186495,96597.3168976315,2,1,79,8,8
8,105,571.688463023747,1,0,96599.0698595326,96600.117108283,2,1,83,8,16
8,106,507.383951582597,1,0,96601.8463749757,96602.8934474133,2,1,97,0,8
8,107,518.114779682946,1,0,96604.4817158369,96605.5287836549,2,1,95,0,16
8,108,610.568514894112,1,0,96607.0582174983,96608.1052910908,2,1,86,4,8
8,109,561.031932666083,1,0,96609.7876766723,96610.834747955,2,1,72,4,4
8,110,696.59992166271,0,0,96612.5641917305,96613.611265708,2,0,73,0,4
8,111,812.684191478183,0,0,96615.481888685,96616.5289545782,2,0,90,0,16
8,112,537.443743945914,1,0,96618.3642726496,96619.4113508617,2,1,83,4,0
8,113,605.427341462928,0,0,96620.9760757521,96622.0231547341,2,0,74,16,8
8,114,737.116063915892,0,0,96623.8114173062,96624.8584935934,2,0,88,8,8
8,115,536.486342345597,1,0,96626.7291115659,96627.7761859283,2,1,85,4,16
8,116,634.530117196846,0,0,96629.3291475214,96630.3762245786,2,0,64,8,8
8,117,630.395235595643,0,0,96632.0821352149,96633.1292072676,2,0,65,16,0
8,118,668.793699442176,0,0,96634.8586356446,96635.9057481183,2,0,70,8,0
8,119,857.450319104828,1,0,96637.5880928937,96638.635168411,2,1,63,4,0
8,120,591.97521385795,1,0,96640.6704967994,96641.7175638475,2,1,80,0,4
8,121,754.955223528668,1,0,96643.3764135951,96644.4234956568,2,1,90,4,0
8,122,740.47409130435,0,0,96646.3058803914,96647.3529451297,2,0,67,16,8
8,123,523.071941061062,0,0,96649.2823946026,96650.3294604959,2,0,66,4,16
8,124,639.41028607951,1,0,96652.0589085059,96653.1059728593,2,1,89,4,16
8,125,601.183515493176,1,0,96654.8001194284,96655.8471980254,2,1,63,16,8
8,126,817.585533310194,1,0,96657.5648742689,96658.6119474765,2,1,85,0,16
8,127,551.743173884461,1,0,96660.5296240279,96661.5766960806,2,1,72,16,8
8,128,657.663280333509,0,0,96663.1767181774,96664.2237940797,2,0,92,4,0
8,129,599.537416084786,0,0,96666.0708843026,96667.117969059,2,0,91,16,0
8,130,453.227820049506,0,0,96668.7532748885,96669.8003465562,2,0,89,8,16
8,131,472.355063990108,0,0,96671.3768424433,96672.4239148809,2,0,97,8,16
8,132,543.202012166148,1,0,96674.0592418834,96675.1063166308,2,1,97,8,0
8,133,378.721803848748,0,1,96676.8475163893,96677.8945899819,2,1,71,16,16
8,134,597.48941588623,1,0,96679.3887281587,96680.4358082956,2,1,84,4,16
8,135,636.524992572959,1,0,96682.2358333951,96683.2829046779,2,1,78,16,4
8,136,523.8391712046,0,1,96684.9535708477,96686.0005928552,2,1,71,16,16
8,137,724.241379968589,0,0,96687.5888566592,96688.6359364111,2,0,96,0,0
8,138,532.983569079079,0,0,96690.3653732572,96691.4124460798,2,0,77,0,4
8,139,614.167913721758,1,0,96693.1301177038,96694.1771897564,2,1,66,8,0
8,140,567.901587462984,1,0,96695.9301578169,96696.9772314094,2,1,95,0,4
8,141,839.77130385756,0,0,96698.5654936735,96699.612566881,2,0,86,0,16
8,142,650.013306643814,0,0,96701.5302522866,96702.5773455122,2,0,93,0,0
8,143,1000.2205704368,0,0,96704.3538209193,96705.4008871975,2,0,65,4,4
8,144,715.843424259219,1,0,96707.4833226701,96708.5303585363,2,1,80,16,4
8,145,861.2114021671,1,0,96710.4127286422,96711.4598026197,2,1,91,0,8
8,146,791.738384956261,0,0,96713.4363179859,96714.4833819543,2,0,66,8,4
8,147,703.600078719319,0,0,96716.3304725621,96717.3775396103,2,0,99,8,4
8,148,740.741640198394,0,0,96719.2011067031,96720.2482307257,2,0,97,8,8
8,149,669.73185291863,1,0,96722.0364424827,96723.0835095309,2,1,74,8,16
8,150,727.863876556512,1,0,96724.8482512826,96725.8953187157,2,1,81,8,4
8,151,777.811983614811,1,0,96727.7541918691,96728.8013035729,2,1,97,16,4
8,152,728.612243547104,1,0,96730.6013005702,96731.6483472153,2,1,92,16,16
8,153,692.269094186486,0,0,96733.4836756806,96734.530750813,2,0,87,16,4
8,154,584.722521423828,0,0,96736.4131332378,96737.4602102949,2,0,77,16,0
8,155,891.59148329054,0,0,96739.1543510896,96740.2014258369,2,0,64,4,8
8,156,665.151954730391,0,0,96742.1426347576,96743.1897071952,2,0,82,16,0
8,157,680.729075014824,1,0,96744.9662130143,96746.0132758279,2,1,84,4,4
8,158,619.625141320284,0,0,96747.8721878624,96748.9192033256,2,0,80,0,0
8,159,756.144372498966,1,0,96750.6957037552,96751.7427765778,2,1,77,16,16
8,160,798.032905862783,0,0,96753.6486879071,96754.695767659,2,0,77,8,4
8,161,839.644651219714,1,0,96789.6139438917,96790.6610163293,3,1,86,16,4
8,162,678.972491397872,0,0,96792.6845814203,96793.7316550128,3,0,83,0,4
8,163,628.810345224338,0,0,96795.5316801123,96796.5787794973,3,0,71,16,0
8,164,523.337180173257,1,0,96798.3081951705,96799.3552629886,3,1,82,8,8
8,165,551.215005427366,0,0,96800.9552912448,96802.0023667621,3,0,75,0,8
8,166,746.073370042723,1,0,96803.7553436767,96804.80240957,3,1,67,8,16
8,167,752.979211305501,0,0,96806.60243005,96807.6495140365,3,0,100,8,16
8,168,521.451249165693,1,0,96809.5319287981,96810.5789635094,3,1,84,8,0
8,169,624.444486151333,0,0,96812.120172969,96813.1672427118,3,0,87,4,16
8,170,808.823018189287,0,0,96814.8496783384,96815.8966976512,3,0,78,8,0
8,171,794.177506992128,1,0,96817.8261348053,96818.8732130174,3,1,84,8,4
8,172,634.09126001352,0,0,96820.7202997756,96821.7673679786,3,0,92,16,0
8,173,716.750780746224,1,0,96823.4615141627,96824.5086027688,3,1,70,16,8
8,174,549.700563162332,0,0,96826.2616000863,96827.3086321029,3,0,88,4,4
8,175,450.637407760951,0,0,96829.0616055528,96830.1086756806,3,0,61,4,8
8,176,471.361475938465,0,0,96831.6498728215,96832.6969533433,3,0,68,16,16
8,177,688.353641176946,1,0,96834.2028521228,96835.249938804,3,1,91,4,0
8,178,445.437335089082,1,0,96837.0970151682,96838.1440887607,3,1,83,16,8
8,179,491.652461336344,1,0,96839.6147041925,96840.6617797098,3,1,69,0,8
8,180,477.598637429764,0,0,96842.261808351,96843.3088700097,3,0,83,0,0
8,181,443.278465696494,0,0,96844.9088994208,96845.9559772479,3,0,74,4,8
8,182,711.357456922997,1,0,96847.4148193733,96848.4618895011,3,1,70,16,4
8,183,531.669692252763,1,0,96850.2736932965,96851.3207588048,3,1,87,4,16
8,184,473.963822048972,1,0,96853.0502064299,96854.0972723232,3,1,95,0,16
8,185,532.244441186776,0,0,96855.6149467189,96856.6620249309,3,0,61,0,16
8,186,543.203167064348,0,0,96858.2149880638,96859.2620562668,3,0,92,8,8
8,187,584.504247730365,1,0,96860.9797352051,96862.0268030231,3,1,72,0,4
8,188,521.010852127802,0,0,96863.6621296407,96864.7092032332,3,0,96,0,0
8,189,429.091444791993,0,0,96866.4151065553,96867.4621870771,3,0,81,4,8
8,190,744.342963851523,0,0,96869.0269204367,96870.073995569,3,0,85,8,4
8,191,729.114619534812,0,0,96871.932841775,96872.9799142126,3,0,90,8,0
8,192,565.353136102203,0,0,96874.7328841979,96875.7799624099,3,0,80,0,8
8,193,505.457214545459,0,0,96877.3917531936,96878.4388206267,3,0,73,8,4
8,194,596.543178195134,1,0,96880.1564984101,96881.2035727725,3,1,82,0,0
8,195,595.780952557107,0,0,96882.9683734235,96884.0153811875,3,0,75,16,4
8,196,481.220364090404,0,0,96885.6389360384,96886.6860100159,3,0,70,0,8
8,197,731.708111503394,1,0,96888.3213289342,96889.3684032966,3,1,97,16,8
8,198,438.983824686147,0,0,96891.1919626902,96892.2390278135,3,0,69,8,0
8,199,431.590620966745,0,0,96893.7684655066,96894.8155441036,3,0,74,16,0
8,200,748.150627376162,1,0,96896.4038079075,96897.4508791903,3,1,98,0,16
8,201,562.705364412977,0,0,96899.380319809,96900.4273907068,3,0,71,0,16
8,202,546.262078627478,0,0,96902.1097739785,96903.1568464161,3,0,86,8,8
8,203,659.395611321088,1,0,96904.7215828554,96905.7686518284,3,1,94,0,8
8,204,640.878147882177,1,0,96907.4981006084,96908.5451611121,3,1,72,16,16
8,205,632.215338031529,0,0,96910.2157830113,96911.2628469797,3,0,85,4,4
8,206,555.715216381941,0,0,96913.0511230255,96914.0981873789,3,0,97,4,8
8,207,709.053841666901,0,0,96915.6746871156,96916.7217587833,3,0,75,16,16
8,208,720.855635285261,1,0,96918.6041639208,96919.6512159554,3,1,100,8,16
8,209,474.203268677229,0,0,96921.4865351817,96922.5336160885,3,0,76,16,16
8,210,709.837625196087,1,0,96924.1101104357,96925.1571824883,3,1,82,4,0
8,211,671.494595939294,0,0,96927.0042692465,96928.0513443789,3,0,66,0,4
8,212,1023.51464786625,0,0,96929.8043139792,96930.8513887266,3,0,69,4,0
8,213,725.533698889194,1,0,96933.0161272447,96934.0631966026,3,1,75,4,4
8,214,580.609197728336,1,0,96935.8632320961,96936.9103041488,3,1,61,0,0
8,215,480.645615156391,1,0,96938.6280358269,96939.6750493652,3,1,62,8,16
8,216,535.240218916442,1,0,96941.3103763677,96942.3574411061,3,1,83,8,8
8,217,727.342637401307,1,0,96943.9104107834,96944.9574824511,3,1,61,16,0
8,218,730.213302333141,1,0,96946.7104562859,96947.7575279536,3,1,77,16,16
8,219,421.969254632131,1,0,96949.6516736758,96950.6987449585,3,1,94,4,0
8,220,544.807305544964,0,0,96952.1458334105,96953.1929531985,3,0,95,8,4
8,221,606.509085933794,1,0,96954.9341075315,96955.9811872834,3,1,78,0,4
8,222,513.730442413362,1,0,96957.7576811687,96958.8048067311,3,1,84,0,16
8,223,740.490644689999,1,0,96960.4400833035,96961.4871491968,3,1,64,8,16
8,224,632.464023758075,1,0,96963.3342428843,96964.3813133971,3,1,62,16,4
8,225,638.476367210387,1,0,96966.0401631447,96967.087229038,3,1,65,4,16
8,226,605.038144436548,1,0,96968.8284372657,96969.8755097033,3,1,93,16,8
8,227,605.78959112172,0,0,96971.5108324712,96972.5579083735,3,0,88,4,16
8,228,475.103310876875,1,1,96974.2285225734,96975.2756038651,3,0,79,4,16
8,229,766.315080254572,1,0,96976.8991483221,96977.9462261492,3,1,89,4,4
8,230,567.594772408484,1,0,96979.9109605097,96980.9580317925,3,1,82,0,4
8,231,593.112007947639,1,0,96982.6404142942,96983.6874932762,3,1,88,0,0
8,232,664.517921584775,1,0,96985.3110508219,96986.3581120956,3,1,71,4,4
8,233,672.281844133977,0,0,96988.2052038584,96989.252275526,3,0,85,8,0
8,234,660.6028535316,0,0,96991.1229011978,96992.1699736354,3,0,75,16,8
8,235,618.457550226594,0,0,96994.0288225361,96995.0758995933,3,0,82,16,4
8,236,616.578548550024,0,0,96996.7818129244,96997.8288788176,3,0,93,16,0
8,237,534.578083519591,0,0,96999.640672604,97000.687751971,3,0,68,8,4
8,238,573.108204509481,1,0,97002.417189587,97003.4642639495,3,1,85,8,8
8,239,699.047127913218,1,0,97005.170172276,97006.217241249,3,1,63,4,8
8,240,647.879074866069,1,0,97008.0055138301,97009.0525816482,3,1,89,4,0
8,241,871.948389671161,1,0,97043.8531172079,97044.9001908004,4,1,97,8,8
8,242,648.024590685964,1,0,97046.959051173,97048.0061147565,4,1,73,8,16
8,243,630.983073249809,1,0,97049.664966044,97050.7120434861,4,1,81,16,0
8,244,713.704187975964,0,0,97052.4532432446,97053.5003526386,4,0,88,16,16
8,245,635.108715752722,1,0,97055.3709421239,97056.4180134067,4,1,93,16,16
8,246,618.633093108656,1,0,97058.1592216344,97059.2063167848,4,1,80,0,4
8,247,703.245528318803,1,0,97061.0298476911,97062.0769208986,4,1,79,8,0
8,248,619.651318760589,0,0,97063.8651919399,97064.912259373,4,0,89,0,0
8,249,529.217866453109,0,0,97066.6887628823,97067.735834935,4,0,79,4,8
8,250,726.370607226272,0,0,97069.394680833,97070.4417540405,4,0,86,4,4
8,251,475.73541921156,1,0,97072.2182525453,97073.2653261378,4,1,96,0,16
8,252,639.759062061785,0,0,97074.9242255456,97075.9712502479,4,0,76,4,4
8,253,490.3343499318,0,0,97077.6536304399,97078.7007032624,4,0,84,0,16
8,254,512.059705404681,1,0,97080.3007353683,97081.3478058811,4,1,92,0,16
8,255,604.550781979924,0,0,97082.9713611171,97084.0184323998,4,0,82,4,16
8,256,559.952113035251,0,0,97085.7949335993,97086.8420249001,4,0,67,4,0
8,257,616.907306481153,0,0,97088.595018753,97089.6420546192,4,0,81,16,16
8,258,525.987646600697,0,0,97091.4067882868,97092.4538564898,4,0,91,16,16
8,259,1239.86700554087,1,0,97094.0538832062,97095.1009695025,4,1,67,4,16
8,260,725.836664321832,1,0,97097.4068741334,97098.4539561951,4,1,76,4,0
8,261,687.739241111558,0,0,97100.3480988375,97101.39517243,4,0,67,0,0
8,262,552.229381457437,1,0,97103.1246104311,97104.1716782491,4,1,72,8,0
8,263,480.039684276562,0,0,97105.8305337712,97106.8776993697,4,0,61,4,8
8,264,653.63464836264,1,0,97108.5011637545,97109.5482408117,4,1,95,8,0
8,265,639.860307186609,1,0,97111.3717890413,97112.4188668684,4,1,93,16,8
8,266,592.837529722601,1,0,97114.1718699604,97115.2189177604,4,1,89,8,16
8,267,626.342350995401,1,0,97117.0071768679,97118.0542416062,4,1,93,4,4
8,268,556.591775864945,1,0,97119.7130967433,97120.7601764952,4,1,76,8,8
8,269,768.681059416849,0,0,97122.4308176425,97123.4778619778,4,0,92,8,16
8,270,582.465486630099,1,0,97125.3131838988,97126.3602521018,4,1,87,4,16
8,271,649.933234468335,0,0,97128.0426346036,97129.0897085811,4,0,65,0,16
8,272,482.921513132169,1,0,97130.8427455498,97131.8897548536,4,1,99,0,0
8,273,577.204204906593,1,0,97133.4544882132,97134.5015506418,4,1,87,8,4
8,274,407.871160045033,0,0,97136.2427711883,97137.2898313071,4,0,76,0,8
8,275,851.728622306837,0,0,97138.7957485648,97139.8428113784,4,0,90,8,0
8,276,542.129506793572,0,0,97141.7604979389,97142.8075615224,4,0,70,8,4
8,277,637.981690466404,0,0,97144.4193553857,97145.4664328279,4,0,80,16,8
8,278,498.178729627398,0,0,97147.2311680353,97148.2782327737,4,0,69,16,4
8,279,526.047700754134,0,0,97149.9723820374,97151.0194513954,4,0,86,8,8
8,280,818.941755991546,1,0,97152.5724256922,97153.6194992847,4,1,80,16,0
8,281,503.925833952962,1,0,97155.5724718877,97156.61959899,4,1,97,8,8
8,282,427.120822045254,1,1,97158.2783913782,97159.3254588113,4,0,96,8,4
8,283,724.657524362556,0,0,97160.7725803701,97161.8196824498,4,0,79,16,4
8,284,723.357506183675,1,0,97163.5961174358,97164.6431914133,4,1,61,16,4
8,285,714.140735391993,1,0,97166.4902827911,97167.537352149,4,1,92,4,4
8,286,831.064993253676,1,0,97169.3373853327,97170.3844666245,4,1,84,16,0
8,287,426.941044584964,1,0,97172.3374376876,97173.3845051207,4,1,85,8,16
8,288,784.60772561084,0,0,97174.937495201,97175.9846034401,4,0,88,4,16
8,289,735.063059197273,1,0,97177.9022203224,97178.9492900653,4,1,83,0,16
8,290,722.683051993954,0,0,97180.8316817292,97181.8787483924,4,0,96,16,16
8,291,767.237835229025,0,0,97183.7140745479,97184.7611489104,4,0,98,4,8
8,292,551.17034977593,0,0,97186.7141195885,97187.7611920262,4,0,90,4,16
8,293,744.929261665675,0,0,97189.4553990343,97190.502419502,4,0,88,16,8
8,294,694.946123010595,0,0,97192.4200925888,97193.4671673362,4,0,96,16,8
8,295,736.602524018963,1,0,97195.2436600666,97196.2907301944,4,1,95,0,0
8,296,723.04299188545,0,0,97198.1260578898,97199.1731287876,4,0,99,16,4
8,297,836.859832910704,1,0,97200.9614587281,97202.0084703417,4,1,77,0,4
8,298,693.266531874542,0,0,97204.0438037346,97205.0908657782,4,0,69,0,8
8,299,1004.48364453041,1,0,97206.9614999191,97208.0085631176,4,1,89,16,4
8,300,607.944225906977,1,0,97210.1850695527,97211.2321427602,4,1,73,16,0
8,301,816.608883586014,1,0,97213.0204030225,97214.0674793098,4,1,97,16,0
8,302,663.2914312504,0,0,97215.9616311913,97217.0086982394,4,0,100,0,8
8,303,803.182548464974,0,0,97218.7499026176,97219.7969796747,4,0,91,8,16
8,304,564.201713423245,0,0,97221.7617217345,97222.8087930172,4,0,81,0,4
8,305,731.178018220817,1,0,97224.502931887,97225.5500116389,4,1,99,16,8
8,306,699.457882845309,1,0,97227.4206253768,97228.4676951197,4,1,88,8,4
8,307,744.060401426395,0,0,97230.3147872674,97231.3618585501,4,0,66,8,8
8,308,586.409811818157,1,0,97233.1736565711,97234.2207282388,4,1,75,4,4
8,309,631.547428187332,0,0,97235.8913416688,97236.9384110267,4,0,77,0,8
8,310,639.029173267772,1,0,97238.7737444965,97239.8208146244,4,1,93,0,4
8,311,550.423137668986,0,0,97241.4914326739,97242.5384985671,4,0,79,4,8
8,312,446.897112662555,0,0,97244.2208841486,97245.2679573561,4,0,66,4,0
8,313,536.131406974164,1,0,97246.7856263623,97247.8327014947,4,1,66,0,0
8,314,592.197337187827,0,0,97249.4797856352,97250.5268573028,4,0,95,8,4
8,315,508.499957693857,0,0,97252.3033511881,97253.3504270904,4,0,96,4,0
8,316,670.089483028278,0,0,97255.0328161365,97256.0798827997,4,0,90,8,0
8,317,642.613558578887,1,0,97257.8211183597,97258.8681615402,4,1,89,0,4
8,318,713.145992427599,1,0,97260.6917243984,97261.7387949112,4,1,90,4,0
8,319,556.09016980452,1,0,97263.4917610468,97264.5388400288,4,1,96,0,8
8,320,642.256313425605,1,0,97266.1623968046,97267.2094619279,4,1,61,4,8
8,321,681.69802549528,1,0,97301.9747306933,97303.0218389324,5,1,74,8,8
8,322,549.548503011465,1,0,97304.8218070576,97305.86888142,5,1,61,4,16
8,323,801.869826536858,0,0,97307.5395010093,97308.5865676725,5,0,67,8,4
8,324,566.101888049161,1,0,97310.5983679263,97311.645439209,5,1,84,0,8
8,325,1002.20851649647,0,0,97313.4101759563,97314.4572507037,5,0,66,0,0
8,326,520.670930302003,0,0,97316.6337636831,97317.6808311162,5,0,95,16,4
8,327,668.755203194451,0,0,97319.386747527,97320.4338107255,5,0,69,8,8
8,328,599.323761925916,1,0,97322.1750189532,97323.2220821517,5,1,63,16,0
8,329,576.175200301805,0,0,97324.8691801508,97325.9162487388,5,0,93,4,4
8,330,581.387976752012,0,0,97327.5751007962,97328.6221728489,5,0,85,4,4
8,331,883.287458418636,0,0,97330.3751412943,97331.4222094973,5,0,80,16,0
8,332,587.896536759217,1,0,97333.4693081123,97334.51638055,5,1,65,8,0
8,333,818.613383031334,1,0,97336.2576315085,97337.3046523612,5,1,64,4,16
8,334,497.727553651202,0,0,97339.2693990405,97340.3164980405,5,0,71,0,0
8,335,543.511906944332,1,0,97342.0106107329,97343.0576839404,5,1,95,0,16
8,336,432.175378926331,0,0,97344.7400625925,97345.7871415745,5,0,75,8,0
8,337,512.366905444651,1,0,97347.3989300484,97348.4459982515,5,1,83,0,0
8,338,529.436525132041,0,0,97350.0107346908,97351.0578028938,5,0,61,8,4
8,339,667.393206065753,1,0,97352.6107760357,97353.6578434688,5,1,65,8,8
8,340,847.257668501697,1,0,97355.5049394661,97356.5520057444,5,1,100,16,8
8,341,594.670720878639,1,0,97358.4226275665,97359.4696984643,5,1,71,8,16
8,342,591.60334012995,0,0,97361.0814938675,97362.1285620705,5,0,66,4,4
8,343,630.558459670283,0,0,97363.8815285911,97364.9286102678,5,0,100,8,16
8,344,579.597516421927,1,0,97366.7404075189,97367.787474567,5,1,71,4,8
8,345,554.631547100144,0,0,97369.5404487869,97370.5875166049,5,0,77,0,16
8,346,801.480629510479,1,0,97372.1875475559,97373.2346180687,5,1,94,16,16
8,347,701.845419913298,1,0,97375.1522946202,97376.1993689826,5,1,61,4,8
8,348,666.478920262307,1,0,97378.0935100852,97379.1405859875,5,1,76,8,0
8,349,670.44249358878,0,0,97380.8465035532,97381.8935702163,5,0,83,8,16
8,350,549.939624834224,0,0,97383.575953488,97384.6230266956,5,0,69,0,8
8,351,651.60127672425,0,0,97386.2465915556,97387.293655524,5,0,94,16,16
8,352,583.540686726337,1,0,97389.0466266641,97390.0936960221,5,1,98,0,4
8,353,503.877328679664,0,0,97391.7173051528,97392.7643244655,5,0,86,4,16
8,354,639.848758306471,1,0,97394.3761633696,97395.4231934613,5,1,81,4,0
8,355,591.619508559234,0,0,97397.211460653,97398.2585269312,5,0,76,16,0
8,356,686.231728177518,1,0,97400.0467952777,97401.0938677153,5,1,86,16,16
8,357,603.043269060436,1,0,97402.8938970494,97403.940970257,5,1,96,4,8
8,358,746.896804703283,0,0,97405.6351229854,97406.6822216005,5,0,81,4,8
8,359,603.763918741606,0,0,97408.4822193677,97409.5292887256,5,0,71,16,4
8,360,988.961958821164,1,0,97411.1999056202,97412.2469761331,5,1,92,4,4
8,361,648.963899046066,1,0,97414.3058353508,97415.3529124079,5,1,90,16,4
8,362,816.817918195738,1,0,97417.0941599018,97418.1411846041,5,1,78,8,8
8,363,545.184183778474,1,0,97419.9765119145,97421.023585892,5,1,73,0,0
8,364,525.88139695581,1,0,97422.7060015005,97423.7530439111,5,1,65,16,4
8,365,511.753660262912,1,0,97425.3060132034,97426.3530729373,5,1,62,8,0
8,366,652.623352027149,1,0,97428.0472256657,97429.0942957935,5,1,86,4,0
8,367,654.494654459995,1,0,97430.8472657788,97431.8943370615,5,1,91,4,0
8,368,480.281055744854,0,0,97433.6943671656,97434.7414434528,5,0,82,4,0
8,369,464.881403124309,0,0,97436.2709196421,97437.317948579,5,0,86,0,0
8,370,558.872678331682,0,0,97438.8709147916,97439.9179860743,5,0,68,16,8
8,371,437.468227566569,0,0,97441.6591962269,97442.7062655848,5,0,69,0,4
8,372,528.569974660059,0,0,97444.2592364169,97445.3063119343,5,0,85,16,8
8,373,526.232482719934,1,0,97446.9063290266,97447.953403389,5,1,74,0,8
8,374,542.51177450351,0,0,97449.576968249,97450.6240356821,5,0,83,8,4
8,375,372.343361130334,0,0,97452.3181749369,97453.3652473745,5,0,64,8,0
8,376,492.087468897807,1,0,97454.8593905559,97455.9064699228,5,1,65,16,4
8,377,453.836445667548,0,0,97457.4476693734,97458.4947860817,5,0,82,4,16
8,378,544.272977669607,1,0,97460.0241860485,97461.0712565613,5,1,65,0,16
8,379,446.758911159122,0,0,97462.8007499969,97463.8477643052,5,0,93,8,4
8,380,770.533113740385,0,0,97465.494854605,97466.5419239629,5,0,90,4,0
8,381,642.819513494032,1,0,97468.4596082137,97469.5067203024,5,1,70,16,8
8,382,453.262466675369,0,0,97471.330237735,97472.3773132524,5,0,85,8,4
8,383,502.804053379805,0,0,97473.8596962161,97474.9068109996,5,0,97,4,16
8,384,656.476056145038,0,0,97476.5891369118,97477.6362131991,5,0,80,8,8
8,385,493.327817894169,0,0,97479.4362390686,97480.4833161257,5,0,71,0,8
8,386,530.142546238494,1,0,97481.989227609,97483.0362942722,5,1,72,16,8
8,387,539.95485395717,1,0,97484.6245615408,97485.6716324386,5,1,94,0,4
8,388,586.84058477229,0,0,97487.2246025008,97488.2716764783,5,0,94,16,0
8,389,547.145952397841,0,0,97490.0011167891,97491.0481796026,5,0,84,16,16
8,390,608.74071319995,1,0,97492.6835112247,97493.7305828924,5,1,68,0,16
8,391,574.303127941675,1,0,97495.4600174287,97496.507093331,5,1,83,16,0
8,392,577.061383854016,1,0,97498.1541743918,97499.2012529888,5,1,97,0,8
8,393,701.679886071361,1,0,97500.9306867553,97501.9777668921,5,1,81,16,16
8,394,572.576186430524,0,0,97503.8248548052,97504.8719295526,5,0,93,8,16
8,395,633.26859526569,1,0,97506.5190152329,97507.5660834359,5,1,89,0,4
8,396,1061.84304854833,1,0,97509.3426019588,97510.3896609227,5,1,82,0,16
8,397,689.468877375475,0,0,97512.5308655318,97513.5779445138,5,0,72,4,4
8,398,536.307334812591,1,0,97515.3779788524,97516.4250408961,5,1,62,0,4
8,399,731.156845286023,0,0,97517.9780163478,97519.0250807012,5,0,88,4,8
8,400,643.40889097366,0,0,97520.8957025233,97521.9427726511,5,0,69,8,16
8,401,481.849777686875,0,0,97546.0843295009,97547.1313953941,6,0,74,0,8
8,402,759.818839025684,1,0,97548.6843669962,97549.7314363541,6,1,79,16,0
8,403,749.438326747622,1,0,97551.6726522041,97552.7197250267,6,1,70,8,4
8,404,593.302949317149,0,0,97554.5197566706,97555.5668225638,6,0,72,16,8
8,405,805.836864514276,0,0,97557.2021830581,97558.2492154596,6,0,88,16,0
8,406,619.18397435511,0,0,97560.0727779328,97561.1198422862,6,0,94,8,8
8,407,560.546110078576,1,0,97562.7904668801,97563.8375377779,6,1,83,4,4
8,408,466.240320543875,1,0,97565.4375664191,97566.4846334672,6,1,74,8,16
8,409,616.781038799672,1,0,97568.1082425979,97569.1552611408,6,1,69,16,8
8,410,814.417292407597,1,0,97570.8376524967,97571.88471762,6,1,79,0,0
8,411,563.745917897904,1,0,97573.8729847347,97574.9200795001,6,1,91,8,0
8,412,709.915772560635,0,0,97576.6730298523,97577.7201045996,6,0,98,0,16
8,413,959.845709410729,0,0,97579.5789642793,97580.6260401816,6,0,86,0,0
8,414,498.936720687198,0,0,97582.5907695376,97583.6378369707,6,0,63,4,8
8,415,499.196570337517,0,0,97585.3084607946,97586.3555347721,6,0,67,4,0
8,416,752.103036793415,1,0,97587.9555580238,97589.0026296915,6,1,62,16,16
8,417,387.680264859227,0,0,97590.873247279,97591.9203154821,6,0,74,8,4
8,418,603.812808985822,0,0,97593.4968117541,97594.5438945857,6,0,99,16,4
8,419,627.390603724052,1,0,97596.1674448171,97597.2145211044,6,1,93,16,16
8,420,518.463170679752,1,0,97598.9792466877,97600.0263214351,6,1,86,8,0
8,421,665.555395375122,0,0,97601.5910571045,97602.6381287722,6,0,91,0,16
8,422,579.689522448462,0,0,97604.3911064567,97605.4381788943,6,0,85,0,16
8,423,613.365652010543,0,0,97607.0381959867,97608.0852741987,6,0,80,8,8
8,424,487.94989255839,0,0,97609.8617753982,97610.9088655441,6,0,99,16,16
8,425,469.564086291939,0,0,97612.5441663692,97613.5912395767,6,0,76,4,16
8,426,648.214762128191,1,0,97615.2383271818,97616.2854000044,6,1,76,4,16
8,427,451.414261973696,0,0,97618.1442527547,97619.1913228826,6,0,98,0,8
8,428,573.369978970732,1,0,97620.8031194407,97621.8501864889,6,1,83,16,4
8,429,530.523659064784,0,0,97623.5560971252,97624.6031722576,6,0,84,4,0
8,430,562.662248630659,1,0,97626.2620204653,97627.3090894383,6,1,65,8,4
8,431,890.877377969446,0,0,97628.9797132622,97630.0267864698,6,0,91,4,4
8,432,685.515313074575,1,0,97632.073882775,97633.1209529029,6,1,80,8,8
8,433,585.14944477065,1,0,97634.9562755938,97636.0033480314,6,1,86,16,0
8,434,436.865761323133,1,0,97637.7445508697,97638.7916883659,6,1,95,8,0
8,435,601.644315538579,1,0,97640.2387144541,97641.2857795774,6,1,99,8,8
8,436,723.925710757612,1,0,97643.0034600555,97644.0505297984,6,1,79,4,16
8,437,405.378913186723,0,0,97645.968215204,97647.015283407,6,0,84,4,16
8,438,705.928716546623,1,0,97648.4976640609,97649.544731879,6,1,89,4,8
8,439,553.646043248591,0,0,97651.4388833756,97652.4859546583,6,0,98,16,0
8,440,610.370644193608,0,0,97654.2389269533,97655.2859932315,6,0,70,16,8
8,441,571.123338158941,1,0,97656.9213163844,97657.9683949814,6,1,67,0,8
8,442,481.530258854036,1,0,97659.697827208,97660.7449069599,6,1,72,0,0
8,443,502.270110475365,1,0,97662.3802312677,97663.4272987008,6,1,74,8,16
8,444,572.288234514417,0,0,97665.0979105909,97666.144987648,6,0,70,4,0
8,445,586.401727588964,1,0,97667.7567792017,97668.8038524092,6,1,67,16,4
8,446,979.99079406145,0,0,97670.5803539937,97671.6274822509,6,0,64,4,16
8,447,614.508605503943,0,0,97673.6627478904,97674.709829952,6,0,71,0,4
8,448,550.52553769201,1,0,97676.4627933929,97677.5098689102,6,1,85,8,0
8,449,552.921158974641,1,0,97679.2393038316,97680.2864378632,6,1,74,8,0
8,450,653.445631804061,0,0,97681.874641228,97682.9217186702,6,0,74,0,4
8,451,474.084700239473,1,0,97684.7099789325,97685.7570513701,6,1,76,16,4
8,452,558.686741467682,1,0,97687.2394347188,97688.2865002271,6,1,93,0,16
8,453,669.525128076202,0,0,97689.9806467961,97691.0277253932,6,0,89,8,16
8,454,692.408450588118,1,0,97692.7218684976,97693.7689432449,6,1,65,0,4
8,455,688.671620155219,0,0,97695.6513626261,97696.6984589314,6,0,70,16,8
8,456,645.06037987303,1,0,97698.5690133851,97699.6160858227,6,1,62,4,0
8,457,505.362128824345,0,0,97701.333764761,97702.3808360437,6,0,81,4,4
8,458,688.596552470699,1,0,97703.9455663236,97704.9926437657,6,1,82,4,8
8,459,462.764879615861,1,0,97706.8044344724,97707.8515288529,6,1,64,0,8
8,460,797.577495293808,0,0,97709.4985968249,97710.5456708024,6,0,71,4,4
8,461,625.365701285773,1,0,97712.4986441753,97713.5457177678,6,1,99,0,4
8,462,464.794401617837,0,0,97715.3222359057,97716.3692898651,6,0,75,4,4
8,463,700.007994179032,0,0,97717.8869611811,97718.9340351586,6,0,88,8,4
8,464,426.228864060249,0,0,97720.6987730608,97721.7458424187,6,0,63,0,8
8,465,569.989623763831,1,0,97723.1929224015,97724.23998637,6,1,94,16,8
8,466,518.405811293633,1,0,97726.0047304316,97727.0518005594,6,1,75,8,4
8,467,502.270880402648,0,0,97728.7106526168,97729.7577335236,6,0,87,8,16
8,468,646.852764999494,0,0,97731.3459865486,97732.3931205802,6,0,80,16,0
8,469,479.578884231159,0,1,97734.1813227132,97735.2284013102,6,1,82,4,8
8,470,562.925177975558,0,0,97736.8519577011,97737.8990901928,6,0,66,16,4
8,471,514.141967258183,0,0,97739.5696470333,97740.6167194709,6,0,75,8,8
8,472,618.940678090439,1,0,97742.1579254658,97743.205053723,6,1,91,4,8
8,473,936.761821474647,0,0,97745.0050649639,97746.0521046797,6,0,70,4,0
8,474,678.395432696561,0,0,97747.9933055162,97749.0403810335,6,0,96,8,16
8,475,721.929680497851,1,0,97750.8168853127,97751.8639542857,6,1,75,16,16
8,476,622.187836299418,0,0,97753.6286856435,97754.6757619307,6,0,98,0,4
8,477,681.688016469707,1,0,97756.4640352818,97757.5110969404,6,1,84,0,0
8,478,591.104043851374,1,0,97759.2287704892,97760.2758479313,6,1,100,0,16
8,479,581.444181269035,1,0,97761.9111710842,97762.9582442917,6,1,87,0,0
8,480,693.924817649531,0,0,97764.5817956781,97765.6289270149,6,0,89,16,16
8,481,558.385700845975,1,0,97800.4882267066,97801.5353010691,7,1,81,4,8
8,482,516.93448482547,1,0,97803.1235637182,97804.1706384656,7,1,75,0,0
8,483,636.159278263221,1,0,97805.8294928327,97806.8765568012,7,1,70,16,8
8,484,543.084983582958,0,0,97808.6412973981,97809.6883721455,7,0,77,8,0
8,485,596.107785677304,1,0,97811.4413444405,97812.4884068691,7,1,94,8,16
8,486,515.743795986054,0,0,97814.1237338716,97815.1708090039,7,0,65,0,0
8,487,497.977009305032,0,0,97816.7943592354,97817.8414343677,7,0,67,8,4
8,488,613.502313673962,1,0,97819.3708739856,97820.4179414187,7,1,91,16,8
8,489,542.593771504471,1,0,97822.1238601393,97823.1709321919,7,1,91,8,4
8,490,546.859925292665,1,0,97824.841574879,97825.8886261437,7,1,71,0,8
8,491,617.580605787225,0,0,97827.5827669383,97828.6298401458,7,0,77,16,4
8,492,930.022283981089,0,0,97830.2651617589,97831.3122264972,7,0,90,8,16
8,493,665.887617957196,1,0,97833.3005309532,97834.3476361127,7,1,78,0,8
8,494,597.593355749268,1,0,97836.1358428652,97837.1829060637,7,1,91,0,0
8,495,746.630410678335,0,0,97838.8535271929,97839.9005984757,7,0,93,16,16
8,496,493.186921637971,1,0,97841.7241517098,97842.7712314617,7,1,72,0,4
8,497,502.069930022117,1,0,97844.3712608728,97845.418327921,7,1,84,4,16
8,498,636.866454267874,0,0,97846.9712983682,97848.0183715757,7,0,91,8,8
8,499,628.040035371669,0,0,97849.7360420448,97850.7831175621,7,0,67,16,16
8,500,711.197697499301,1,0,97852.5949148132,97853.6419880207,7,1,93,8,8
8,501,624.431782387546,0,0,97855.5008403861,97856.5479147485,7,0,64,0,4
8,502,643.141727050534,1,0,97858.1950019686,97859.2420690168,7,1,73,8,16
8,503,802.027661135071,1,0,97860.9479827328,97861.9950520908,7,1,84,4,8
8,504,647.493727461551,1,0,97863.9244992539,97864.9715701517,7,1,86,4,8
8,505,730.608658763231,0,0,97866.7833712523,97867.8304390704,7,0,81,4,0
8,506,767.992746579694,1,0,97869.6539907647,97870.7010762911,7,1,69,16,8
8,507,511.148499295814,1,0,97872.6658025674,97873.7128819343,7,1,87,0,0
8,508,1054.66349898779,1,0,97875.3952744451,97876.4423422631,7,1,80,16,0
8,509,519.155333153321,0,0,97878.6658991929,97879.71297702,7,0,66,4,16
8,510,523.920013321913,0,0,97881.3130133605,97882.3600742492,7,0,63,8,0
8,511,536.321193460026,1,0,97883.924806069,97884.9718727321,7,1,66,0,16
8,512,639.790244022151,1,0,97886.5130783421,97887.5601969752,7,1,65,16,16
8,513,442.115879137418,0,0,97889.2778270232,97890.3249056202,7,0,65,16,4
8,514,693.879007114447,1,0,97891.7719836783,97892.8190545761,7,1,71,16,0
8,515,629.497118206928,1,0,97894.5484995064,97895.5955704042,7,1,88,0,16
8,516,680.650927650277,1,0,97897.4073653455,97898.4544347034,7,1,77,4,0
8,517,887.088962554117,0,0,97900.1838780939,97901.2309532262,7,0,69,4,8
8,518,479.082667647162,1,0,97903.1839231345,97904.2309928774,7,1,66,4,16
8,519,524.972115672426,1,0,97905.7369124449,97906.7839756434,7,1,82,0,8
8,520,491.259029717185,1,0,97908.3487147774,97909.395777206,7,1,66,0,8
8,521,506.56090186385,1,0,97910.9252187487,97911.9722892615,7,1,67,8,16
8,522,522.035622154363,1,0,97913.5958514268,97914.6429242494,7,1,92,0,16
8,523,551.462151313899,1,0,97916.2194185966,97917.2664879545,7,1,67,8,0
8,524,465.907328034518,1,0,97918.9959367345,97920.0430080172,7,1,67,8,8
8,525,576.653323660139,1,0,97921.6900913877,97922.7371657502,7,1,65,8,4
8,526,745.716894816724,0,0,97924.3371901568,97925.3842633643,7,0,99,16,4
8,527,448.47006922646,0,0,97927.2901723838,97928.3372513658,7,0,74,4,16
8,528,570.922002807492,0,0,97929.9608108363,97931.0079267747,7,0,78,4,4
8,529,481.578379170969,0,0,97932.7020471663,97933.7491038205,7,0,77,8,8
8,530,825.577353622066,1,0,97935.2550307022,97936.3020800421,7,1,96,4,4
8,531,620.283812066191,0,0,97938.2432858831,97939.2903644801,7,0,78,16,0
8,532,810.32899125421,0,0,97940.9492099931,97941.9962832007,7,0,66,8,4
8,533,579.348830680829,0,0,97943.8433714987,97944.8904462461,7,0,88,16,8
8,534,668.041867786087,0,0,97946.5375353911,97947.5846066738,7,0,88,16,8
8,535,492.308052373119,1,0,97949.3964035399,97950.4434752076,7,1,66,4,4
8,536,995.938633175683,0,0,97951.9846788928,97953.0317467108,7,0,82,0,0
8,537,441.27666100394,0,0,97955.1494301146,97956.1965025523,7,0,67,8,0
8,538,534.13845639443,0,0,97957.6553427528,97958.7024240446,7,0,91,8,16
8,539,565.749647415942,0,0,97960.4436268828,97961.4907416663,7,0,84,4,0
8,540,519.066021879553,1,0,97963.2083801835,97964.2554499264,7,1,85,4,0
8,541,462.266353250016,0,0,97965.8201790514,97966.8672561085,7,0,68,0,16
8,542,479.939594049938,0,0,97968.5025704073,97969.5496505441,7,0,96,4,8
8,543,561.503896635259,0,0,97971.0908549992,97972.1379189677,7,0,89,16,4
8,544,536.242276168196,0,0,97973.8673573537,97974.9144382604,7,0,96,8,8
8,545,451.319561208948,0,0,97976.6321168137,97977.6791742378,7,0,78,16,16
8,546,601.653554622317,1,0,97979.2086419579,97980.2557536617,7,1,62,0,4
8,547,752.106116473442,0,0,97982.0204349744,97983.0674962481,7,0,78,4,16
8,548,516.627284800052,1,0,97984.914607259,97985.9617212725,7,1,66,4,4
8,549,543.648953564116,0,0,97987.6558093273,97988.7028844596,7,0,79,8,4
8,550,473.187352807145,0,0,97990.444086528,97991.4911605054,7,0,84,0,16
8,551,529.287929617567,0,0,97993.091185297,97994.1382596594,7,0,92,16,0
8,552,549.796803781646,0,0,97995.8324073834,97996.8794848255,7,0,70,16,0
8,553,742.485520066111,1,0,97998.4677378505,97999.5148129829,7,1,99,0,4
8,554,465.080813679378,1,0,98001.3971981024,98002.444270155,7,1,76,4,4
8,555,489.736888222978,0,0,98003.9737082331,98005.0207810556,7,0,78,4,0
8,556,447.139639014495,0,0,98006.6090471694,98007.6561134476,7,0,64,0,4
8,557,588.519021039247,1,0,98009.2208444975,98010.2679234794,7,1,87,16,4
8,558,493.686217931099,0,1,98012.0444543211,98013.0915517813,7,1,89,0,8
8,559,685.647355188848,0,0,98014.797428156,98015.8445398597,7,0,91,16,16
8,560,584.685180074302,0,0,98017.6915657939,98018.7386413112,7,0,69,8,0
8,561,966.328476948547,1,0,98053.5156514311,98054.5627223289,8,1,71,8,8
8,562,512.531669373857,0,0,98056.6804030379,98057.7274727808,8,0,74,8,0
8,563,521.386190521298,0,0,98059.4216170401,98060.4686960221,8,0,65,8,4
8,564,533.828176674433,0,0,98062.0451953738,98063.0922651167,8,0,85,0,8
8,565,831.494611338712,1,0,98064.7864139955,98065.8334818136,8,1,99,0,16
8,566,512.754562616465,1,0,98067.8099833211,98068.857104264,8,1,74,4,8
8,567,477.314920106437,0,0,98070.5276741932,98071.5747420112,8,0,76,16,4
8,568,678.688004147261,1,0,98073.2571876468,98074.3041961807,8,1,78,16,16
8,569,636.016842152458,1,0,98076.1160569505,98077.163069719,8,1,69,8,4
8,570,760.316595464246,0,0,98078.8336812241,98079.8807594362,8,0,81,16,4
8,571,574.627651280025,0,0,98081.7161375617,98082.7631522549,8,0,88,4,16
8,572,783.631075901212,1,0,98084.363181666,98085.4102475593,8,1,93,8,16
8,573,636.647410632577,1,0,98087.2102738137,98088.2573477912,8,1,98,16,16
8,574,695.185569653404,1,0,98090.0456184475,98091.09269204,8,1,61,16,8
8,575,820.331085458747,0,0,98092.9044877512,98093.9515617287,8,0,92,16,4
8,576,679.73664184683,1,0,98095.9398242238,98096.9869405471,8,1,65,4,0
8,577,722.10945795814,0,0,98098.7045740598,98099.7516457275,8,0,93,4,0
8,578,651.063484197948,1,0,98101.5516850706,98102.5987555835,8,1,67,16,16
8,579,549.978121096501,1,0,98104.3987853025,98105.4458912319,8,1,96,0,16
8,580,608.500881600776,1,0,98107.1870582686,98108.2341307063,8,1,71,0,8
8,581,815.376233847928,0,0,98109.9282738107,98110.9753535626,8,0,96,8,16
8,582,670.716971813818,1,0,98112.8459688403,98113.893040893,8,1,94,16,16
8,583,640.815399005078,0,0,98115.763664255,98116.8107986715,8,0,97,0,16
8,584,753.630182793131,1,0,98118.6578296102,98119.7049239907,8,1,84,8,16
8,585,477.342637415859,1,0,98121.4931630801,98122.5402401372,8,1,64,0,4
8,586,591.168717539404,1,0,98124.1284973968,98125.1755736841,8,1,99,16,8
8,587,752.494928558008,0,0,98126.8461890388,98127.8932583968,8,0,71,4,0
8,588,589.976488845423,0,0,98129.6815201989,98130.7285972561,8,0,67,4,0
8,589,521.453173991176,0,0,98132.4109735985,98133.4580491158,8,0,92,4,4
8,590,708.587267188705,1,0,98135.0110145585,98136.0580893059,8,1,99,4,4
8,591,430.066169705242,0,0,98137.7992963787,98138.8463668915,8,0,76,8,4
8,592,436.84574328654,1,0,98140.3287502402,98141.3758184432,8,1,96,16,0
8,593,445.600174207357,0,0,98142.8817268468,98143.9287950498,8,0,88,4,4
8,594,730.253338435432,1,0,98145.5641208974,98146.6111948749,8,1,71,4,16
8,595,671.867624550941,1,0,98148.4465117914,98149.4936169508,8,1,97,16,4
8,596,594.600657714182,0,0,98151.234788992,98152.2818645094,8,0,66,4,8
8,597,537.308622137061,1,0,98154.0230746619,98155.070142095,8,1,82,0,4
8,598,728.719263104722,0,0,98156.6466499159,98157.693716964,8,0,86,16,0
8,599,727.798432941199,1,0,98159.5996375324,98160.6467045805,8,1,70,0,0
8,600,426.919101722888,0,0,98162.4702605094,98163.5173298673,8,0,75,8,0
8,601,606.096791147138,1,0,98165.0232440454,98166.0703168679,8,1,61,0,0
8,602,421.73019296024,0,0,98167.7644626671,98168.8115401092,8,0,67,8,8
8,603,432.50298195926,0,0,98170.352726856,98171.3998077628,8,0,64,0,0
8,604,428.227204101859,0,0,98172.9410129878,98173.9880842705,8,0,84,0,0
8,605,723.293987393845,1,0,98175.5410435538,98176.5881244606,8,1,99,8,8
8,606,622.474248360959,0,0,98178.5057987023,98179.552870755,8,0,79,8,4
8,607,659.193121085991,1,0,98181.247018094,98182.2940874519,8,1,61,4,16
8,608,622.414579192991,0,0,98184.0117644653,98185.058836133,8,0,61,8,0
8,609,509.652150300099,1,0,98186.7295092321,98187.7765293148,8,1,65,0,4
8,610,718.051568852388,0,0,98189.4000876305,98190.4471596831,8,0,91,4,0
8,611,559.899758125539,1,0,98192.2471913271,98193.2942556805,8,1,93,0,16
8,612,507.825503489585,0,0,98194.8943382164,98195.9413825518,8,0,64,8,16
8,613,507.720408742898,0,0,98197.6472720152,98198.6943459927,8,0,95,0,0
8,614,442.132817479433,0,0,98200.2590774275,98201.3061444756,8,0,78,0,4
8,615,835.239910957171,1,0,98202.7649946852,98203.8120740521,8,1,91,4,4
8,616,609.347414021613,1,0,98205.7297502186,98206.776824581,8,1,81,0,8
8,617,793.472640769323,1,0,98208.4944969749,98209.5415690276,8,1,84,16,8
8,618,613.751384371426,1,0,98211.4122370452,98212.4592679069,8,1,86,16,0
8,619,812.673027568962,0,0,98214.1063836143,98215.1534210203,8,0,94,4,16
8,620,468.789156890125,1,0,98217.0711002665,98218.1182019613,8,1,65,8,16
8,621,605.290294828592,0,0,98219.7887861341,98220.8358647311,8,0,89,16,0
8,622,763.994911612826,0,0,98222.6358894457,98223.6829599585,8,0,100,0,16
8,623,486.627546575619,0,0,98225.5182907336,98226.5653608614,8,0,76,16,16
8,624,520.484608481638,0,0,98228.0594974985,98229.1065687812,8,0,83,0,8
8,625,615.194223617436,0,0,98230.6948325852,98231.7419061777,8,0,98,8,4
8,626,645.833384449361,1,0,98233.5419416712,98234.5890210381,8,1,97,4,8
8,627,573.354965439648,0,0,98236.2713862166,98237.3184659685,8,0,74,4,8
8,628,562.201833541621,1,0,98238.9655562684,98240.0126391,8,1,63,8,0
8,629,548.930253324215,0,0,98241.6008851957,98242.6479645626,8,0,78,4,8
8,630,691.026435408276,1,0,98244.3068154651,98245.3538813584,8,1,69,4,4
8,631,459.006106320885,0,0,98247.0597946895,98248.1068625075,8,0,84,16,8
8,632,635.562201510766,0,0,98249.7421918198,98250.7892619476,8,0,89,0,8
8,633,819.600041781086,1,0,98252.4951679645,98253.5422427118,8,1,93,16,4
8,634,613.625116675394,1,0,98255.4011020065,98256.4481729043,8,1,61,4,16
8,635,542.417458695127,0,0,98258.1423194734,98259.1893842117,8,0,78,8,8
8,636,547.383859186084,1,0,98260.8364791311,98261.8835454094,8,1,74,16,8
8,637,468.794161395635,0,0,98263.4718107532,98264.518932081,8,0,74,0,4
8,638,508.589268982178,1,0,98266.0012665395,98267.0483312779,8,1,65,16,0
8,639,421.459179400699,0,0,98268.648360689,98269.6954377461,8,0,63,8,0
8,640,687.34272979782,1,0,98271.1542833362,98272.2013569287,8,1,71,8,8
8,641,959.565841709264,0,0,98307.0489487576,98308.0960250448,9,0,72,16,4
8,642,591.35272957792,1,0,98310.19017069,98311.2372473622,9,1,77,0,16
8,643,529.747189822956,1,0,98313.025512629,98314.0726316471,9,1,94,0,0
8,644,705.889065429801,0,0,98315.7314359692,98316.7785111015,9,0,68,8,16
8,645,618.830578838242,1,0,98318.5197170195,98319.5667852225,9,1,81,16,4
8,646,690.712306066416,1,0,98321.3197555927,98322.3668268754,9,1,81,16,4
8,647,1045.64074924565,1,0,98324.1786795611,98325.2256961791,9,1,71,4,16
8,648,877.884125569835,1,0,98327.2963167694,98328.3433876671,9,1,100,8,4
8,649,709.199742428609,0,0,98330.3551894608,98331.4022580488,9,0,63,0,16
8,650,511.263988038991,0,0,98333.2728821807,98334.3199546183,9,0,85,0,16
8,651,1104.81525117939,1,0,98335.9906127039,98337.0376404858,9,1,72,0,0
8,652,900.15150817635,1,0,98339.3200346905,98340.3671021236,9,1,62,0,4
8,653,497.837267947034,0,0,98342.2965473619,98343.3436205694,9,0,74,8,16
8,654,849.865789044998,1,0,98344.9083512343,98345.9554302163,9,1,66,16,8
8,655,742.542879466782,1,0,98347.9436981009,98348.9907682287,9,1,87,16,8
8,656,726.506883947877,0,0,98350.7437409087,98351.7908068019,9,0,90,16,8
8,657,506.781485353713,0,0,98353.6614324737,98354.7085049113,9,0,67,4,8
8,658,627.437569142785,1,0,98356.3555936713,98357.4026587947,9,1,67,0,16
8,659,1015.62253281008,1,0,98359.1674001615,98360.2144664397,9,1,96,4,8
8,660,2022.25389586238,0,0,98362.2497963679,98363.2968703454,9,0,63,16,8
8,661,1211.95607351547,1,0,98366.532216365,98367.5792988117,9,1,89,16,0
8,662,1291.08818338136,1,0,98369.8499108557,98370.8969909926,9,1,99,4,16
8,663,762.024288866087,0,0,98373.2499684461,98374.2970393439,9,0,78,4,4
8,664,610.68977805553,0,0,98376.1323728138,98377.1794313927,9,0,90,8,8
8,665,581.57391360146,1,0,98378.8735841212,98379.9206554039,9,1,71,16,16
8,666,556.107108146534,1,0,98381.6148038978,98382.6618751805,9,1,89,4,0
8,667,513.413233362371,0,0,98384.2854261819,98385.3324966947,9,0,93,4,8
8,668,550.261838419829,1,0,98387.0266459585,98388.0737164713,9,1,96,16,16
8,669,491.25441016804,0,0,98389.7325716084,98390.7796459708,9,0,83,4,0
8,670,518.90202787763,0,0,98392.3561433977,98393.4032628007,9,0,96,4,0
8,671,594.19298247667,0,0,98394.9326519885,98395.9797228863,9,0,71,0,8
8,672,584.717516903766,0,0,98397.6621150121,98398.7092290257,9,0,88,8,4
8,673,536.679593496956,0,0,98400.4621505056,98401.509215244,9,0,91,0,0
8,674,532.187466742471,0,0,98403.1916004405,98404.2386690285,9,0,92,0,8
8,675,735.869170559454,1,0,98405.9681201183,98407.015181392,9,1,98,0,0
8,676,651.765655697091,0,0,98408.8740429964,98409.9211188987,9,0,98,8,0
8,677,619.987006022711,0,0,98411.6387920625,98412.6858618054,9,0,90,0,16
8,678,591.433571695234,1,0,98414.3682462319,98415.4153155899,9,1,98,16,0
8,679,887.607891927473,1,0,98417.1800523371,98418.2271213101,9,1,92,4,4
8,680,553.544798123767,0,0,98420.2271524921,98421.2742253146,9,0,97,8,4
8,681,683.144329392235,1,0,98422.8624910434,98423.909563866,9,1,72,16,16
8,682,483.368839486502,1,0,98425.7213561125,98426.7684323998,9,1,83,0,8
8,683,543.971167120617,1,0,98428.3096264609,98429.3567077526,9,1,92,16,8
8,684,596.074293949641,1,0,98431.0626191589,98432.1096854371,9,1,88,8,8
8,685,482.870313135209,1,0,98433.7567741972,98434.8038870558,9,1,61,0,8
8,686,659.853331671911,0,0,98436.3097600429,98437.3568713617,9,0,96,16,16
8,687,543.918427269091,0,0,98439.2039227034,98440.250984747,9,0,77,4,16
8,688,557.000605971552,0,0,98441.9216097258,98442.9686744642,9,0,70,8,16
8,689,588.715736856102,0,0,98444.6157716934,98445.6628425911,9,0,71,8,16
8,690,675.533236935735,1,0,98447.3569814609,98448.4040519737,9,1,70,8,8
8,691,547.552087780787,0,0,98450.1099645349,98451.1570458267,9,0,73,4,0
8,692,451.530520629603,0,0,98452.8629518435,98453.9100208164,9,0,64,8,4
8,693,632.075981629896,1,0,98455.3923991606,98456.4394677486,9,1,61,4,16
8,694,714.502600079868,1,0,98458.1689107541,98459.2159820368,9,1,72,16,0
8,695,658.723081927747,0,0,98461.0277900668,98462.0748513406,9,0,71,4,0
8,696,665.97346458002,1,0,98463.7925256592,98464.8396057961,9,1,99,8,4
8,697,625.793009588961,0,0,98466.6396355152,98467.6867114175,9,0,92,0,4
8,698,703.349083210924,0,0,98469.416144029,98470.4632118471,9,0,90,8,0
8,699,701.261431880994,1,0,98472.3220661373,98473.3691397298,9,1,99,4,8
8,700,573.406935378443,1,0,98475.1691732985,98476.2162438113,9,1,72,0,4
8,701,456.43417222891,0,0,98477.9339219796,98478.9809959571,9,0,84,8,16
8,702,627.017190156039,0,0,98480.4633708366,98481.5104463539,9,0,70,16,0
8,703,510.090622512507,1,0,98483.3222401403,98484.3693083433,9,1,92,0,8
8,704,782.47503368766,0,0,98485.9340494022,98486.9811122157,9,0,94,16,4
8,705,707.233739231015,1,0,98488.9340905932,98489.9811664954,9,1,71,0,4
8,706,541.072784893913,1,0,98491.8753187619,98492.9223831154,9,1,64,4,8
8,707,494.440359354485,0,0,98494.498883237,98495.5459591393,9,0,82,16,0
8,708,495.092485725763,0,0,98497.1812780576,98498.2283516501,9,0,85,0,4
8,709,662.440664236783,0,0,98499.9107310721,98500.9578062045,9,0,79,4,4
8,710,636.541930914973,0,0,98502.7578332288,98503.8049068213,9,0,79,8,0
8,711,514.86223199754,0,0,98505.5814107156,98506.6284781487,9,0,82,4,16
8,712,710.902046354022,1,0,98508.2873275114,98509.3344542287,9,1,62,16,16
8,713,779.552398817032,0,0,98511.1697280294,98512.2167966174,9,0,99,8,8
8,714,532.066588537418,0,0,98514.0991825068,98515.1462518647,9,0,76,0,0
8,715,683.54930987698,1,0,98516.7815777123,98517.8286482251,9,1,64,8,0
8,716,532.272158481646,1,0,98519.7110406589,98520.7581092469,9,1,91,4,4
8,717,472.48941588623,0,0,98522.4287276814,98523.4757904949,9,0,64,8,0
8,718,674.270175150014,1,0,98525.1228800249,98526.1699524625,9,1,83,16,4
8,719,575.206249821349,1,0,98527.9229266823,98528.969998735,9,1,64,8,8
8,720,540.718619449763,1,0,98530.6053180382,98531.6524359014,9,1,87,4,4
