sub_id,Trial,RT,Resp,Error,Fix_onset,Disp_onset,block,tid,tloc,fish_setsize,bird_setsize
13,1,723.47575891763,1,0,620841.319193863,620842.366268996,1,1,61,4,4
13,2,541.009335312992,0,0,620844.201597846,620845.248692611,1,0,89,0,0
13,3,374.44147572387,1,0,620846.931047781,620847.978122913,1,1,64,8,8
13,4,551.2012160616,1,0,620849.47226263,620850.519337762,1,1,83,4,16
13,5,637.477843905799,0,0,620852.142897618,620853.18997121,1,0,92,16,0
13,6,457.566031138413,0,0,620855.001764997,620856.048843594,1,0,77,0,8
13,7,741.180566605181,0,0,620857.625330627,620858.672406144,1,0,90,8,4
13,8,606.809425866231,0,0,620860.566610765,620861.613632773,1,0,91,16,0
13,9,488.432704703882,1,0,620863.29600642,620864.343081168,1,1,96,4,16
13,10,520.534337847494,1,0,620866.013693058,620867.06077281,1,1,68,0,8
13,11,414.469870505854,0,0,620868.601973415,620869.649048548,1,0,68,16,4
13,12,475.679283961654,0,0,620871.166739497,620872.213794611,1,0,100,0,8
13,13,506.291497382335,0,0,620873.754997141,620874.802069194,1,0,76,16,0
13,14,493.213553214446,1,0,620876.4491491,620877.496221152,1,1,88,0,16
13,15,612.83562798053,1,0,620879.084491116,620880.131608979,1,1,89,16,8
13,16,387.912851525471,0,0,620881.790417151,620882.837484969,1,0,76,4,0
13,17,615.645853802562,0,0,620884.425749158,620885.472818901,1,0,70,8,16
13,18,399.487517192028,0,0,620887.131665953,620888.178744935,1,0,87,0,4
13,19,545.374809531495,0,0,620889.719945541,620890.767017593,1,0,81,0,0
13,20,522.344816359691,1,0,620892.414099039,620893.461173017,1,1,61,0,4
13,21,379.259280627593,1,0,620895.131791066,620896.178867738,1,1,65,4,8
13,22,442.20756937284,1,0,620897.625947721,620898.673025548,1,1,68,8,4
13,23,487.007573829032,1,0,620900.261284733,620901.308362945,1,1,77,8,4
13,24,515.198758337647,0,0,620902.884858447,620903.931931655,1,0,88,16,16
13,25,624.572362867184,1,0,620905.449600276,620906.496672328,1,1,70,4,0
13,26,483.828168944456,0,0,620908.214352422,620909.261433713,1,0,78,16,8
13,27,428.077907999977,1,0,620910.837913047,620911.884988179,1,1,63,0,8
13,28,758.157410426065,0,0,620913.496782043,620914.543855635,1,0,100,16,0
13,29,515.03976888489,1,0,620916.485061861,620917.532137763,1,1,88,8,4
13,30,634.952490217984,0,0,620919.179301976,620920.226290877,1,0,72,16,4
13,31,437.423256225884,0,0,620921.955735422,620923.00281017,1,0,67,4,0
13,32,636.480791145004,0,0,620924.520483795,620925.567552383,1,0,84,4,16
13,33,603.687765542418,1,0,620927.238199305,620928.285250185,1,1,74,8,4
13,34,457.000136259012,1,0,620930.097033192,620931.144165684,1,1,84,16,4
13,35,614.477492752485,1,0,620932.68531201,620933.732389067,1,1,82,8,0
13,36,432.886473834515,0,0,620935.497154686,620936.544252531,1,0,93,0,0
13,37,670.836764387786,0,0,620938.144220734,620939.191289322,1,0,70,8,8
13,38,591.361268074252,0,0,620940.93249601,620941.979571527,1,0,92,4,8
13,39,521.154127432965,0,0,620943.767835639,620944.814906152,1,0,85,16,4
13,40,610.619784099981,1,0,620946.356112916,620947.403200368,1,1,88,4,0
13,41,475.618074997328,1,0,620949.156193836,620950.203220848,1,1,77,8,16
13,42,488.93354088068,1,0,620951.873842362,620952.92090864,1,1,78,0,16
13,43,381.674535106868,0,0,620954.568035126,620955.615154914,1,0,77,0,0
13,44,584.230608656071,1,0,620957.097451261,620958.144521389,1,1,71,4,4
13,45,430.544362403452,1,0,620959.862201482,620960.90927315,1,1,94,0,4
13,46,588.651132420637,0,0,620962.415180014,620963.462257841,1,0,61,16,0
13,47,507.371317129582,1,0,620965.20345683,620966.250524648,1,1,96,8,0
13,48,450.538541772403,0,0,620967.862318511,620968.909394028,1,0,66,0,16
13,49,400.4368345486,0,0,620970.509419205,620971.556491642,1,0,76,16,16
13,50,438.068453222513,1,0,620973.156516819,620974.203583097,1,1,65,0,8
13,51,510.537633206695,1,0,620975.780092073,620976.827164126,1,1,83,0,0
13,52,419.06285751611,0,0,620978.403655778,620979.45073553,1,0,75,16,4
13,53,818.394408677705,1,0,620981.074284991,620982.121359739,1,1,89,8,0
13,54,413.314598263241,1,0,620984.039045145,620985.086461354,1,1,75,4,0
13,55,589.265917427838,1,0,620986.627309718,620987.674384466,1,1,66,16,16
13,56,604.910406167619,0,0,620989.309709543,620990.356823172,1,0,72,0,4
13,57,616.94163735956,1,0,620992.109747347,620993.156822094,1,1,97,8,0
13,58,513.939931290224,0,0,620994.862808953,620995.909805553,1,0,81,4,16
13,59,520.47197392676,0,0,620997.603950967,620998.65102225,1,0,77,0,16
13,60,669.258033507504,0,0,621000.192234019,621001.239316081,1,0,68,16,16
13,61,596.590597881004,0,0,621003.004040895,621004.051111792,1,0,91,0,4
13,62,753.910504747182,0,0,621005.674667413,621006.721737156,1,0,88,4,8
13,63,469.33317813091,0,0,621008.604122661,621009.651198178,1,0,98,0,16
13,64,580.13537817169,0,0,621011.298268845,621012.345366305,1,0,79,16,16
13,65,575.351449893788,1,0,621014.063027535,621015.110103822,1,1,62,8,16
13,66,637.902072514407,1,0,621016.839539898,621017.886658531,1,1,71,4,8
13,67,506.74729293678,1,0,621019.68664244,621020.733760303,1,1,83,8,0
13,68,779.711457551457,1,0,621022.286733445,621023.333746983,1,1,97,16,8
13,69,476.760258548893,0,0,621025.145552704,621026.192625526,1,0,75,8,8
13,70,684.531418373808,1,0,621027.839714671,621028.886790573,1,1,92,8,16
13,71,706.247534719296,1,0,621030.675047756,621031.722121734,1,1,80,8,16
13,72,459.175943979062,0,0,621033.475092104,621034.522170316,1,0,85,8,8
13,73,449.809422832914,0,0,621036.051623022,621037.098675057,1,0,73,4,4
13,74,511.120851268061,1,0,621038.569357087,621039.616361387,1,1,67,4,4
13,75,702.703955350444,1,0,621041.310497562,621042.357589247,1,1,81,4,4
13,76,666.862412239425,1,0,621044.110589645,621045.157626666,1,1,94,16,8
13,77,704.912099987268,1,0,621046.922354174,621047.969468572,1,1,90,8,8
13,78,432.953072362579,1,0,621049.722451261,621050.769482123,1,1,74,4,8
13,79,692.496676230803,0,0,621052.357734378,621053.404801811,1,0,70,16,8
13,80,501.232320908457,0,0,621055.204831145,621056.251908203,1,0,77,4,16
13,81,542.752445326187,1,0,621069.934474331,621070.981566787,2,1,81,0,16
13,82,557.707851286978,1,0,621072.534521836,621073.581585804,2,1,68,0,8
13,83,596.984799369238,0,0,621075.299320562,621076.346351039,2,0,88,16,4
13,84,536.857130355202,1,0,621078.146375753,621079.193442032,2,1,69,4,0
13,85,414.387103635818,1,0,621080.781695057,621081.828768649,2,1,67,16,4
13,86,533.169190282933,0,0,621083.369976569,621084.417048621,2,0,92,8,0
13,87,809.852861915715,1,0,621086.064129682,621087.111236767,2,1,81,4,16
13,88,556.652669096366,1,0,621089.005356696,621090.052431829,2,1,96,16,8
13,89,555.837318650447,0,0,621091.817160877,621092.864245633,2,0,93,16,4
13,90,608.047465095297,0,0,621094.487795094,621095.534873692,2,0,89,16,0
13,91,485.491976607591,0,0,621097.252537231,621098.299614288,2,0,99,0,16
13,92,357.958538806997,0,0,621099.887873858,621100.9349513,2,0,86,0,8
13,93,549.648277577944,0,0,621102.323215181,621103.370278379,2,0,97,4,8
13,94,406.170080299489,0,0,621104.99383246,621106.040914137,2,0,76,0,8
13,95,759.614108246751,1,0,621107.582118207,621108.629229526,2,1,63,16,0
13,96,410.434694262221,0,0,621110.464507176,621111.511583464,2,0,65,8,4
13,97,494.645613594912,1,0,621113.076312204,621114.123386951,2,1,66,0,4
13,98,665.083115687594,0,0,621115.711646136,621116.758719728,2,0,100,4,4
13,99,479.442676762119,1,0,621118.523454551,621119.570531608,2,1,65,8,4
13,100,525.2967083361,0,0,621121.217618828,621122.264686261,2,0,81,0,4
13,101,428.928290028125,1,0,621123.911772711,621124.958843224,2,1,66,4,4
13,102,446.723948814906,1,0,621126.547121272,621127.59418139,2,1,64,0,8
13,103,428.592987707816,1,0,621129.088323417,621130.135401244,2,1,72,8,4
13,104,428.874395205639,0,0,621131.664835472,621132.711949101,2,0,64,16,8
13,105,604.838803061284,1,0,621134.17075273,621135.217832867,2,1,86,8,8
13,106,563.785638310947,0,0,621136.959053413,621138.006106218,2,0,73,16,16
13,107,441.15431222599,0,0,621139.68848949,621140.735557693,2,0,63,16,0
13,108,482.797624543309,1,0,621142.276760608,621143.32383728,2,1,72,16,8
13,109,437.81668774318,0,0,621144.829746069,621145.876871246,2,0,85,8,16
13,110,487.794436980039,0,0,621147.429858247,621148.476865241,2,0,64,16,0
13,111,615.764807211235,1,0,621150.170996026,621151.218071544,2,1,64,0,0
13,112,576.989080174826,0,0,621152.888798538,621153.935763186,2,0,89,8,16
13,113,418.288697954267,1,0,621155.559321886,621156.606391629,2,1,64,4,8
13,114,506.58483884763,0,0,621158.22994571,621159.277021997,2,0,70,4,16
13,115,774.389736820012,1,0,621160.818225298,621161.8653012,2,1,100,4,8
13,116,697.009590920061,1,0,621163.700620041,621164.747755998,2,1,96,4,0
13,117,448.211828712374,0,0,621166.524199068,621167.571266116,2,0,65,8,8
13,118,432.691297959536,0,0,621169.088936662,621170.136015259,2,0,74,0,16
13,119,383.71637579985,0,0,621171.700744384,621172.747814512,2,0,74,4,16
13,120,579.718463821337,1,0,621174.147837071,621175.194913358,2,1,92,16,16
13,121,498.984140343964,1,0,621176.818466284,621177.865540647,2,1,71,8,16
13,122,514.373398968019,0,0,621179.394969101,621180.442052702,2,0,99,0,4
13,123,454.60605493281,1,0,621182.147954869,621183.195034621,2,1,74,4,4
13,124,508.265199954621,0,0,621184.736230222,621185.783317673,2,0,82,8,8
13,125,416.594863287173,1,0,621187.406859436,621188.453933028,2,1,95,0,8
13,126,437.808603630401,1,0,621190.065751529,621191.112797019,2,1,97,0,0
13,127,430.917775956914,0,0,621192.724604356,621193.771677564,2,0,63,0,0
13,128,527.178789721802,0,0,621195.242282217,621196.289349265,2,0,78,8,8
13,129,441.623966442421,1,0,621197.924669338,621198.97174909,2,1,76,8,0
13,130,573.904760996811,0,0,621200.595295087,621201.642377149,2,0,73,16,16
13,131,467.291722190566,0,0,621203.360053777,621204.407129679,2,0,65,16,0
13,132,465.498567209579,0,0,621206.030678756,621207.077753503,2,0,86,0,0
13,133,413.263013353571,1,0,621208.618941405,621209.666052724,2,1,66,4,4
13,134,486.075964639895,1,0,621211.101348621,621212.148423754,2,1,61,0,0
13,135,544.399314559996,1,0,621213.77197206,621214.819046808,2,1,80,16,8
13,136,661.397485295311,1,0,621216.536723436,621217.583805498,2,1,98,8,16
13,137,449.337073951028,1,0,621219.325000637,621220.372072689,2,1,77,4,16
13,138,644.906849134713,0,0,621221.960397317,621223.00741894,2,0,70,8,0
13,139,439.972862484865,1,0,621224.819203102,621225.86627631,2,1,87,4,8
13,140,432.11577902548,0,0,621227.4310089,621228.478083262,2,0,86,4,0
13,141,425.761973834597,0,0,621230.00752442,621231.054592238,2,0,100,0,4
13,142,481.924914638512,1,0,621232.572284727,621233.619353315,2,1,97,16,4
13,143,423.993071424775,0,0,621235.137006922,621236.184085904,2,0,73,8,0
13,144,430.114744231105,1,0,621237.631165887,621238.67823332,2,1,78,8,16
13,145,576.419720659032,1,0,621240.160625523,621241.207691801,2,1,70,16,4
13,146,422.25535097532,0,0,621242.995948984,621244.043022961,2,0,78,4,0
13,147,443.680820753798,1,0,621245.57246104,621246.619536172,2,1,85,0,4
13,148,480.612962623127,0,0,621248.125439571,621249.172518938,2,0,64,0,16
13,149,447.016135323793,0,0,621250.854899515,621251.901965408,2,0,74,8,8
13,150,473.382598021999,1,0,621253.419644423,621254.46672918,2,1,67,4,0
13,151,398.7510841107,1,0,621256.137324131,621257.184403883,2,1,68,8,4
13,152,539.475645055063,1,0,621258.737412827,621259.784456777,2,1,70,4,4
13,153,616.908145719208,0,0,621261.502121087,621262.549196219,2,0,72,16,16
13,154,638.561513158493,0,0,621264.196305382,621265.243375125,2,0,94,16,16
13,155,461.734789423645,1,0,621267.055145044,621268.102226721,2,1,68,16,8
13,156,770.812665810809,1,0,621269.666978173,621270.714018274,2,1,94,8,0
13,157,632.839816389605,0,0,621272.619933453,621273.667006661,2,0,81,4,16
13,158,482.725251582451,1,0,621275.361214054,621276.408227977,2,1,64,8,4
13,159,457.437838544138,0,0,621277.949433202,621278.996504485,2,0,69,0,16
13,160,464.123481302522,0,0,621280.584796391,621281.63185651,2,0,63,4,8
13,161,569.545446429402,1,0,621305.832208673,621306.879281111,3,1,96,4,0
13,162,441.592014511116,1,0,621308.538135478,621309.585205991,3,1,84,4,8
13,163,444.98661335092,1,0,621311.208760072,621312.255862922,3,1,88,0,0
13,164,494.735694839619,0,0,621313.749973381,621314.797051208,3,0,66,4,16
13,165,594.096426153556,1,0,621316.326486977,621317.37355672,3,1,81,16,16
13,166,441.256327205338,1,0,621319.091235273,621320.1383131,3,1,74,16,0
13,167,414.915657020174,0,0,621321.620690674,621322.667760802,3,0,68,0,16
13,168,547.445522504859,0,0,621324.197196955,621325.244274012,3,0,84,8,0
13,169,518.095600767992,0,0,621326.879588311,621327.926669988,3,0,69,4,8
13,170,510.145741398446,0,0,621329.644337762,621330.691412895,3,0,96,4,16
13,171,473.383752861992,0,0,621332.350264182,621333.397333925,3,0,91,0,16
13,172,359.256247174926,0,0,621334.903241174,621335.950318231,3,0,64,0,0
13,173,481.151910033077,0,0,621337.4562224,621338.503287908,3,0,80,4,8
13,174,531.7036381457,0,0,621340.032738305,621341.079807663,3,0,88,0,16
13,175,527.261556591839,1,0,621342.809249128,621343.856339659,3,1,78,8,16
13,176,539.891404449008,0,0,621345.55047237,621346.597541343,3,0,61,16,4
13,177,475.376318558119,0,0,621348.268177485,621349.315243379,3,0,87,0,4
13,178,535.281094140373,0,0,621350.821134459,621351.868206512,3,0,98,4,0
13,179,538.115187664516,1,0,621353.468232843,621354.515306436,3,1,69,4,0
13,180,490.052241715603,1,0,621356.162395195,621357.209471098,3,1,63,4,4
13,181,435.964633594267,0,0,621358.856596044,621359.903629216,3,0,93,0,0
13,182,392.773002269678,0,0,621361.456592349,621362.503654777,3,0,79,0,4
13,183,540.349509799853,1,0,621364.09192705,621365.138996793,3,1,80,4,4
13,184,505.488080787472,0,0,621366.703728613,621367.750797586,3,0,64,8,16
13,185,380.010727327317,1,0,621369.280241053,621370.327316956,3,1,65,0,8
13,186,587.787276715972,1,0,621371.762638261,621372.809701459,3,1,79,4,0
13,187,568.570721428841,0,0,621374.562670675,621375.609733873,3,0,62,16,16
13,188,560.058431932703,1,0,621377.186247083,621378.233319906,3,1,73,16,0
13,189,514.840743388049,1,0,621379.986282577,621381.03335155,3,1,70,8,4
13,190,424.242527107708,1,0,621382.551030565,621383.598102618,3,1,75,4,4
13,191,543.727940064855,1,0,621385.233438474,621386.280506678,3,1,94,4,8
13,192,599.950934993103,0,0,621387.986418469,621389.033492061,3,0,83,0,8
13,193,453.311811201274,0,0,621390.668804435,621391.715869559,3,0,87,16,16
13,194,369.843869353645,1,0,621393.351193866,621394.398270923,3,1,66,8,8
13,195,419.00395823177,0,0,621395.951236366,621396.998355769,3,0,96,0,0
13,196,456.916214432567,1,0,621398.598349764,621399.645417197,3,1,68,8,8
13,197,543.578574783169,0,0,621401.245462391,621402.292510191,3,0,85,16,4
13,198,669.747320585884,0,0,621403.951430002,621404.998440076,3,0,62,4,16
13,199,630.891906446777,1,0,621406.71610708,621407.763177593,3,1,94,8,0
13,200,723.597791977227,1,0,621409.598509138,621410.645583886,3,1,68,16,8
13,201,816.670161904767,1,0,621412.563277375,621413.61033403,3,1,99,8,0
13,202,581.767234019935,1,0,621415.516253828,621416.563362452,3,1,96,16,16
13,203,576.414331211708,0,0,621418.245693754,621419.292773121,3,0,72,0,8
13,204,424.720650422387,1,0,621420.975151773,621422.022223056,3,1,75,16,0
13,205,792.626177542843,0,0,621423.622241303,621424.669309506,3,0,100,16,8
13,206,1025.10114735924,0,0,621426.539939027,621427.587014545,3,0,62,8,8
13,207,759.18410520535,0,0,621429.692930416,621430.73999862,3,0,90,8,0
13,208,520.750686875544,0,0,621432.681224094,621433.728284597,3,0,68,0,4
13,209,643.956376821734,1,0,621435.351839448,621436.398915736,3,1,69,4,0
13,210,495.350094861351,0,0,621438.22246589,621439.269549107,3,0,88,8,16
13,211,880.207828129642,0,0,621440.869575438,621441.916647106,3,0,98,0,8
13,212,625.445072771981,0,0,621443.82256267,621444.869635107,3,0,90,8,4
13,213,538.383506587707,1,0,621446.528471766,621447.575566147,3,1,85,8,8
13,214,643.8428129768,1,0,621449.15210361,621450.199162188,3,1,91,16,16
13,215,455.056460923515,1,0,621451.975611418,621453.022705414,3,1,92,0,8
13,216,446.354769868776,1,0,621454.540367106,621455.587438773,3,1,63,4,4
13,217,582.849363447167,1,0,621457.16399356,621458.211011332,3,1,89,0,16
13,218,441.819912288338,1,0,621459.86986416,621460.916985103,3,1,65,16,4
13,219,491.257944027893,1,0,621462.446373136,621463.493441724,3,1,98,4,4
13,220,578.093537478708,1,0,621465.128771421,621466.175844243,3,1,82,16,8
13,221,439.897794742137,1,0,621467.834690141,621468.881767969,3,1,65,4,8
13,222,440.199990291148,1,0,621470.446512107,621471.493593014,3,1,94,4,16
13,223,560.641265008599,0,0,621473.128899228,621474.176016322,3,0,97,16,0
13,224,491.540121496655,1,0,621475.764221611,621476.811294819,3,1,84,16,4
13,225,687.968748039566,0,0,621478.493676551,621479.540748988,3,0,99,16,0
13,226,685.4611026356,0,0,621481.364361507,621482.411403147,3,0,71,8,0
13,227,506.13674253691,0,0,621484.164357349,621485.211422857,3,0,88,8,4
13,228,527.089478331618,0,0,621486.905576741,621487.952631855,3,0,71,0,4
13,229,460.351619287394,0,0,621489.57619402,621490.623270693,3,0,90,0,16
13,230,656.171620124951,1,0,621492.164473993,621493.211550665,3,1,72,8,4
13,231,508.348351810128,0,0,621495.035107364,621496.082182881,3,0,87,8,16
13,232,617.622635909356,1,0,621497.741053802,621498.788096597,3,1,94,16,8
13,233,662.361816153862,1,0,621500.541073897,621501.588145564,3,1,80,0,4
13,234,577.22082757391,1,0,621503.329349942,621504.37642469,3,1,61,16,8
13,235,632.033320027404,0,0,621506.117690277,621507.164712284,3,0,95,4,16
13,236,505.998156149872,0,0,621508.823552408,621509.870676431,3,0,98,8,16
13,237,588.442482752725,0,0,621511.447127662,621512.49419625,3,0,93,16,4
13,238,509.842775994912,0,0,621514.22364811,621515.270766743,3,0,74,0,0
13,239,450.706385308877,1,0,621516.823682525,621517.870754578,3,1,63,8,4
13,240,646.009381511249,1,0,621519.341363465,621520.388431283,3,1,70,8,8
13,241,658.178044483066,0,0,621552.730112014,621553.777186761,4,0,92,4,4
13,242,536.259283777326,0,0,621555.636034507,621556.683093856,4,0,100,0,0
13,243,522.178512532264,1,0,621558.294897344,621559.341967471,4,1,85,4,16
13,244,484.649293823168,1,0,621560.918499545,621561.96554773,4,1,89,4,8
13,245,601.275975699537,0,0,621563.506744101,621564.553812689,4,0,70,4,16
13,246,450.311028864235,0,0,621566.247958103,621567.295034775,4,0,66,0,16
13,247,534.13082647603,1,0,621568.906824019,621569.953899536,4,1,61,0,4
13,248,399.476353311911,0,0,621571.565687625,621572.612759678,4,0,87,0,0
13,249,545.286652981304,0,0,621574.059866608,621575.106942895,4,0,62,4,8
13,250,380.556988995522,1,0,621576.730471954,621577.777542852,4,1,86,0,0
13,251,671.853835228831,0,0,621579.201098935,621580.248170217,4,0,81,8,0
13,252,726.471921661869,1,0,621582.036440489,621583.083508307,4,1,91,16,4
13,253,484.39983825665,0,0,621584.977664808,621586.02474456,4,0,65,16,4
13,254,688.812970649451,1,0,621587.648293251,621588.69535568,4,1,67,8,16
13,255,566.327545326203,1,0,621590.577739644,621591.624819396,4,1,89,16,4
13,256,616.224837373011,1,0,621593.224839568,621594.271912776,4,1,65,8,8
13,257,656.553117907606,1,0,621595.895477251,621596.942559313,4,1,81,8,8
13,258,505.354498862289,1,0,621598.636692793,621599.683757916,4,1,93,0,8
13,259,650.996570009738,1,0,621601.224966991,621602.272059832,4,1,82,16,0
13,260,681.52293690946,1,0,621604.00146896,621605.048547557,4,1,61,4,4
13,261,625.42851944454,1,0,621606.860332875,621607.907427255,4,1,82,16,4
13,262,614.717709366232,1,0,621609.578033756,621610.625102729,4,1,68,16,16
13,263,633.433813462034,0,0,621612.41337069,621613.460441973,4,0,91,8,4
13,264,478.417521808296,1,1,621615.166351839,621616.213422352,4,0,88,16,8
13,265,425.948295742273,1,0,621617.789912465,621618.837019549,4,1,66,0,4
13,266,622.535911621526,1,0,621620.331136553,621621.378209761,4,1,88,4,16
13,267,772.87221478764,0,0,621623.048829735,621624.095904097,4,0,100,8,4
13,268,704.694211250171,0,0,621625.931221399,621626.978299226,4,0,80,16,0
13,269,526.984768570401,0,0,621628.801855925,621629.848959159,4,0,77,16,8
13,270,695.741524687037,0,0,621631.390127043,621632.437202945,4,0,90,4,16
13,271,487.807910772972,1,0,621634.307820148,621635.354927232,4,1,96,16,8
13,272,453.823811141774,0,0,621636.849045006,621637.89610782,4,0,97,16,4
13,273,498.024428961799,1,0,621639.472611406,621640.519680764,4,1,73,4,0
13,274,734.687790041789,0,0,621642.049118072,621643.096193204,4,0,98,4,0
13,275,522.858741227537,1,0,621644.966872771,621646.013885924,4,1,99,0,4
13,276,598.705581505783,0,0,621647.660966215,621648.708041347,4,0,72,16,16
13,277,416.056300746277,1,0,621650.378653237,621651.42572837,4,1,65,8,0
13,278,693.422125885263,1,0,621653.04928553,621654.096357198,4,1,87,16,0
13,279,574.979961151257,1,0,621655.943463589,621656.990527558,4,1,93,0,16
13,280,510.574204614386,0,0,621658.767021058,621659.814090801,4,0,68,0,4
13,281,756.214889930561,0,0,621661.35531181,621662.402382707,4,0,61,8,16
13,282,640.359287732281,0,0,621664.367105904,621665.414173337,4,0,72,4,4
13,283,579.157188651152,0,0,621667.249501032,621668.29657886,4,0,69,8,8
13,284,527.24384830799,1,0,621669.96718844,621671.014259723,4,1,84,0,8
13,285,494.047381915152,0,0,621672.614294138,621673.661360801,4,0,77,8,0
13,286,477.278418024071,0,0,621675.214333173,621676.261402531,4,0,74,0,8
13,287,809.173788176849,1,0,621677.920250739,621678.967328181,4,1,62,8,16
13,288,770.79457254149,1,0,621680.908533252,621681.955645726,4,1,81,16,0
13,289,691.470751422457,1,0,621683.896813841,621684.943885893,4,1,92,16,16
13,290,418.565870961174,0,0,621686.790977271,621687.838053558,4,0,86,4,16
13,291,642.480430891737,0,0,621689.296902228,621690.343970046,4,0,77,16,0
13,292,680.191351799294,1,0,621692.132239547,621693.179306596,4,1,69,4,8
13,293,637.13753700722,0,0,621694.979344014,621696.026406058,4,0,75,4,0
13,294,492.986810510047,0,0,621697.826446171,621698.873543631,4,0,74,0,0
13,295,709.628274897113,1,0,621700.520658568,621701.567672107,4,1,100,4,4
13,296,514.695997582749,0,0,621703.320641322,621704.367710295,4,0,85,8,8
13,297,506.962486892007,1,0,621705.944206567,621706.991283624,4,1,71,0,16
13,298,513.271251576953,1,0,621708.661905138,621709.708971801,4,1,91,4,4
13,299,433.441589702852,1,0,621711.320759506,621712.367835408,4,1,84,16,8
13,300,402.261941577308,0,0,621713.861982824,621714.909054491,4,0,75,0,4
13,301,565.264279139228,1,0,621716.462014545,621717.509086597,4,1,91,4,0
13,302,627.302516601048,0,0,621719.167969837,621720.21503881,4,0,99,16,16
13,303,548.373281955719,1,0,621721.920923653,621722.968000711,4,1,91,8,4
13,304,486.659952672198,0,0,621724.638607211,621725.685701207,4,0,99,8,8
13,305,383.665945730172,0,0,621727.203366363,621728.250484996,4,0,75,8,4
13,306,667.365558096208,0,0,621729.77986995,621730.826941617,4,0,79,16,16
13,307,541.969816666096,0,0,621732.674031455,621733.721099658,4,0,72,0,8
13,308,638.514547725208,1,0,621735.391720788,621736.43878976,4,1,78,16,8
13,309,453.888099873438,0,0,621738.274113221,621739.321187199,4,0,94,0,8
13,310,390.246878727339,0,0,621740.933030722,621741.980049265,4,0,87,8,0
13,311,427.799965138547,1,0,621743.521273738,621744.568383902,4,1,97,0,16
13,312,393.001285032369,1,0,621746.133059132,621747.180133495,4,1,87,8,0
13,313,461.084972834215,1,0,621748.74485954,621749.791926588,4,1,85,8,4
13,314,439.747274504043,0,0,621751.286079779,621752.33321458,4,0,86,8,16
13,315,603.464102256112,0,0,621753.815527096,621754.862604153,4,0,68,4,8
13,316,486.875146743841,1,0,621756.48620212,621757.533236061,4,1,79,8,16
13,317,623.034053016454,0,0,621759.203839097,621760.250922699,4,0,61,4,8
13,318,855.780806276016,0,0,621761.933297116,621762.980370324,4,0,64,0,16
13,319,466.683481587097,1,0,621764.933351396,621765.980415749,4,1,84,0,0
13,320,474.01971090585,1,0,621767.521622899,621768.568691487,4,1,87,4,0
13,321,631.2645500293,1,0,621803.263337738,621804.310408635,5,1,63,4,8
13,322,479.46192487143,0,0,621806.039907075,621807.086931008,5,0,73,8,16
13,323,580.129218869843,0,0,621808.651697089,621809.698749894,5,0,72,8,8
13,324,513.992286170833,1,0,621811.310526049,621812.357600026,5,1,77,16,8
13,325,511.397639289498,1,0,621814.028216151,621815.075287819,5,1,79,8,4
13,326,546.594370505773,0,0,621816.687070133,621817.734154505,5,0,89,0,0
13,327,656.052666716278,1,0,621819.310639998,621820.357718595,5,1,79,4,8
13,328,705.774030881003,1,0,621822.098924898,621823.14599849,5,1,70,4,16
13,329,429.304398363456,0,0,621825.028379375,621826.075464516,5,0,84,0,8
13,330,633.82916979026,1,0,621827.7107792,621828.75788282,5,1,70,8,8
13,331,552.23945970647,1,0,621830.487315046,621831.534369776,5,1,88,8,4
13,332,432.646257220767,1,0,621833.252032931,621834.299108833,5,1,96,0,8
13,333,494.515496306121,0,0,621835.757952883,621836.805022626,5,0,85,16,4
13,334,396.23496949207,1,0,621838.346229006,621839.393303753,5,1,85,4,0
13,335,424.547417322174,0,0,621840.958031338,621842.005107241,5,0,84,16,4
13,336,845.169316511601,1,0,621843.605120098,621844.652213709,5,1,79,4,0
13,337,443.369386135601,1,0,621846.664006648,621847.711076776,5,1,67,16,0
13,338,397.952286992222,1,0,621849.299331341,621850.346413403,5,1,75,8,8
13,339,397.249345551245,1,0,621851.911139833,621852.95821535,5,1,77,4,4
13,340,360.264078830369,0,0,621854.511170014,621855.558259005,5,0,65,4,8
13,341,411.730092950165,1,0,621856.934749965,621857.981818937,5,1,97,0,16
13,342,394.677026430145,1,0,621859.581850273,621860.628918862,5,1,66,16,8
13,343,500.540543464012,1,0,621862.181889309,621863.228950967,5,1,82,0,8
13,344,473.009184468538,0,0,621864.911328465,621865.958411296,5,0,93,4,4
13,345,524.941387935542,0,0,621867.558473814,621868.605530853,5,0,97,4,8
13,346,439.772682031617,1,0,621870.158510924,621871.205558339,5,1,78,0,4
13,347,400.408732355572,1,0,621872.746751631,621873.793824453,5,1,68,4,4
13,348,512.375828810036,0,1,621875.287974564,621876.335030833,5,1,81,16,0
13,349,658.705827896483,0,0,621877.958592998,621879.00567352,5,0,85,16,16
13,350,603.888715850189,1,0,621880.723347454,621881.770427591,5,1,82,16,8
13,351,543.162815272808,0,0,621883.53514894,621884.582221377,5,0,64,16,0
13,352,738.241378450766,0,0,621886.241077669,621887.288150492,5,0,81,8,4
13,353,473.581623635255,0,0,621889.170531762,621890.217608434,5,0,77,0,0
13,354,569.038835703395,0,0,621891.794096237,621892.841178298,5,0,91,0,0
13,355,513.750529731624,0,0,621894.476494522,621895.523571194,5,0,62,0,8
13,356,451.127534266561,1,0,621897.205948306,621898.253026134,5,1,94,4,16
13,357,800.500969286077,1,0,621899.77069206,621900.817764498,5,1,100,16,4
13,358,747.609824407846,1,0,621902.629558669,621903.676634956,5,1,72,8,0
13,359,556.618022616021,0,0,621905.582545901,621906.629619878,5,0,81,4,16
13,360,425.793925765902,0,0,621908.253174344,621909.300273344,5,0,85,0,0
13,361,598.343331832439,1,0,621910.923803173,621911.970877535,5,1,82,16,16
13,362,558.403863338754,1,0,621913.64149058,621914.688570332,5,1,83,8,16
13,363,570.956333773211,0,0,621916.418005253,621917.465079231,5,0,63,4,4
13,364,570.189873571508,1,0,621919.182749315,621920.229831761,5,1,92,16,4
13,365,419.883597409353,0,0,621921.923974866,621922.971041144,5,0,95,0,16
13,366,544.895146158524,0,0,621924.418174637,621925.465207038,5,0,62,0,4
13,367,502.542733214796,0,0,621927.100522877,621928.147597624,5,0,69,8,0
13,368,493.871839134954,0,0,621929.829977431,621930.877037935,5,0,67,16,0
13,369,424.793793354183,0,0,621932.47712509,621933.524151333,5,0,63,4,8
13,370,487.019507563673,0,0,621935.135971758,621936.183013784,5,0,87,4,0
13,371,609.333239728585,0,0,621937.759503512,621938.806584033,5,0,95,8,4
13,372,753.924363409169,1,0,621940.488959606,621941.536033583,5,1,88,0,4
13,373,456.100864103064,1,0,621943.394885564,621944.441963391,5,1,83,0,4
13,374,330.554602318443,0,0,621945.983176315,621947.030231429,5,0,76,0,16
13,375,853.551103849895,0,0,621948.371433652,621949.41849531,5,0,61,16,0
13,376,500.627545057796,0,0,621951.336180716,621952.383259698,5,0,94,0,0
13,377,435.655508656055,0,0,621953.995050867,621955.042125614,5,0,86,4,4
13,378,643.776599317789,0,0,621956.595088747,621957.64215926,5,0,69,16,8
13,379,559.875959763303,0,0,621959.301011317,621960.348072976,5,0,72,4,16
13,380,404.130164184608,1,0,621962.077521756,621963.124599968,5,1,68,8,8
13,381,505.431491299532,1,0,621964.689319469,621965.736413079,5,1,84,8,4
13,382,600.78976827208,0,0,621967.265902742,621968.312914741,5,0,80,8,16
13,383,436.865445575677,1,0,621969.971762949,621971.018891591,5,1,85,4,0
13,384,495.987207745202,0,0,621972.583562971,621973.630641568,5,0,83,16,16
13,385,614.255369524471,1,0,621975.289492086,621976.336562214,5,1,72,8,0
13,386,520.823444705457,1,0,621978.124865207,621979.171965362,5,1,61,0,8
13,387,427.348019205965,1,0,621980.748402735,621981.795470168,5,1,95,0,16
13,388,399.219583370723,0,0,621983.254316528,621984.301382036,5,0,76,8,0
13,389,480.135224293917,1,0,621985.795533302,621986.842607664,5,1,69,16,16
13,390,743.025691714138,1,0,621988.348509908,621989.39558889,5,1,80,16,16
13,391,679.106527590193,1,0,621991.160321018,621992.207401925,5,1,81,16,8
13,392,497.799995820969,0,0,621993.889777497,621994.936880347,5,0,72,4,0
13,393,410.936300177127,0,0,621996.442759493,621997.489829621,5,0,87,0,16
13,394,584.362650872208,1,0,621998.972205655,622000.019277323,5,1,79,8,16
13,395,647.014133515768,0,0,622001.807534506,622002.854606943,5,0,97,8,16
13,396,664.444848080166,1,0,622004.631113917,622005.6781852,5,1,93,16,4
13,397,433.798449928872,0,0,622007.501801568,622008.548819726,5,0,76,8,8
13,398,492.236518650316,0,0,622010.03119499,622011.078269738,5,0,74,8,0
13,399,393.158349674195,0,0,622012.725351184,622013.772420926,5,0,75,4,16
13,400,492.499448009767,1,0,622015.243037513,622016.29011688,5,1,78,0,4
13,401,972.556853666902,0,0,622050.890671765,622051.937726109,6,0,61,0,8
13,402,491.816524649039,1,0,622053.961280421,622055.008401749,6,1,64,16,8
13,403,537.983145564795,0,0,622056.561325616,622057.608392664,6,0,69,0,4
13,404,448.370433179662,0,0,622059.231974847,622060.279020722,6,0,67,8,0
13,405,653.687457554042,1,0,622061.855501596,622062.902599826,6,1,68,8,16
13,406,446.613464620896,0,0,622064.608497374,622065.655572891,6,0,65,16,4
13,407,716.70927410014,0,0,622067.267391007,622068.314458825,6,0,100,8,8
13,408,656.931536039338,1,0,622070.079169395,622071.126247607,6,1,88,16,16
13,409,683.265276951715,0,0,622072.855686763,622073.902755351,6,0,71,8,0
13,410,732.85613884218,0,0,622075.63226226,622076.679268099,6,0,80,16,16
13,411,495.821673888713,0,0,622078.432242319,622079.479365187,6,0,96,0,16
13,412,535.972486715764,1,0,622081.044042342,622082.091115935,6,1,87,16,0
13,413,517.400358687155,0,0,622083.820555475,622084.867631378,6,0,70,0,0
13,414,440.793987363577,0,0,622086.444189629,622087.491202782,6,0,65,0,8
13,415,518.441681982949,0,0,622089.067735625,622090.114780731,6,0,63,8,8
13,416,600.120703456923,0,0,622091.808914981,622092.855982029,6,0,61,8,8
13,417,401.3276376063,1,0,622094.632476684,622095.679572605,6,1,68,16,0
13,418,656.433394644409,1,0,622097.091350762,622098.138420889,6,1,65,8,4
13,419,500.849668285809,1,0,622099.856128315,622100.90322693,6,1,61,0,8
13,420,397.713610320352,1,0,622102.550256406,622103.597323839,6,1,72,4,0
13,421,589.438765542582,1,0,622105.044407671,622106.091483189,6,1,81,8,4
13,422,494.839634746313,1,0,622107.809201393,622108.856231485,6,1,96,4,8
13,423,633.642848115414,0,0,622110.515073148,622111.562147896,6,0,89,4,4
13,424,417.571512982249,1,0,622113.315131355,622114.362199173,6,1,67,4,16
13,425,439.564032363705,0,0,622115.903397468,622116.950465671,6,0,77,4,4
13,426,446.670824079774,1,0,622118.527016223,622119.574092125,6,1,82,0,0
13,427,743.988097761758,1,0,622121.07998821,622122.127023691,6,1,61,16,4
13,428,677.5574387284,0,0,622123.962371405,622125.009418435,6,0,72,4,4
13,429,571.32358790841,1,0,622126.80943853,622127.856517897,6,1,61,16,0
13,430,474.530556006357,0,0,622129.527205625,622130.574194525,6,0,80,0,4
13,431,515.177200548351,1,0,622132.162463719,622133.209536926,6,1,82,16,8
13,432,518.854746827856,1,0,622134.750738302,622135.797816129,6,1,82,16,4
13,433,593.100528349169,0,0,622137.362548718,622138.409617691,6,0,70,4,16
13,434,684.213054482825,1,0,622140.162589217,622141.209658574,6,1,98,16,8
13,435,481.907591340132,0,0,622143.056748027,622144.103862811,6,0,95,4,0
13,436,392.712563159876,0,0,622145.703853726,622146.750930398,6,0,84,0,16
13,437,437.325090751983,1,0,622148.186237074,622149.233316441,6,1,83,0,4
13,438,650.299018016085,1,0,622150.880397887,622151.92746609,6,1,86,16,8
13,439,460.443240357563,1,0,622153.645139639,622154.692220546,6,1,75,8,4
13,440,636.341819656082,0,0,622156.186354488,622157.233432315,6,0,82,4,16
13,441,847.882146830671,1,0,622159.068759241,622160.115879799,6,1,90,8,4
13,442,654.508967301808,1,0,622162.10413267,622163.151173925,6,1,82,8,0
13,443,763.433705666102,0,0,622164.951189016,622165.998278777,6,0,67,8,16
13,444,779.548618360423,1,0,622167.915943009,622168.963023531,6,1,73,8,16
13,445,810.076525202021,1,0,622170.751289568,622171.798357386,6,1,69,4,0
13,446,721.923205303028,0,0,622173.692509268,622174.739578626,6,0,96,0,4
13,447,584.732984774746,0,0,622176.480791088,622177.527864295,6,0,80,4,8
13,448,566.654378315434,1,0,622179.186714813,622180.233782631,6,1,93,4,4
13,449,463.929845253006,0,0,622181.845613066,622182.892660096,6,0,96,8,8
13,450,593.078200472519,1,0,622184.457378057,622185.50445165,6,1,69,4,8
13,451,555.224458570592,0,0,622187.163298702,622188.210377299,6,0,80,16,0
13,452,459.46004637517,0,0,622189.786875881,622190.833948704,6,0,94,4,16
13,453,585.383571218699,0,0,622192.328091115,622193.375154314,6,0,69,8,0
13,454,412.341028219089,0,0,622194.986953567,622196.03401407,6,0,77,0,16
13,455,396.480575553142,1,0,622197.598757824,622198.645827952,6,1,86,0,4
13,456,518.542927224189,1,0,622200.104680471,622201.151749829,6,1,79,16,4
13,457,473.620119853877,0,0,622202.763537533,622203.81061767,6,0,70,0,0
13,458,767.084304476157,0,0,622205.32829399,622206.375360269,6,0,63,4,8
13,459,528.816419886425,1,0,622208.31656072,622209.363640857,6,1,70,8,4
13,460,334.928545635194,0,0,622210.928366902,622211.975439725,6,0,76,0,16
13,461,797.345817205496,0,0,622213.504877418,622214.551952165,6,0,99,4,0
13,462,610.838442808017,1,0,622216.528452518,622217.575523801,6,1,82,16,16
13,463,613.69486420881,0,0,622219.37555352,622220.422632887,6,0,70,4,8
13,464,471.972480649129,0,0,622222.14031067,622223.187379643,6,0,68,8,0
13,465,386.483870795928,1,0,622224.728572164,622225.775654611,6,1,77,0,8
13,466,570.326535147615,0,0,622227.36391726,622228.410988543,6,0,63,8,16
13,467,769.185044569895,0,0,622230.058068834,622231.105150895,6,0,91,16,16
13,468,396.864383132197,1,0,622233.046357506,622234.093440338,6,1,77,0,0
13,469,457.332743797451,1,0,622235.622865712,622236.6699343,6,1,79,0,0
13,470,491.950106574222,1,0,622238.31701844,622239.364092033,6,1,62,4,0
13,471,489.410124369897,1,0,622240.94058792,622241.987657663,6,1,89,8,8
13,472,503.347304766066,1,0,622243.493556057,622244.540656982,6,1,85,16,4
13,473,545.27394939214,1,0,622246.187723799,622247.234797007,6,1,72,16,0
13,474,494.845024193637,0,0,622248.964249637,622250.011323229,6,0,65,4,4
13,475,435.61123800464,1,0,622251.717222702,622252.764326321,6,1,64,0,16
13,476,424.632109119557,1,0,622254.411381204,622255.458459417,6,1,66,16,8
13,477,506.09247176908,1,0,622257.09377949,622258.140853467,6,1,70,4,16
13,478,502.633199328557,0,0,622259.823240588,622260.870299167,6,0,74,0,8
13,479,481.508770259097,0,0,622262.564444197,622263.611527413,6,0,87,16,16
13,480,449.899888946675,0,0,622265.293898366,622266.340973498,6,0,64,8,16
13,481,853.448318783194,0,0,622300.906212699,622301.953285906,7,0,79,8,4
13,482,578.016544925049,0,0,622303.941533003,622304.988624304,7,0,99,0,16
13,483,384.903984959237,0,0,622306.635706519,622307.682773567,7,0,77,16,8
13,484,370.965649839491,0,0,622309.082853486,622310.129882807,7,0,67,0,16
13,485,458.537291386165,1,0,622311.518118971,622312.565225285,7,1,65,8,0
13,486,623.251556884497,0,0,622314.165235063,622315.212307886,7,0,82,4,16
13,487,696.725488640368,1,0,622316.941800552,622317.98881563,7,1,64,0,4
13,488,621.209715958685,0,0,622319.718261715,622320.765337617,7,0,79,16,4
13,489,806.712723337114,1,0,622322.435949893,622323.483017326,7,1,76,16,4
13,490,684.838233399205,1,0,622325.447757461,622326.494840677,7,1,100,4,16
13,491,393.598746741191,0,0,622328.341920891,622329.388995253,7,0,65,4,4
13,492,665.359903709032,1,0,622330.836066382,622331.883154603,7,1,71,4,0
13,493,503.694540821016,0,0,622333.600816218,622334.647891735,7,0,83,0,4
13,494,600.863680941984,1,0,622336.165564976,622337.212639724,7,1,99,16,8
13,495,574.333994183689,1,0,622338.895022995,622339.942093893,7,1,86,16,8
13,496,565.010203863494,1,0,622341.530358467,622342.577433984,7,1,95,16,0
13,497,589.535776060075,0,0,622344.259810327,622345.306882764,7,0,63,16,0
13,498,644.769032485783,1,0,622347.024558623,622348.07163337,7,1,70,16,16
13,499,516.005639685318,1,0,622349.730485043,622350.777602521,7,1,69,0,0
13,500,452.664304291829,1,0,622352.412869469,622353.459948066,7,1,87,4,0
13,501,580.227769212797,1,0,622355.001149057,622356.048223804,7,1,61,4,4
13,502,559.815135668032,0,0,622357.683576599,622358.73061747,7,0,93,8,8
13,503,528.218573192135,1,0,622360.307102578,622361.354190414,7,1,88,16,16
13,504,596.600606921129,0,0,622362.930677062,622363.977749499,7,0,95,0,0
13,505,653.827198897488,0,0,622365.695529298,622366.742523973,7,0,99,0,0
13,506,635.657741455361,0,0,622368.58962921,622369.636673545,7,0,63,16,0
13,507,412.786814733408,0,0,622371.389629671,622372.436706729,7,0,87,0,16
13,508,506.706486921757,1,0,622374.048502902,622375.095566485,7,1,89,8,16
13,509,528.0557340011,1,0,622376.813241574,622377.860320171,7,1,87,8,4
13,510,447.743714321405,0,0,622379.401525396,622380.448602453,7,0,83,0,4
13,511,535.211031092331,1,0,622382.025089871,622383.072159614,7,1,81,8,0
13,512,523.957038996741,1,0,622384.719242599,622385.766318117,7,1,61,4,8
13,513,580.528424936347,1,0,622387.307522572,622388.35459039,7,1,99,16,4
13,514,400.099607533775,0,0,622390.036770615,622391.084031086,7,0,95,0,4
13,515,473.104655044153,0,0,622392.589949883,622393.637025016,7,0,69,0,8
13,516,571.225422434509,1,0,622395.201792637,622396.24885545,7,1,92,4,8
13,517,400.258596986532,1,0,622397.942972377,622398.99004366,7,1,75,0,8
13,518,605.656463303603,0,0,622400.425426174,622401.472433553,7,0,63,8,16
13,519,472.839031019248,1,0,622403.237172995,622404.284295478,7,1,63,0,16
13,520,477.183717186563,0,0,622405.907805288,622406.954871567,7,0,62,0,16
13,521,780.603415565565,0,0,622408.625491541,622409.672561669,7,0,100,4,4
13,522,468.708384083584,1,0,622411.590228596,622412.637351079,7,1,96,8,16
13,523,558.147863368504,0,0,622414.260871668,622415.307938716,7,0,63,8,0
13,524,502.466125646606,0,0,622416.884434603,622417.93151474,7,0,73,4,16
13,525,544.335025944747,1,0,622419.519772,622420.566848287,7,1,71,8,16
13,526,648.68949004449,1,0,622422.296300917,622423.343359881,7,1,90,8,8
13,527,622.543225879781,0,0,622425.096326401,622426.143399994,7,0,63,4,8
13,528,697.05193687696,0,0,622427.966948608,622429.014032595,7,0,76,8,0
13,529,633.109290036373,1,0,622430.731705374,622431.778776271,7,1,97,8,4
13,530,694.894607411698,0,0,622433.472916296,622434.520001052,7,0,98,4,4
13,531,534.562369342893,0,0,622436.308263625,622437.355337217,7,0,76,4,16
13,532,597.845960408449,1,0,622439.073066585,622440.120083588,7,1,70,8,16
13,533,510.260845185257,0,0,622441.802457236,622442.849534678,7,0,64,4,8
13,534,519.586560316384,0,0,622444.508369027,622445.555467257,7,0,64,4,8
13,535,674.943928606808,0,0,622447.190787331,622448.237855919,7,0,92,4,16
13,536,483.463224489242,1,0,622450.120235649,622451.167308856,7,1,68,0,8
13,537,504.221169394441,0,0,622452.75557574,622453.802640093,7,0,73,0,8
13,538,626.97183387354,0,0,622455.390991284,622456.43797595,7,0,88,8,0
13,539,448.449350544252,1,0,622458.167422805,622459.214495243,7,1,77,4,0
13,540,453.139347955585,0,0,622460.861575918,622461.908647201,7,0,77,8,4
13,541,520.163619075902,0,0,622463.508664678,622464.555747125,7,0,70,16,16
13,542,602.848932379857,1,0,622466.144007464,622467.191077592,7,1,66,16,16
13,543,486.842809827067,1,0,622468.908756915,622469.955882093,7,1,79,8,8
13,544,626.278516487218,0,0,622471.626440088,622472.673514836,7,0,92,0,4
13,545,598.770640208386,0,0,622474.45001796,622475.497091552,7,0,100,16,8
13,546,588.445177534595,0,0,622477.297132435,622478.344206028,7,0,68,8,8
13,547,510.937609244138,0,0,622480.073631325,622481.120701838,7,0,66,16,8
13,548,627.706342260353,1,0,622482.767829864,622483.814886518,7,1,91,8,4
13,549,678.865926107392,1,0,622485.56783918,622486.614901994,7,1,95,16,16
13,550,399.857081123628,1,0,622488.332576313,622489.379659914,7,1,66,4,4
13,551,447.470776038244,1,0,622490.909094912,622491.956166965,7,1,78,4,0
13,552,637.813916080631,1,0,622493.485601963,622494.5327333,7,1,77,0,0
13,553,666.878965566866,1,0,622496.238583113,622497.285717529,7,1,83,16,0
13,554,551.792133366689,1,0,622499.038691749,622500.085707212,7,1,90,16,4
13,555,466.726982383989,1,0,622501.779844542,622502.82691544,7,1,88,0,8
13,556,378.985957358964,1,0,622504.403419796,622505.45048338,7,1,67,0,0
13,557,432.968470733613,1,0,622507.003448052,622508.050530114,7,1,86,4,0
13,558,619.133613537997,0,0,622509.556436208,622510.60351211,7,0,61,16,4
13,559,547.098671318963,0,0,622512.262357623,622513.309446999,7,0,97,8,8
13,560,541.908992570825,0,0,622515.015338387,622516.062412365,7,0,70,16,0
13,561,464.842206216417,0,0,622538.427471095,622539.474590883,8,0,78,4,0
13,562,615.238563506864,0,0,622541.003970446,622542.051056743,8,0,64,8,4
13,563,664.105696021579,0,0,622543.745189453,622544.792261891,8,0,100,16,16
13,564,538.827368291095,0,0,622546.639412553,622547.686425706,8,0,73,4,0
13,565,495.095249731094,0,0,622549.40409887,622550.451169383,8,0,63,0,8
13,566,470.822982722893,1,0,622552.098260837,622553.14533366,8,1,68,4,8
13,567,549.114719498903,1,0,622554.663005361,622555.710078569,8,1,90,0,16
13,568,701.129458961077,1,0,622557.310094506,622558.357176568,8,1,61,16,16
13,569,674.280253471807,0,0,622560.12191293,622561.168981903,8,0,92,4,4
13,570,642.504683462903,0,0,622562.933715955,622563.980790318,8,0,75,8,4
13,571,532.162128482014,1,0,622565.674934577,622566.722008555,8,1,80,0,16
13,572,588.967956486158,1,0,622568.322036426,622569.369105399,8,1,92,8,0
13,573,577.171937329695,0,0,622571.086779718,622572.133857545,8,0,65,8,8
13,574,367.63072013855,0,1,622573.816264684,622574.863366764,8,1,93,0,8
13,575,386.615528026596,0,0,622576.369268238,622577.416373782,8,0,76,4,4
13,576,554.513817885891,0,0,622578.957485077,622580.004567908,8,0,64,16,0
13,577,530.611884780228,1,0,622581.769307735,622582.816365544,8,1,78,16,0
13,578,403.797556762584,0,0,622584.428209068,622585.475244549,8,0,77,8,0
13,579,551.703977049328,0,0,622586.922320682,622587.969395814,8,0,68,16,8
13,580,473.679789109156,0,0,622589.628324094,622590.675316845,8,0,65,4,8
13,581,706.762999529019,0,0,622592.181226018,622593.228298071,8,0,98,8,8
13,582,494.732230203226,0,0,622594.993130289,622596.040137283,8,0,72,0,0
13,583,438.009939040057,1,0,622597.746007498,622598.793115352,8,1,87,0,0
13,584,457.795083639212,1,0,622600.346054618,622601.393120896,8,1,75,0,16
13,585,657.522068358958,1,0,622602.887281786,622603.934363462,8,1,73,8,0
13,586,724.924372625537,0,0,622605.652072043,622606.699083271,8,0,78,16,0
13,587,644.271661061794,1,0,622608.522633041,622609.569719722,8,1,88,8,0
13,588,525.917267659679,1,0,622611.310929105,622612.358036959,8,1,83,0,0
13,589,619.506257236935,1,0,622613.993346638,622615.040398672,8,1,81,8,8
13,590,891.10034040641,0,0,622616.72277001,622617.769848992,8,0,80,4,4
13,591,482.896944857202,1,0,622619.816977249,622620.86401658,8,1,95,8,8
13,592,651.263348991051,0,0,622622.534620386,622623.581696673,8,0,78,16,0
13,593,585.540250991471,1,0,622625.358200568,622626.405260302,8,1,91,0,8
13,594,735.679068369791,0,0,622628.170011292,622629.217085655,8,0,64,16,16
13,595,592.237827484496,1,0,622631.052403341,622632.099471544,8,1,73,0,4
13,596,504.096056567505,1,0,622633.746561459,622634.793630817,8,1,84,4,0
13,597,474.813118460588,0,1,622636.476011009,622637.523076517,8,1,98,8,16
13,598,416.318075265735,0,0,622639.064285977,622640.111361494,8,0,86,0,8
13,599,488.456572405994,1,1,622641.676087155,622642.723164212,8,0,93,8,4
13,600,592.782549443655,0,0,622644.287956471,622645.334966544,8,0,100,16,8
13,601,569.256724556908,0,0,622647.123232196,622648.170307329,8,0,88,16,16
13,602,497.353824437596,0,0,622649.77033135,622650.817403018,8,0,77,16,8
13,603,549.690238432959,1,0,622652.393913919,622653.440971343,8,1,74,0,8
13,604,631.441247765906,0,0,622655.135122916,622656.182190349,8,0,61,4,8
13,605,565.860200906172,1,0,622657.852868068,622658.899882376,8,1,78,16,8
13,606,674.614015850239,0,0,622660.65286237,622661.69992095,8,0,84,8,16
13,607,503.878167946823,0,0,622663.417598348,622664.46467271,8,0,65,8,4
13,608,486.387014272623,0,0,622665.994157369,622667.041180146,8,0,68,0,16
13,609,654.669881565496,1,0,622668.558858776,622669.605928904,8,1,78,4,16
13,610,529.898934299126,1,0,622671.429486758,622672.476553806,8,1,80,0,0
13,611,505.100808572024,1,0,622674.182463673,622675.229540345,8,1,65,4,16
13,612,721.585978288203,0,0,622676.864865038,622677.911930161,8,0,85,0,0
13,613,578.321050154045,1,0,622679.700203512,622680.74726979,8,1,80,4,4
13,614,727.242616470903,1,0,622682.500250169,622683.547325302,8,1,73,16,4
13,615,574.354782234877,0,0,622685.359099455,622686.406184596,8,0,70,4,4
13,616,590.173273929395,0,0,622688.112093693,622689.159162281,8,0,96,8,0
13,617,543.874610797502,0,0,622690.947431397,622691.994543486,8,0,98,8,4
13,618,772.712840349413,1,0,622693.64159067,622694.688659258,8,1,63,16,8
13,619,550.565258134156,0,0,622696.488694752,622697.535762955,8,0,72,4,8
13,620,520.558975404128,1,0,622699.241672051,622700.288743334,8,1,96,0,16
13,621,576.057855971158,0,0,622701.971123911,622703.018200583,8,0,71,0,4
13,622,538.557894527912,1,0,622704.688817863,622705.735885296,8,1,68,8,16
13,623,746.961162774824,1,0,622707.32414525,622708.371223462,8,1,90,16,16
13,624,558.104362571612,0,0,622710.230080062,622711.277152115,8,0,98,8,16
13,625,669.649155228399,0,0,622712.865423618,622713.912536477,8,0,83,4,0
13,626,601.560462964699,1,0,622715.712530779,622716.759580504,8,1,79,8,16
13,627,584.200966637582,0,0,622718.536110961,622719.583157991,8,0,61,4,16
13,628,545.141907176003,1,0,622721.194952239,622722.242021597,8,1,79,0,4
13,629,683.888916042633,0,0,622723.983242144,622725.030301108,8,0,70,4,8
13,630,683.340729563497,1,0,622726.900922545,622727.947984973,8,1,82,16,4
13,631,540.587031631731,1,0,622729.724487328,622730.771564,8,1,80,4,16
13,632,493.028386379592,1,0,622732.442173195,622733.489248713,8,1,67,16,4
13,633,469.531818642281,1,0,622735.030464332,622736.077551783,8,1,86,8,8
13,634,389.78646369651,1,0,622737.736399606,622738.7834501,8,1,87,4,0
13,635,445.881651015952,1,0,622740.254062837,622741.301134505,8,1,67,4,16
13,636,876.807839842513,1,0,622742.842335111,622743.889412553,8,1,76,0,4
13,637,1215.88699426502,0,0,622745.960047771,622747.007117899,8,0,99,16,4
13,638,646.764292847365,1,0,622749.395374081,622750.442446904,8,1,98,16,4
13,639,484.989600721747,1,0,622752.17188452,622753.218961962,8,1,83,0,4
13,640,508.91078193672,0,0,622754.760173346,622755.807231925,8,0,85,16,0
13,641,744.706437690184,0,0,622790.396004265,622791.443070543,9,0,90,8,16
13,642,562.474841135554,1,0,622793.231340814,622794.278408247,9,1,88,16,16
13,643,641.195811214857,1,0,622795.866672821,622796.913739869,9,1,73,16,16
13,644,531.220125383697,1,0,622798.584356379,622799.631431896,9,1,89,0,4
13,645,462.64753525611,1,0,622801.207937407,622802.255000991,9,1,74,0,16
13,646,831.643926678225,0,0,622803.925717976,622804.996019936,9,0,63,8,8
13,647,485.776848858222,1,0,622806.97271958,622808.019793943,9,1,94,0,16
13,648,617.809342686087,1,0,622809.513967536,622810.561014566,9,1,73,4,0
13,649,948.009723331779,0,0,622812.337506912,622813.384578579,9,0,78,16,4
13,650,692.048579920083,1,0,622815.443443186,622816.490516779,9,1,82,16,8
13,651,489.1009995481,1,0,622818.349354516,622819.396451206,9,1,65,16,0
13,652,463.914831634611,1,0,622820.937643342,622821.98471655,9,1,69,0,0
13,653,528.147740173154,1,0,622823.608262162,622824.655338834,9,1,90,0,4
13,654,447.49271881301,1,0,622826.220072579,622827.267153485,9,1,98,0,8
13,655,593.686441075988,0,0,622828.890722965,622829.937832744,9,0,63,0,8
13,656,563.912675948814,1,0,622831.655448933,622832.702524066,9,1,98,16,0
13,657,611.441293964162,0,0,622834.479026805,622835.526092313,9,0,89,0,4
13,658,506.756532122381,1,0,622837.149675651,622838.19673346,9,1,74,0,8
13,659,431.348933838308,1,0,622839.832048144,622840.879117502,9,1,67,4,4
13,660,395.204809959978,1,0,622842.326254844,622843.373270693,9,1,65,0,8
13,661,653.770224424079,1,0,622844.902719165,622845.949786213,9,1,94,4,0
13,662,685.339069459587,0,0,622847.643926622,622848.69099906,9,0,95,0,0
13,663,687.878666794859,1,0,622850.514604264,622851.561636665,9,1,70,4,0
13,664,449.472965672612,0,0,622853.444017935,622854.491091913,9,0,78,0,16
13,665,491.851941216737,1,0,622856.079349557,622857.12642007,9,1,80,4,16
13,666,523.090873495676,0,0,622858.738211239,622859.785286371,9,0,65,0,16
13,667,590.652937185951,0,0,622861.467660404,622862.514736691,9,0,74,0,4
13,668,713.476744364016,1,0,622864.114766872,622865.161839695,9,1,81,4,16
13,669,605.197203112766,1,0,622866.950099957,622867.99717278,9,1,87,4,4
13,670,546.913119382225,1,0,622869.785486937,622870.832523188,9,1,74,16,4
13,671,539.887939812616,0,0,622872.397245383,622873.444324365,9,0,65,16,0
13,672,555.526654119603,0,0,622875.173760827,622876.220830185,9,0,87,4,16
13,673,595.513857901096,1,0,622877.985562697,622879.032641679,9,1,90,8,8
13,674,579.330036765896,1,0,622880.67972197,622881.726790173,9,1,96,8,8
13,675,828.555492334999,0,0,622883.491523071,622884.538603978,9,0,92,16,8
13,676,840.910476981662,0,0,622886.40922195,622887.456288228,9,0,67,16,16
13,677,585.867468966171,0,0,622889.503505797,622890.550483149,9,0,83,0,16
13,678,876.685806666501,0,0,622892.150488307,622893.19756036,9,0,99,4,0
13,679,614.252674742602,1,0,622895.232889133,622896.279948097,9,1,87,16,0
13,680,766.036051791161,1,0,622898.079987055,622899.127057183,9,1,93,16,4
13,681,546.743350918405,1,0,622900.974152411,622902.021275663,9,1,85,8,0
13,682,567.237211507745,0,0,622903.644780084,622904.691845977,9,0,74,8,16
13,683,516.214289353229,0,0,622906.444817887,622907.49189071,9,0,93,8,4
13,684,410.025094170123,0,0,622909.033092085,622910.080173762,9,0,84,0,0
13,685,517.9096639622,0,0,622911.691961851,622912.739030824,9,0,95,16,4
13,686,604.600511374883,0,0,622914.468469595,622915.515541263,9,0,90,4,4
13,687,574.170770123601,1,0,622917.197922609,622918.245000052,9,1,92,8,16
13,688,666.070159408264,1,0,622919.997965417,622921.045043244,9,1,91,16,8
13,689,589.905340108089,1,0,622922.892159645,622923.939207445,9,1,89,4,8
13,690,666.472060256638,1,0,622925.574519434,622926.621592256,9,1,84,8,0
13,691,457.701537874527,1,0,622928.398125408,622929.445171668,9,1,64,8,4
13,692,669.511723564938,0,0,622930.939312924,622931.986382667,9,0,92,4,8
13,693,534.362958744168,0,0,622933.833473275,622934.880541863,9,0,74,0,0
13,694,467.412215424702,1,0,622936.480573969,622937.527643327,9,1,73,8,16
13,695,477.936318726279,1,0,622939.115907516,622940.163040778,9,1,74,8,0
13,696,532.773833838291,1,0,622941.704176709,622942.751247222,9,1,73,4,4
13,697,719.305460806936,1,0,622944.445385322,622945.492473543,9,1,100,4,8
13,698,632.489885552786,0,0,622947.398386027,622948.44545654,9,0,73,8,0
13,699,593.353833653964,0,0,622950.092541835,622951.139618508,9,0,72,4,8
13,700,608.027447131462,1,0,622952.892587338,622953.939657081,9,1,98,8,0
13,701,560.702859074809,0,0,622955.716147117,622956.763232643,9,0,89,16,16
13,702,627.033812808804,0,0,622958.492665639,622959.539738462,9,0,61,16,8
13,703,582.574115251191,0,0,622961.328048769,622962.375082711,9,0,82,16,16
13,704,518.847432453185,0,0,622964.080998352,622965.1280577,9,0,67,8,8
13,705,575.945831951685,0,0,622966.751618711,622967.798686529,9,0,92,0,0
13,706,688.928844290785,0,0,622969.398714015,622970.445850357,9,0,88,16,4
13,707,555.933559429832,0,0,622972.198754898,622973.245851973,9,0,100,4,16
13,708,504.344357410446,0,0,622974.881150874,622975.928228316,9,0,66,0,8
13,709,492.972951731645,0,0,622977.563544539,622978.610621212,9,0,69,0,4
13,710,690.432122675702,1,0,622980.140059675,622981.187131342,9,1,61,4,8
13,711,525.577730848454,1,0,622982.99891666,622984.046001031,9,1,80,16,0
13,712,373.214600491337,0,0,622985.775432488,622986.82250993,9,0,76,4,4
13,713,406.443403684534,0,0,622988.246099889,622989.293129211,9,0,76,8,4
13,714,459.080473403446,0,0,622990.822570754,622991.869643576,9,0,75,8,16
13,715,494.653312838636,1,0,622993.363790607,622994.410855731,9,1,67,4,0
13,716,679.859899100848,0,0,622996.069714332,622997.116830271,9,0,91,8,8
13,717,731.428313185461,0,0,622998.799162727,622999.846235165,9,0,100,8,4
13,718,638.683931203559,1,0,623001.716853523,623002.76392596,9,1,81,16,8
13,719,606.06683336664,0,0,623004.540464501,623005.587498442,9,0,81,4,16
13,720,568.4606222203,0,0,623007.316939908,623008.364009266,9,0,90,8,4
