sub_id,Trial,RT,Resp,Error,Fix_onset,Disp_onset,block,tid,tloc,fish_setsize,bird_setsize
5,1,535.845099544531,0,0,17511.3025696097,17512.3496539812,1,0,76,4,0
5,2,732.753774133016,0,0,17513.9026151893,17514.9497215036,1,0,84,16,4
5,3,707.235383710213,1,0,17516.7261969106,17517.773261264,1,1,91,16,4
5,4,722.052588145743,1,0,17519.6674196899,17520.7145479471,1,1,69,4,16
5,5,553.412475670484,1,0,17522.5968660832,17523.6439508396,1,1,72,4,8
5,6,454.237296205974,1,0,17525.2322123338,17526.2792789969,1,1,73,4,8
5,7,657.819679709064,1,0,17527.8675454957,17528.9146167784,1,1,61,0,4
5,8,1048.43106165936,0,0,17530.7499379295,17531.7970172964,1,0,87,0,8
5,9,1035.18296414404,0,0,17533.9970549457,17535.0441258435,1,0,86,16,0
5,10,711.342163052905,1,0,17537.2088685962,17538.2559418037,1,1,90,4,16
5,11,657.924004528468,1,0,17540.0912660345,17541.138339627,1,1,67,16,0
5,12,467.200906474318,1,0,17542.8089588314,17543.8560304991,1,1,65,0,0
5,13,725.920305809268,0,0,17545.3384099981,17546.385530941,1,0,73,0,4
5,14,443.919532805012,0,0,17548.197277762,17549.2443929304,1,0,86,4,16
5,15,613.133239316085,1,0,17550.8561425231,17551.9032130359,1,1,93,0,8
5,16,595.459228592517,1,0,17553.6326591212,17554.6797334836,1,1,66,0,16
5,17,996.355652136117,0,0,17556.385643735,17557.4327154027,1,0,67,16,0
5,18,854.695632486255,0,0,17559.5504473118,17560.597472014,1,0,64,0,8
5,19,724.425496642652,0,0,17562.6445663945,17563.6916330577,1,0,88,0,0
5,20,616.994797583175,0,0,17565.4681396467,17566.5152140091,1,0,89,8,4
5,21,866.421588503727,0,0,17568.2446554748,17569.2917252177,1,0,88,8,4
5,22,665.193250340963,1,0,17571.2799942572,17572.3270697745,1,1,79,8,8
5,23,688.02036832858,1,0,17574.0329781011,17575.0800555432,1,1,91,16,4
5,24,889.327238830447,0,0,17576.8918485597,17577.9389248469,1,0,79,4,8
5,25,666.978321190982,1,0,17579.9860157627,17581.0330878154,1,1,91,4,0
5,26,522.122343340016,1,0,17582.738995757,17583.7860689645,1,1,96,16,16
5,27,716.2100131427,1,0,17585.3978605181,17586.4449321858,1,1,90,16,8
5,28,792.590026510879,0,0,17588.2802845188,17589.3273342437,1,0,78,8,4
5,29,760.081873009767,0,0,17591.3038334414,17592.3509143482,1,0,94,16,0
5,30,771.554523736995,1,0,17594.2333006226,17595.2803680557,1,1,83,8,16
5,31,662.659427540348,1,0,17597.2333364241,17598.2804188707,1,1,64,16,8
5,32,586.139672806894,1,0,17600.0098607214,17601.0569289244,1,1,83,8,8
5,33,519.039564092964,1,0,17602.6569571807,17603.7040638799,1,1,87,4,4
5,34,796.819608873193,0,0,17605.4099452591,17606.4570477238,1,0,81,16,16
5,35,634.853205316176,0,0,17608.3629274862,17609.4100345704,1,0,87,4,0
5,36,645.649861991842,0,0,17611.1512062267,17612.1982778944,1,0,72,8,8
5,37,607.054682339367,0,0,17613.9277197451,17614.9747937225,1,0,87,8,16
5,38,536.501460508589,1,0,17616.5983493434,17617.6454210111,1,1,83,0,16
5,39,679.067681754532,0,0,17619.3278081324,17620.3748898092,1,0,97,8,0
5,40,449.622366435506,1,0,17622.2102036459,17623.2572695392,1,1,86,4,16
5,41,653.135071737779,0,0,17624.7867187811,17625.8337896789,1,0,88,16,16
5,42,619.0551165746,0,0,17627.5867592792,17628.6338274822,1,0,100,8,4
5,43,801.749052956438,1,0,17630.4220958287,17631.469171731,1,1,74,8,16
5,44,737.455705413595,1,0,17633.4103783419,17634.4574580938,1,1,70,0,16
5,45,564.719207588496,1,0,17636.3280729866,17637.3751485039,1,1,84,0,16
5,46,592.709056898457,1,0,17638.9869377478,17640.0340101854,1,1,98,16,8
5,47,703.268730700074,1,0,17641.8222827665,17642.8693467349,1,1,82,8,4
5,48,553.511795984377,0,0,17644.6811478356,17645.7282171935,1,0,85,0,0
5,49,681.03022028663,0,0,17647.4105981554,17648.4576682833,1,0,69,0,4
5,50,979.784173850931,1,0,17650.1989084629,17651.2459477937,1,1,90,4,0
5,51,734.792150273279,0,0,17653.3636319675,17654.4107109494,1,0,100,16,16
5,52,794.121792070655,0,0,17656.3283844212,17657.3754618633,1,0,82,0,16
5,53,747.605240227131,0,0,17659.3049001723,17660.3519810791,1,0,90,0,4
5,54,789.72706082277,1,0,17662.1167182114,17663.1638337648,1,1,70,8,0
5,55,918.371885232773,0,0,17665.0932370422,17666.1403048603,1,0,85,8,0
5,56,736.093323328532,0,0,17668.0932763084,17669.1403510558,1,0,78,16,4
5,57,684.539537916862,1,0,17671.0580249125,17672.1050996599,1,1,81,4,4
5,58,743.193570629956,1,0,17673.9051343835,17674.9522095158,1,1,98,16,8
5,59,586.188948000199,1,0,17676.9051825038,17677.9522861234,1,1,71,0,0
5,60,628.547135536792,0,0,17679.728755371,17680.7758228041,1,0,66,4,16
5,61,818.169241003488,0,0,17682.4582076157,17683.5052842879,1,0,92,0,0
5,62,615.250532751816,1,0,17685.4700190334,17686.5170930108,1,1,88,4,4
5,63,591.29547480552,1,0,17688.1759442983,17689.2230178908,1,1,70,8,0
5,64,549.919326462259,1,0,17691.0112866223,17692.05835752,1,1,80,0,8
5,65,612.379097889061,1,0,17693.6348514823,17694.6819243049,1,1,87,8,8
5,66,478.636600808386,1,0,17696.4937265604,17697.5407989981,1,1,66,4,8
5,67,703.046222402918,0,0,17699.1761171464,17700.223189584,1,0,69,8,8
5,68,726.128185528069,1,0,17702.0349891449,17703.0820534983,1,1,81,16,8
5,69,980.231115248898,0,0,17704.8820901467,17705.929165664,1,0,71,0,8
5,70,606.827554496704,1,0,17708.023313234,17709.0704368716,1,1,73,4,0
5,71,589.170482122427,0,0,17710.7410037211,17711.788083473,1,0,82,4,8
5,72,657.736142857175,0,0,17713.57634643,17714.6234223323,1,0,64,4,4
5,73,714.215907690232,0,0,17716.4940379951,17717.5411112026,1,0,89,16,4
5,74,725.39021252669,0,0,17719.3529042191,17720.3999805063,1,0,100,8,16
5,75,948.298095634527,0,0,17722.1647080145,17723.2117839168,1,0,66,8,0
5,76,658.892185070727,0,0,17725.2471173096,17726.294182433,1,0,62,16,16
5,77,619.616006857541,1,0,17728.0354341614,17729.0824823464,1,1,76,0,4
5,78,499.220542638795,0,0,17730.7177850963,17731.7648621535,1,0,76,8,16
5,79,657.4770631305,0,0,17733.282538474,17734.3296101416,1,0,64,4,4
5,80,730.748889731331,1,0,17736.047287925,17737.0943542032,1,1,64,16,0
5,81,435.664783137327,1,0,17772.0243214506,17773.0713896536,2,1,76,0,0
5,82,438.114684126049,1,0,17774.5537741572,17775.6008385106,2,1,64,8,16
5,83,497.205264251534,0,1,17777.2126285244,17778.2597078913,2,1,61,8,0
5,84,914.858333013399,0,0,17779.8009135013,17780.8479944081,2,0,88,8,0
5,85,816.621691981709,0,0,17782.8833124024,17783.9303867649,2,0,63,0,16
5,86,647.002620018611,0,0,17785.8127711145,17786.859844322,2,0,74,8,0
5,87,615.753678666806,1,0,17788.6128154621,17789.6599352501,2,1,72,4,8
5,88,792.864119772275,1,0,17791.3657900669,17792.4128713587,2,1,100,8,16
5,89,706.965525037958,1,0,17794.2717252639,17795.3188023211,2,1,70,4,4
5,90,783.027559427865,0,0,17797.2247144203,17798.271786088,2,0,100,16,16
5,91,585.641916371969,1,0,17800.1541735172,17801.2012432601,2,1,77,8,0
5,92,614.762400375184,0,0,17802.8248023457,17803.8718705487,2,0,82,0,16
5,93,491.908950956713,1,0,17805.6366088358,17806.6836770389,2,1,66,0,4
5,94,606.267049181042,1,0,17808.2484130932,17809.2954859158,2,1,88,4,0
5,95,590.004695735843,0,0,17811.0484609056,17812.0955302635,2,0,79,8,4
5,96,594.847908232623,1,0,17813.7308553412,17814.7779227743,2,1,95,16,8
5,97,580.2547519379,0,0,17816.5661814967,17817.6132635584,2,0,63,16,16
5,98,564.422401545016,1,0,17819.3662373933,17820.4133098309,2,1,100,0,16
5,99,663.852811114339,1,0,17822.095740453,17823.1427663101,2,1,72,4,16
5,100,757.569223140308,0,0,17824.8839691484,17825.9310400461,2,0,90,16,16
5,101,613.838875473448,1,0,17827.7075412457,17828.7546094487,2,1,95,16,4
5,102,673.221257129626,0,0,17830.4252282681,17831.4722964712,2,0,70,4,4
5,103,786.504155246803,0,0,17833.2958658737,17834.3429352316,2,0,63,4,4
5,104,652.440214525996,0,0,17836.2959093745,17837.3429787324,2,0,100,0,4
5,105,767.46737747817,1,0,17839.0018377191,17840.0489124665,2,1,98,0,0
5,106,699.414486716705,0,0,17841.8371638747,17842.8842401619,2,0,80,16,8
5,107,627.285998572916,0,0,17844.637222466,17845.6842898991,2,0,97,0,8
5,108,478.108047373098,0,0,17847.4843176934,17848.5313928257,2,0,66,4,0
5,109,875.441258547653,0,0,17850.0608328286,17851.1078994917,2,0,62,4,4
5,110,657.37543304931,1,0,17853.0608774842,17854.1079453023,2,1,96,4,0
5,111,686.862016336818,1,0,17855.8373929274,17856.884465365,2,1,62,0,4
5,112,765.686156253651,0,0,17858.6845312705,17859.7315709863,2,0,70,16,4
5,113,808.733811525599,0,0,17861.6257140137,17862.6727860664,2,0,90,8,16
5,114,686.773859935784,1,0,17864.5904826359,17865.6375997292,2,1,83,8,8
5,115,590.008545361343,1,0,17867.4022791171,17868.4493519396,2,1,94,16,16
5,116,750.826605948532,1,0,17870.1435015884,17871.190563632,2,1,80,4,8
5,117,535.653773211379,0,0,17873.0964876651,17874.1435550982,2,0,72,8,8
5,118,571.213524006453,1,0,17875.8259414496,17876.873005803,2,1,75,4,16
5,119,489.695416908944,1,0,17878.4965648885,17879.5436373261,2,1,86,16,4
5,120,559.046785991086,1,0,17881.1671971816,17882.2142946418,2,1,74,16,0
5,121,849.820468109101,0,0,17883.9554755372,17885.0025468199,2,0,81,16,0
5,122,968.93246754189,0,0,17887.0261096012,17888.0731858884,2,0,70,8,16
5,123,672.71349166549,1,0,17890.1673384629,17891.2144185997,2,1,95,0,0
5,124,904.982506501256,1,0,17893.0733106162,17894.120340708,2,1,69,16,16
5,125,774.976069926197,0,0,17896.1321348023,17897.1792041602,2,0,81,8,16
5,126,702.8391126114,1,0,17899.0733648959,17900.1204253997,2,1,92,16,0
5,127,619.599068508251,0,0,17902.0145819008,17903.061648564,2,0,81,0,8
5,128,799.71029185981,0,0,17904.8263918556,17905.8734581338,2,0,72,0,0
5,129,657.504010505363,1,0,17907.826429197,17908.8735097188,2,1,68,16,0
5,130,589.558909228799,1,0,17910.5794134258,17911.6264897131,2,1,76,4,0
5,131,628.22030242387,0,0,17913.3206316626,17914.3677117994,2,0,91,8,4
5,132,561.093246335076,0,0,17916.1089142527,17917.1559882302,2,0,63,0,8
5,133,619.162136135856,1,0,17918.8618957869,17919.9089689944,2,1,79,4,8
5,134,563.113529238763,1,0,17921.6737042018,17922.7207777943,2,1,81,4,4
5,135,695.681890869309,1,0,17924.2973075581,17925.3443522784,2,1,72,8,4
5,136,711.86455708812,0,0,17927.062027367,17928.1091071189,2,0,69,8,8
5,137,724.019361266983,0,0,17929.9679575595,17931.0150334617,2,0,97,8,4
5,138,667.435656570888,1,0,17932.8032925692,17933.850363082,2,1,94,4,16
5,139,612.446466315305,1,0,17935.6974559996,17936.7445330568,2,1,67,8,4
5,140,618.875339117949,0,0,17938.3798465856,17939.4269301871,2,0,76,4,8
5,141,489.506400350365,1,0,17941.0622414061,17942.1093146137,2,1,85,0,4
5,142,652.755883729697,0,0,17943.7328733143,17944.7800038812,2,0,88,16,8
5,143,650.494999303191,0,0,17946.5211589841,17947.5682217977,2,0,87,0,8
5,144,648.349988568953,1,0,17949.4035498781,17950.4506280901,2,1,85,4,16
5,145,624.545065977145,0,0,17952.2271219754,17953.2742009574,2,0,75,4,16
5,146,696.121517979918,1,0,17954.9095210305,17955.956595008,2,1,100,8,8
5,147,760.536898611463,0,0,17957.6742685568,17958.7213433042,2,0,84,16,4
5,148,539.437569066649,1,0,17960.5331386304,17961.5802102981,2,1,71,0,4
5,149,565.360939981474,0,0,17963.1684767968,17964.2155469246,2,0,72,8,8
5,150,458.80834025229,1,0,17965.9567509178,17967.0038645464,2,1,77,4,0
5,151,595.511198520398,0,0,17968.5920836947,17969.6391580571,2,0,88,16,4
5,152,500.09902693273,1,0,17971.4274290984,17972.4744938368,2,1,73,0,8
5,153,674.278363996564,0,0,17974.1804090927,17975.2274830702,2,0,96,0,16
5,154,472.230055827822,1,0,17976.9333933216,17977.9804599847,2,1,66,0,16
5,155,786.581147738616,1,0,17979.5099019124,17980.5569758898,2,1,88,16,8
5,156,714.383751317655,0,0,17982.4981871203,17983.5452595579,2,0,79,4,8
5,157,506.925180972758,0,0,17985.3335294443,17986.3805934127,2,0,73,0,0
5,158,791.372775263881,0,0,17987.9570919945,17989.0041690517,2,0,90,16,8
5,159,595.031920278416,0,0,17990.9453745077,17991.9924446355,2,0,97,16,0
5,160,630.861529742106,0,0,17993.6865908196,17994.7337133023,2,0,100,8,0
5,161,605.48557542279,0,0,18029.6047993892,18030.6518714418,3,0,94,4,8
5,162,711.570445779216,1,0,18032.4048433519,18033.4519196391,3,1,81,16,16
5,163,650.47459629568,1,0,18035.3107681549,18036.3578409774,3,1,96,4,4
5,164,625.799658580945,1,0,18038.1814527259,18039.2284770432,3,1,90,4,0
5,165,845.478861676384,0,0,18040.9696856559,18042.0167580935,3,0,78,0,16
5,166,1131.72423057767,0,0,18043.8756050694,18044.9226848213,3,0,78,16,8
5,167,615.350238025712,1,0,18047.1697825894,18048.2168504075,3,1,72,0,4
5,168,844.162675082771,0,0,18050.0168882108,18051.0639591086,3,0,84,0,16
5,169,553.694653142884,0,0,18053.0875234296,18054.1345870131,3,0,85,0,0
5,170,518.927924986201,1,0,18055.7110909844,18056.7581626521,3,1,96,4,4
5,171,515.455178785487,0,0,18058.3817163482,18059.4287910955,3,0,74,0,16
5,172,652.835185996082,1,0,18061.0994064503,18062.1464754233,3,1,100,0,4
5,173,710.312003557192,0,0,18063.8288640844,18064.875936907,3,0,72,0,8
5,174,636.873488216224,0,0,18066.7112626776,18067.7583389649,3,0,98,4,16
5,175,613.389239340904,0,0,18069.4995371836,18070.5466069264,3,0,63,8,0
5,176,481.906856763089,0,0,18072.2760530117,18073.3231266042,3,0,85,8,0
5,177,495.729703201505,1,0,18074.9584478322,18076.0055214247,3,1,74,8,4
5,178,515.795485585841,1,0,18077.5232050595,18078.5702728776,3,1,87,4,8
5,179,585.39477047816,1,0,18080.111463859,18081.1585359116,3,1,77,8,16
5,180,932.877270090103,0,0,18082.8291728243,18083.8762829882,3,0,61,16,4
5,181,741.573263705504,1,0,18085.9703855176,18087.0174525657,3,1,90,16,0
5,182,651.669519713323,0,0,18088.8292559762,18089.876326874,3,0,90,8,4
5,183,718.202963715157,0,0,18091.6645932957,18092.7116622686,3,0,69,4,4
5,184,594.243132232805,1,0,18094.4646326388,18095.5117012268,3,1,76,8,4
5,185,791.022074481589,0,0,18097.2999699583,18098.3470808922,3,0,100,8,16
5,186,483.109479431732,1,0,18100.3117779114,18101.3588515039,3,1,97,16,8
5,187,837.678752654028,1,0,18102.9941708071,18104.0412467094,3,1,90,8,16
5,188,1492.58802470649,0,0,18105.9471638131,18106.9942312462,3,0,67,8,4
5,189,601.14858853558,1,0,18109.6295721074,18110.6766491645,3,1,77,16,4
5,190,553.247326784913,0,0,18112.3355031467,18113.3825651903,3,0,86,4,0
5,191,516.294011951686,1,0,18115.0414257169,18116.0884904553,3,1,90,0,8
5,192,740.23821395167,0,0,18117.6885214063,18118.7355907642,3,0,89,16,0
5,193,582.341248380544,0,0,18120.6885683717,18121.7356361897,3,0,74,16,8
5,194,746.806828119588,0,0,18123.3709616524,18124.4180464088,3,0,93,16,4
5,195,665.540486465034,0,0,18126.2063047463,18127.2533733343,3,0,95,0,4
5,196,543.98551536724,0,0,18128.9828740842,18130.0298880075,3,0,97,4,0
5,197,687.770142740192,1,0,18131.7240341916,18132.7711066292,3,1,64,0,4
5,198,602.272678872396,0,0,18134.5593707412,18135.6064400991,3,0,71,16,16
5,199,520.184442400932,1,0,18137.2535265494,18138.3006036065,3,1,75,4,16
5,200,582.814752186096,1,0,18139.8418307744,18140.8889382436,3,1,65,8,16
5,201,502.150491793145,1,0,18142.5124345803,18143.5595081728,3,1,78,0,0
5,202,583.399510138406,1,0,18145.2183636948,18146.2654345926,3,1,75,4,16
5,203,542.295530241972,1,0,18147.8772253763,18148.9242943493,3,1,64,16,0
5,204,745.271597897954,0,0,18150.6302076803,18151.6772751134,3,0,75,16,4
5,205,650.742145189724,0,0,18153.4537836273,18154.5008629942,3,0,61,0,0
5,206,471.288822660426,1,0,18156.2891170971,18157.3361933844,3,1,66,0,8
5,207,739.715434956452,0,0,18159.0068337617,18160.0538811768,3,0,93,4,0
5,208,669.554489857546,0,0,18161.9950924072,18163.0421659997,3,0,64,16,4
5,209,817.23801685439,1,0,18164.8892535278,18165.9363263504,3,1,87,16,0
5,210,735.825004507205,0,0,18167.8775345011,18168.9246462049,3,0,79,8,0
5,211,657.386596958531,1,0,18170.7011096781,18171.7481744165,3,1,86,16,16
5,212,434.616530408675,1,0,18173.4658529698,18174.5129323367,3,1,96,8,0
5,213,727.599896945321,1,0,18176.0658989343,18177.1129713719,3,1,61,16,0
5,214,910.122140081512,0,0,18178.8541722854,18179.9012470327,3,0,69,16,8
5,215,453.320700627955,0,0,18181.9130442068,18182.9601151046,3,0,75,8,8
5,216,459.36153128423,0,0,18184.5130874766,18185.5601595292,3,0,67,0,0
5,217,879.42600479073,1,0,18187.219008122,18188.2660805596,3,1,82,8,8
5,218,661.461809380853,0,0,18190.1720022829,18191.2190708709,3,0,82,0,16
5,219,605.447849102347,1,0,18192.9838060783,18194.0308735114,3,1,81,4,8
5,220,735.993618054636,0,0,18195.6661974342,18196.7132698718,3,0,78,4,4
5,221,627.801463284413,0,0,18198.6544799473,18199.7015958857,3,0,87,8,16
5,222,469.622705204529,1,0,18201.4074687958,18202.454575495,3,1,88,8,8
5,223,424.373064757674,1,0,18204.0898589968,18205.1369298945,3,1,85,4,16
5,224,628.530582151143,1,0,18206.7487279925,18207.7957996602,3,1,99,16,16
5,225,512.253831111593,1,0,18209.4899481541,18210.5370132774,3,1,69,0,16
5,226,998.802088459342,0,0,18212.0665114096,18213.1135276427,3,0,86,0,8
5,227,790.179391693528,0,0,18215.2429770386,18216.2900456266,3,0,90,16,16
5,228,669.77584326014,1,0,18218.2783135111,18219.3254017322,3,1,83,8,8
5,229,573.852441550116,0,0,18221.1371781953,18222.1843126119,3,0,83,4,8
5,230,759.423202267499,1,0,18223.8666362144,18224.9137128866,3,1,100,16,8
5,231,643.338162524742,1,0,18226.8078624583,18227.8549310463,3,1,99,4,4
5,232,640.694625424658,1,0,18229.6784965993,18230.7255586429,3,1,83,8,8
5,233,492.063320896705,1,0,18232.5608909579,18233.6079610857,3,1,75,4,0
5,234,725.325153871381,0,0,18235.2668116033,18236.3138836559,3,0,63,8,0
5,235,681.169576688262,1,0,18238.1727402559,18239.2198065341,3,1,95,0,0
5,236,557.955417465564,1,0,18241.1139634201,18242.1610277735,3,1,74,8,4
5,237,580.073434630322,0,0,18243.7728220219,18244.8198983091,3,0,86,0,8
5,238,587.425832327426,0,0,18246.4905186684,18247.5375887962,3,0,72,0,4
5,239,671.965509642177,0,0,18249.1729046348,18250.2199855416,3,0,86,4,8
5,240,595.190139843908,1,0,18251.9847153596,18253.0317939566,3,1,96,4,16
5,241,522.443017052865,1,0,18287.7264479061,18288.7735199588,4,1,79,0,0
5,242,605.144498695154,0,0,18290.3735509098,18291.420617573,4,0,63,8,0
5,243,698.787767862086,1,0,18293.2089055526,18294.2559668263,4,1,93,8,0
5,244,577.955371267308,0,0,18296.126582489,18297.1736503071,4,0,91,8,4
5,245,706.69297162749,0,0,18298.9030971622,18299.9501699848,4,0,77,16,4
5,246,785.529045380827,1,0,18301.8560774645,18302.9031545216,4,1,70,8,4
5,247,755.381096616475,1,0,18304.7502466693,18305.7973171821,4,1,89,16,16
5,248,595.761039148783,1,0,18307.7267589558,18308.7738383227,4,1,65,4,4
5,249,981.553846202587,0,0,18310.4209240031,18311.4679887414,4,0,100,16,16
5,250,850.991908824653,0,0,18313.6445051855,18314.6915726186,4,0,62,4,0
5,251,562.500669027941,1,0,18316.5740424298,18317.6210247862,4,1,90,0,4
5,252,605.916733358754,1,0,18319.3857626884,18320.432834741,4,1,99,16,16
5,253,472.32629643986,1,0,18322.1152164729,18323.1622896804,4,1,85,8,8
5,254,758.240212679084,1,0,18324.8211440476,18325.8682134055,4,1,61,4,16
5,255,434.461390541401,1,0,18327.8211871634,18328.8682580611,4,1,94,8,16
5,256,446.773259394831,1,0,18330.4447712715,18331.4918298505,4,1,94,4,16
5,257,656.677881099313,1,0,18332.9977478781,18334.0448145413,4,1,85,16,0
5,258,932.756391881412,0,0,18335.7507690634,18336.7977983852,4,0,63,16,4
5,259,975.315914773091,0,0,18338.9390091537,18339.9860827462,4,0,67,4,8
5,260,881.74193885061,1,0,18342.0567318237,18343.1037834733,4,1,89,0,16
5,261,886.223671612242,0,0,18345.0802842109,18346.1273543387,4,0,73,16,0
5,262,818.666612482048,0,0,18348.0685655691,18349.1156383917,4,0,61,4,0
5,263,730.07020094883,0,0,18350.9391877762,18351.9862698379,4,0,82,8,16
5,264,543.423085237009,0,0,18353.8568847307,18354.9039629428,4,0,72,8,0
5,265,677.188680067047,0,0,18356.492214428,18357.5392884054,4,0,68,0,4
5,266,499.059243375086,1,0,18359.3981511648,18360.4452212926,4,1,86,16,0
5,267,753.69881073857,0,0,18362.0334920259,18363.0805648485,4,0,78,8,8
5,268,506.108290668635,0,0,18364.9041096135,18365.9511851308,4,0,85,4,16
5,269,741.835808094038,0,0,18367.6453324698,18368.6924049074,4,0,98,4,4
5,270,531.704828470538,0,0,18370.5395024445,18371.5865637183,4,0,66,8,8
5,271,487.416439245862,1,0,18373.1277704831,18374.1748394561,4,1,87,16,8
5,272,661.17154769745,1,0,18375.716045836,18376.7631209683,4,1,62,16,16
5,273,634.917879007844,0,0,18378.4572671524,18379.50439079,4,0,98,0,4
5,274,512.250751409738,1,0,18381.2808415595,18382.3279132272,4,1,85,0,8
5,275,656.470771304157,1,0,18383.9867595101,18385.0338373372,4,1,70,8,4
5,276,507.076471214532,1,0,18386.7279850612,18387.7750532642,4,1,84,4,0
5,277,519.310962619784,1,0,18389.3868436629,18390.4339164855,4,1,71,4,4
5,278,780.258524573583,0,0,18392.0927750873,18393.1398425204,4,0,80,16,16
5,279,557.37027455325,0,0,18394.939877244,18395.9869431372,4,0,98,8,0
5,280,648.93782621948,1,0,18397.5752650705,18398.6222770691,4,1,100,4,16
5,281,687.237739683042,1,0,18400.3399567772,18401.3870299848,4,1,71,4,8
5,282,476.017316344951,1,0,18403.1870600888,18404.2341329114,4,1,98,0,0
5,283,598.480413842481,1,0,18405.8694564492,18406.9165296568,4,1,62,8,8
5,284,615.354087647574,1,0,18408.6577290304,18409.7048053176,4,1,79,16,4
5,285,638.21431240649,0,0,18411.5048346517,18412.5519120939,4,0,74,16,4
5,286,417.219692644721,1,0,18414.257815031,18415.3048878535,4,1,67,0,4
5,287,745.26505353424,0,0,18416.7637342135,18417.8108116556,4,0,94,8,16
5,288,449.056086683413,1,0,18419.6108402198,18420.6579145823,4,1,98,0,0
5,289,583.911510188045,1,0,18422.2579451483,18423.3050068069,4,1,79,0,16
5,290,667.474152814975,1,0,18425.0932870873,18426.1403495159,4,1,82,0,8
5,291,665.040805211902,0,0,18428.0109755726,18429.0580922809,4,0,62,8,16
5,292,652.919492767978,0,0,18430.858080809,18431.9051582512,4,0,86,4,8
5,293,838.786289605196,0,0,18433.7640483428,18434.8110765098,4,0,69,16,8
5,294,636.024261068087,0,0,18436.6699308,18437.7170348045,4,0,71,4,8
5,295,646.615347803163,1,0,18439.4582049209,18440.5052812082,4,1,61,0,16
5,296,480.727331836533,1,0,18442.1758992577,18443.2229994126,4,1,81,4,16
5,297,808.32190170986,1,0,18444.7053431101,18445.7524182425,4,1,83,8,16
5,298,806.918713606137,0,0,18447.7289824989,18448.7760021966,4,0,100,0,0
5,299,800.622652848688,0,0,18450.6230889548,18451.6701667819,4,0,64,16,8
5,300,792.86873932142,1,0,18453.5407751304,18454.5878606567,4,1,100,0,8
5,301,619.856993344001,1,0,18456.4349481849,18457.4820121533,4,1,78,8,0
5,302,584.182908711227,0,0,18459.1643908054,18460.2114663228,4,0,85,0,8
5,303,782.513634563657,0,0,18461.8820859121,18462.9291595046,4,0,87,16,4
5,304,520.826559757552,1,0,18464.7527162034,18465.7998510049,4,1,87,4,4
5,305,725.287427550938,0,0,18467.3292247942,18468.3762999266,4,0,62,16,8
5,306,544.698850775603,0,0,18470.1528450118,18471.1998766434,4,0,64,4,0
5,307,493.969269951776,1,0,18472.8116724316,18473.8587417896,4,1,63,0,4
5,308,633.747593179578,1,0,18475.4117114668,18476.4587966082,4,1,67,4,0
5,309,721.711126458104,0,0,18478.2470468615,18479.2941119848,4,0,67,4,8
5,310,584.341128273081,0,0,18481.1412072122,18482.1882742604,4,0,77,4,4
5,311,709.512051598722,0,0,18483.9059555084,18484.9530298708,4,0,72,8,4
5,312,506.382768893673,1,0,18486.6942315542,18487.7413036068,4,1,67,0,0
5,313,670.934965179185,0,0,18489.3295624063,18490.3766467777,4,0,94,16,0
5,314,912.194777873083,0,0,18492.2472601307,18493.2943348781,4,0,100,0,16
5,315,601.025400559593,1,0,18495.2943729894,18496.3414442721,4,1,78,16,0
5,316,516.611221002677,0,0,18497.9767581859,18499.023835628,4,0,74,8,4
5,317,567.445126645907,1,0,18500.6709193835,18501.7179960557,4,1,65,8,8
5,318,641.250511194812,0,0,18503.3650732669,18504.4121460894,4,0,97,0,8
5,319,626.926058688696,0,0,18506.2004152059,18507.2474837939,4,0,87,0,16
5,320,721.790043760848,0,0,18508.8946102802,18509.9416553855,4,0,79,16,8
5,321,525.15700227741,1,0,18544.7539530877,18545.8010282201,5,1,86,8,16
5,322,630.901950800762,0,0,18547.4363706211,18548.4834245805,5,0,61,16,8
5,323,743.168548069661,0,0,18550.2599230853,18551.3069932131,5,0,69,4,0
5,324,593.912064534379,0,0,18553.1540888255,18554.201162033,5,0,99,4,8
5,325,594.735884158581,0,0,18555.8364794115,18556.8835483844,5,0,76,4,8
5,326,558.776927318831,1,0,18558.4953487922,18559.5424158403,5,1,87,8,16
5,327,496.891904818767,1,0,18561.1071503548,18562.1542220225,5,1,97,16,16
5,328,602.863211261138,0,0,18563.8483662818,18564.8954398743,5,0,63,0,4
5,329,691.044633280399,0,0,18566.5660602336,18567.6131299764,5,0,80,0,16
5,330,616.816175006534,0,0,18569.4131516113,18570.460233673,5,0,83,8,8
5,331,457.504472455184,0,0,18572.1543752376,18573.2014534496,5,0,85,8,0
5,332,542.775193447596,1,0,18574.7191863596,18575.7661956634,5,1,68,16,8
5,333,648.358457743598,1,0,18577.3897520542,18578.4368194873,5,1,96,0,8
5,334,578.52742545947,1,0,18580.2603838854,18581.3074547831,5,1,85,0,16
5,335,799.242947454331,0,0,18582.9427787059,18583.9898522984,5,0,99,8,16
5,336,758.409981117438,0,0,18585.8134151566,18586.8604868243,5,0,72,8,0
5,337,683.671832572145,0,0,18588.8252419728,18589.8722951623,5,0,62,16,0
5,338,830.763672289322,1,0,18591.6371346945,18592.6841112765,5,1,69,4,16
5,339,761.716423541657,1,0,18594.6370896539,18595.6842017427,5,1,69,16,16
5,340,757.843316401704,1,0,18597.6488833633,18598.6959588807,5,1,68,4,16
5,341,585.464063718973,1,0,18600.625404119,18601.6724730919,5,1,72,4,4
5,342,519.079600191617,1,0,18603.4607422084,18604.5078158009,5,1,91,0,8
5,343,651.862000937399,1,0,18606.0490179462,18607.0961315748,5,1,68,4,8
5,344,696.386757103028,0,0,18608.884351801,18609.9314300131,5,0,100,0,0
5,345,693.308597408759,0,0,18611.8255795849,18612.8726520225,5,0,91,16,4
5,346,730.790465677273,0,0,18614.7550417615,18615.80210496,5,0,95,16,4
5,347,793.903518366278,0,0,18617.6609604051,18618.7080655645,5,0,61,8,0
5,348,773.291859240999,1,0,18620.590420657,18621.637488475,5,1,80,16,16
5,349,816.607063410629,0,0,18623.6140373329,18624.6610666547,5,0,100,4,0
5,350,736.133359427186,0,0,18626.6375720119,18627.6846444495,5,0,71,8,4
5,351,650.113116560533,0,0,18629.4964382359,18630.5435048991,5,0,69,4,4
5,352,821.41293454697,1,0,18632.2141210238,18633.261197696,5,1,61,16,16
5,353,613.090893446497,1,0,18635.0965277012,18636.1435997538,5,1,96,0,16
5,354,627.298317373061,1,0,18637.9553920004,18639.0024679026,5,1,88,0,4
5,355,927.161732695822,0,0,18640.7554394277,18641.8025057059,5,0,70,4,16
5,356,617.827086382022,1,0,18643.743721171,18644.7907978432,5,1,64,4,0
5,357,573.341981351405,1,0,18646.4261094472,18647.4731811149,5,1,86,16,0
5,358,729.562435484695,1,0,18649.1908538937,18650.2379305659,5,1,69,8,4
5,359,754.600777741871,1,0,18652.0850169392,18653.1320939963,5,1,97,16,0
5,360,530.256599759014,1,0,18654.9791880688,18656.0262574267,5,1,79,4,0
5,361,695.314251734089,0,0,18657.6851056345,18658.7321826917,5,0,78,0,8
5,362,535.49093410038,1,0,18660.5910377518,18661.6381032601,5,1,98,0,4
5,363,568.291659059469,1,0,18663.3322556035,18664.3793276562,5,1,81,0,16
5,364,552.360758279974,1,0,18666.0970038997,18667.1440682531,5,1,79,8,8
5,365,708.526162783528,1,0,18668.7558632714,18669.8029422534,5,1,92,16,4
5,366,696.236236784898,0,0,18671.6970864357,18672.7441569485,5,0,89,8,4
5,367,634.093674412725,1,0,18674.6383388571,18675.6853793428,5,1,91,4,16
5,368,915.385346597759,0,0,18677.4030575111,18678.4501245593,5,0,68,8,16
5,369,648.338054732449,1,0,18680.4619336672,18681.5089957108,5,1,82,16,4
5,370,755.782227479358,0,0,18683.2266800385,18684.2737490115,5,0,99,16,4
5,371,695.719617189752,0,0,18686.0855435678,18687.1326468024,5,0,100,0,0
5,372,747.355399598746,0,0,18688.8738173038,18689.9209005204,5,0,70,8,4
5,373,845.473087239952,1,0,18691.7209275447,18692.7679988274,5,1,72,4,0
5,374,464.221682126663,1,0,18694.7092073631,18695.7562798007,5,1,84,4,4
5,375,678.147621511016,1,0,18697.3210073859,18698.3680790536,5,1,70,16,8
5,376,602.535993184574,1,0,18700.238729363,18701.2857710036,5,1,92,0,4
5,377,934.663880787411,0,0,18703.003458026,18704.0505219945,5,0,72,8,4
5,378,662.805713269336,0,0,18706.1094147039,18707.1564594242,5,0,63,0,0
5,379,530.799396805378,1,0,18708.9094305644,18709.956512626,5,1,82,0,8
5,380,606.946892854467,1,0,18711.6741777056,18712.7212486034,5,1,91,0,0
5,381,568.608098186814,0,0,18714.4036199412,18715.4507027728,5,0,83,8,16
5,382,490.241293653526,0,0,18717.1448493419,18718.1919144652,5,0,85,4,8
5,383,468.814284075052,0,0,18719.7684553929,18720.815491644,5,0,86,0,4
5,384,470.389165424422,0,0,18722.2978638288,18723.3449351115,5,0,75,0,0
5,385,925.400144555169,1,0,18724.909669626,18725.9567412937,5,1,63,16,8
5,386,582.324310034892,0,0,18727.9567817148,18729.0038456832,5,0,84,16,16
5,387,580.123864710913,0,0,18730.6980014914,18731.7450658448,5,0,68,8,0
5,388,459.040857567743,1,0,18733.4509772511,18734.4980550782,5,1,76,0,8
5,389,541.12023990092,1,0,18736.156902901,18737.203970719,5,1,84,8,8
5,390,620.422118212446,1,0,18738.7804766151,18739.8275471279,5,1,97,0,16
5,391,593.025496025803,0,0,18741.6040452478,18742.6511253846,5,0,67,4,4
5,392,573.370083609916,1,0,18744.3217338101,18745.3688081725,5,1,64,16,8
5,393,559.824795087479,0,0,18746.957066202,18748.0041532682,5,0,85,16,0
5,394,752.326804587938,0,0,18749.7335858798,18750.7806587023,5,0,72,4,4
5,395,737.721329500346,0,0,18752.65127552,18753.6983525771,5,0,81,4,16
5,396,687.443309623632,0,0,18755.5454397203,18756.5925098481,5,0,71,8,8
5,397,700.820754522283,0,0,18758.3102199683,18759.3572573744,5,0,64,8,8
5,398,834.354216996871,1,0,18761.2396474984,18762.2867126217,5,1,95,4,8
5,399,827.636237401748,0,0,18764.1691069803,18765.2161763382,5,0,79,8,0
5,400,495.237721203011,1,0,18767.1926801555,18768.2397464337,5,1,88,16,0
5,401,850.331313275092,1,0,18781.0164197115,18782.0634963837,6,1,89,4,16
5,402,608.518309549254,1,0,18783.9341120464,18784.9811914134,6,1,99,0,16
5,403,409.150494873757,0,0,18786.7106244099,18787.7576976174,6,0,96,4,16
5,404,390.731196857814,1,1,18789.3459668109,18790.3930330891,6,0,89,0,4
5,405,660.269580694148,1,0,18791.9695274363,18793.0166064183,6,1,84,0,4
5,406,673.914574486844,0,0,18794.8166303629,18795.8637108848,6,0,97,8,8
5,407,595.483481225529,1,0,18797.734321928,18798.7813970603,6,1,69,0,4
5,408,756.057860588044,1,0,18800.4284885151,18801.475557488,6,1,80,8,4
5,409,654.624106467963,0,0,18803.2991292004,18804.3461939387,6,0,61,0,8
5,410,661.312443953648,1,0,18806.087396392,18807.1344711394,6,1,82,0,0
5,411,594.580359334941,1,0,18808.8521423784,18809.8992240551,6,1,86,8,4
5,412,554.881107396795,0,0,18811.5698952294,18812.6169076129,6,0,95,0,16
5,413,533.914127932803,1,0,18814.3816485948,18815.428755679,6,1,66,16,16
5,414,553.490238085942,1,0,18817.1581598033,18818.2052272364,6,1,76,8,8
5,415,580.658962506277,1,0,18819.9699635988,18821.0170414258,6,1,96,0,0
5,416,770.721465007227,1,0,18822.7229520622,18823.7700148758,6,1,81,8,0
5,417,588.588803868333,1,0,18825.7229944081,18826.7700668457,6,1,79,4,0
5,418,1506.57371026318,0,0,18828.5348005133,18829.5818702561,6,0,73,4,0
5,419,813.870750364003,0,0,18832.2054505147,18833.2525202575,6,0,79,4,8
5,420,528.068088271539,1,0,18835.1113783973,18836.1584423658,6,1,98,4,4
5,421,969.337832997553,1,0,18837.7114155077,18838.7702566322,6,1,76,4,8
5,422,509.764663955139,1,0,18840.8996960191,18841.9467746161,6,1,80,8,16
5,423,665.103554089001,0,0,18843.6291509584,18844.676223781,6,0,75,8,4
5,424,575.710270302807,1,0,18846.3586109023,18847.4056848798,6,1,92,16,8
5,425,803.040601953398,0,0,18849.1821745305,18850.2292542824,6,0,87,4,8
5,426,526.917435530777,0,0,18852.2175240918,18853.2645988391,6,0,75,0,4
5,427,415.611319553136,0,0,18854.9587396338,18856.005815921,6,0,65,8,4
5,428,683.421606983757,0,0,18857.5470138317,18858.5940835746,6,0,92,0,8
5,429,819.284092238377,1,0,18860.2999976756,18861.3470755027,6,1,80,16,16
5,430,473.775680038671,0,0,18863.2294571576,18864.2765299801,6,0,88,0,0
5,431,487.432222707866,0,0,18865.9118469736,18866.9589240308,6,0,99,8,16
5,432,841.211937957269,1,0,18868.5001250212,18869.547195534,6,1,61,0,8
5,433,1069.38764713414,1,0,18871.4648786298,18872.5119487577,6,1,61,4,0
5,434,590.701092794916,0,0,18874.6414050829,18875.6885102423,6,0,76,16,0
5,435,779.652593686478,1,0,18877.3826113858,18878.4296926776,6,1,65,4,4
5,436,810.717522992491,1,0,18880.3003580005,18881.3473769283,6,1,62,16,16
5,437,649.59303229989,0,0,18883.3356478926,18884.382722255,6,0,73,8,8
5,438,831.462379122968,1,0,18886.1827442749,18887.2298205621,6,1,81,4,16
5,439,965.932840186724,0,0,18889.171027558,18890.2181076948,6,0,81,0,8
5,440,738.199837818684,0,0,18892.3828388986,18893.4299132611,6,0,79,8,0
5,441,701.571431287448,1,0,18895.3593973806,18896.4064351716,6,1,61,8,16
5,442,955.75597304196,0,0,18898.1711696091,18899.2182501309,6,0,78,0,16
5,443,610.802676685125,1,0,18901.2182859324,18902.2653518257,6,1,94,4,4
5,444,502.180133902584,0,0,18903.9477316327,18904.994807535,6,0,77,0,8
5,445,700.632892847352,0,0,18906.6654194251,18907.7124903229,6,0,95,16,16
5,446,610.339181905147,0,0,18909.5125169623,18910.5595924796,6,0,96,16,0
5,447,751.129186432081,1,0,18912.2419792159,18913.289046649,6,1,61,16,16
5,448,776.915510716208,0,0,18915.2420254114,18916.2890951543,6,0,68,16,0
5,449,602.6926728955,1,0,18918.2773630389,18919.3244347066,6,1,61,4,8
5,450,867.149552486808,0,0,18921.1127003584,18922.159772796,6,0,72,8,4
5,451,683.331525771791,0,0,18924.124512161,18925.171590758,6,0,63,16,0
5,452,886.83537693214,1,0,18927.0069065196,18928.0539785723,6,1,88,8,16
5,453,868.204734542815,0,0,18930.0775467429,18931.1246199505,6,0,64,8,8
5,454,779.798494451825,1,0,18933.1599452591,18934.2070288607,6,1,97,4,0
5,455,864.435182298621,0,0,18936.089405896,18937.1364783336,6,0,97,16,8
5,456,927.81270418709,0,0,18939.1130156426,18940.1601154125,6,0,79,0,0
5,457,929.1504486755,1,0,18942.2306805682,18943.2777445366,6,1,70,16,4
5,458,740.892650104797,1,0,18945.2660216603,18946.3130871686,6,1,94,0,0
5,459,844.450626991602,1,0,18948.1601758516,18949.207250984,6,1,82,4,0
5,460,902.128394947795,0,0,18951.1367143156,18952.1837636554,6,0,83,4,8
5,461,905.62924340702,0,0,18954.1250326302,18955.1720473235,6,0,96,8,0
5,462,759.174131566397,1,0,18957.1956097197,18958.2426783077,6,1,94,0,16
5,463,821.276657843555,0,0,18960.1015391422,18961.1486138896,6,0,86,16,8
5,464,715.325369448692,0,0,18963.0074654851,18964.0545359979,6,0,69,8,0
5,465,733.340071936254,0,0,18965.8192739,18966.8663440279,6,0,91,4,16
5,466,465.927835673938,1,0,18968.7487303023,18969.7958204482,6,1,72,0,16
5,467,555.480108956544,1,0,18971.3840665439,18972.431143601,6,1,62,16,8
5,468,565.384807650844,0,0,18974.0311691625,18975.0782404453,6,0,63,16,0
5,469,1183.39388968525,0,0,18976.784146847,18977.8312246741,6,0,89,16,4
5,470,672.670375872258,0,0,18980.1018836836,18981.148917625,6,0,97,16,4
5,471,464.330241535208,0,0,18982.8901289324,18983.9371975204,6,0,84,4,16
5,472,803.671555397159,1,0,18985.5489917688,18986.5960649763,6,1,65,8,16
5,473,640.278481023415,1,0,18988.4313888221,18989.4784570251,6,1,62,4,4
5,474,788.040155399358,1,0,18991.1843742059,18992.2314443337,6,1,86,0,4
5,475,677.673732745461,0,0,18994.1726744273,18995.219786901,6,0,64,16,8
5,476,697.793794832251,1,0,18997.0786450408,18998.1256589641,6,1,68,4,4
5,477,644.769452886976,1,0,18999.9727457223,19001.0198216246,6,1,69,8,0
5,478,1264.7225952569,1,0,19002.7257476595,19003.7728039287,6,1,71,16,4
5,479,766.631239050184,0,0,19006.21990008,19007.2669752123,6,0,99,8,8
5,480,731.558850711735,0,0,19009.2199428108,19010.2670217928,6,0,99,16,4
5,481,689.032434591354,0,0,19016.3612328815,19017.408307244,7,0,90,16,0
5,482,690.423303894931,1,0,19019.1730424514,19020.2201171988,7,1,99,0,0
5,483,541.555247466022,1,0,19021.9966287923,19023.0436889111,7,1,97,16,4
5,484,575.154769496294,0,0,19024.620186338,19025.6672537711,7,0,77,4,16
5,485,579.950246650697,0,0,19027.2672893417,19028.3143556199,7,0,65,16,8
5,486,482.42463124916,0,0,19030.0437936209,19031.0908660585,7,0,77,0,16
5,487,557.282503115857,0,0,19032.6909035539,19033.7379671373,7,0,69,8,0
5,488,682.269799355709,1,0,19035.4909417421,19036.5380099452,7,1,90,8,0
5,489,635.28051362664,0,0,19038.2909853199,19039.3380562176,7,0,61,0,4
5,490,508.071984091657,1,0,19041.1380901713,19042.1851549097,7,1,87,4,16
5,491,534.959685926879,1,0,19043.8793072532,19044.9263816156,7,1,95,8,8
5,492,592.143162106368,1,0,19046.6440570892,19047.6911487749,7,1,76,8,0
5,493,1198.85821598655,0,0,19049.4911600158,19050.5382324534,7,0,66,0,8
5,494,689.628741416527,1,0,19052.8324407705,19053.8794604682,7,1,71,16,16
5,495,1059.10376043175,0,0,19055.6089038587,19056.6559751415,7,0,69,8,4
5,496,1057.9319347562,1,0,19058.7971797505,19059.8442795205,7,1,98,8,16
5,497,1413.31270880619,1,0,19061.9266387705,19062.9737196773,7,1,71,8,0
5,498,958.063822887198,0,0,19065.4678713279,19066.5149510798,7,0,93,16,16
5,499,745.381312193786,1,0,19068.5738041381,19069.6208750358,7,1,85,4,8
5,500,632.328621613851,1,0,19071.5385596715,19072.585633264,7,1,70,0,16
5,501,901.626018960087,1,0,19074.3033068128,19075.3503765557,7,1,81,4,4
5,502,836.188178076554,1,0,19077.4327662177,19078.4798363456,7,1,72,16,16
5,503,487.572734000423,1,0,19080.3975167467,19081.4445934189,7,1,73,4,16
5,504,673.858754933462,0,0,19083.1269674515,19084.174040274,7,0,68,0,0
5,505,579.347395465447,1,0,19085.9505410886,19086.9976131413,7,1,82,8,4
5,506,583.297495093575,1,0,19088.5976429374,19089.6447199945,7,1,65,16,4
5,507,831.595961095445,0,0,19091.2682752305,19092.3153407388,7,0,71,8,16
5,508,537.413436541101,1,0,19094.2094860759,19095.2565677527,7,1,84,8,4
5,509,1260.65007757279,0,0,19096.9742501556,19098.021314124,7,0,86,16,8
5,510,620.659255077044,0,0,19100.3390444162,19101.386135717,7,0,74,4,0
5,511,613.701828846388,1,0,19103.0920217158,19104.1391199459,7,1,84,8,4
5,512,708.863004918385,1,0,19105.9037924044,19106.9508640721,7,1,70,8,16
5,513,556.868668489187,0,0,19108.8450244228,19109.8920860815,7,0,66,0,4
5,514,566.769517561625,1,0,19111.6450583765,19112.6921350487,7,1,87,16,4
5,515,691.117006219429,1,0,19114.3156895147,19115.3627631072,7,1,94,8,16
5,516,909.818789674318,0,0,19117.2099122294,19118.2569326971,7,0,91,0,4
5,517,1183.20910771217,1,0,19120.3275475129,19121.3746184106,7,1,79,16,16
5,518,1443.79326512717,0,0,19123.6687739878,19124.7158891563,7,0,68,0,8
5,519,1013.06302216472,1,0,19127.1864772557,19128.2335496933,7,1,91,0,16
5,520,1089.67478292107,0,0,19130.4571200968,19131.5041832953,7,0,90,4,16
5,521,953.032748722762,1,0,19133.7865778849,19134.8336491676,7,1,70,16,8
5,522,1393.66268586309,0,0,19136.9160399845,19137.9631155019,7,0,97,16,0
5,523,877.937739987829,0,0,19140.4337855983,19141.4808118404,7,0,89,8,8
5,524,899.135696916346,1,0,19143.4455539002,19144.4926263378,7,1,81,16,0
5,525,508.181313423847,0,0,19146.563247698,19147.6103170559,7,0,66,0,0
5,526,587.351919541106,0,0,19149.1632832685,19150.2103622505,7,0,75,16,8
5,527,802.55862897684,1,0,19151.8339209511,19152.8809926188,7,1,63,0,16
5,528,714.778722780466,0,0,19154.7398403646,19155.7869154969,7,0,71,4,8
5,529,1151.4874324821,1,0,19157.5398835574,19158.5869579198,7,1,78,4,4
5,530,527.315101735439,0,0,19160.8222927755,19161.8693605936,7,0,86,4,8
5,531,585.682337426988,0,0,19163.5046899059,19164.551766963,7,0,88,0,8
5,532,712.233351110626,1,0,19166.2341390708,19167.2812084287,7,1,67,16,0
5,533,695.500573558093,1,0,19169.0459463309,19170.0930253129,7,1,100,16,4
5,534,943.849469640554,1,0,19171.9636486748,19173.0107122583,7,1,72,8,16
5,535,821.594636821828,0,0,19175.1048605982,19176.1519330358,7,0,89,4,4
5,536,596.652227202867,1,0,19178.1166881843,19179.1637483031,7,1,80,4,8
5,537,726.160522375721,0,0,19180.8931936184,19181.9402649012,7,0,89,8,8
5,538,618.752536098327,1,0,19183.6814681244,19184.7285455665,7,1,89,4,0
5,539,471.967896406568,0,0,19186.4344600525,19187.481523636,7,0,86,4,4
5,540,796.426947181317,1,0,19189.0580202929,19190.10509889,7,1,95,0,4
5,541,784.367998650851,0,0,19191.9168895967,19192.9639662689,7,0,83,16,8
5,542,709.148647052643,0,0,19194.7522296109,19195.7992993538,7,0,64,8,4
5,543,582.957188293221,1,0,19197.7052149176,19198.7522846605,7,1,87,8,0
5,544,744.670286559995,0,0,19200.4346748615,19201.4817372901,7,0,91,0,8
5,545,1175.02172647437,0,0,19203.4111832984,19204.4582595856,7,0,64,0,0
5,546,638.532676344767,0,0,19206.7877058248,19207.8347813421,7,0,64,8,8
5,547,545.938429844682,0,0,19209.6583830816,19210.7054201026,7,0,94,0,8
5,548,544.309653745586,0,0,19212.3289664844,19213.3760404619,7,0,93,16,16
5,549,589.805285191687,1,0,19215.0584668494,19216.1054950163,7,1,95,16,4
5,550,529.784250844386,0,0,19217.7643524632,19218.8114210512,7,0,76,0,4
5,551,378.218377609301,1,0,19220.4820398706,19221.5291076887,7,1,97,4,8
5,552,424.480469278933,0,0,19223.0585546208,19224.1056293682,7,0,96,0,0
5,553,452.809855465603,0,0,19225.6821190959,19226.7292515876,7,0,98,4,4
5,554,641.156195393705,0,0,19228.1880440528,19229.2351161055,7,0,93,4,0
5,555,619.999429451127,0,0,19230.8939643132,19231.9410394456,7,0,66,4,16
5,556,501.599995499419,1,0,19233.6704743669,19234.7175471895,7,1,77,0,16
5,557,617.579940495489,0,0,19236.3293433627,19237.376418495,7,0,64,16,0
5,558,663.930573529797,1,0,19239.0940851145,19240.1411918137,7,1,66,4,0
5,559,477.072883364599,1,0,19241.8117752166,19242.8588568933,7,1,85,4,0
5,560,615.822201980336,1,0,19244.3882872721,19245.4353647142,7,1,70,8,8
5,561,651.497441504034,1,0,19250.3883846676,19251.4354524857,8,1,71,4,16
5,562,873.79823883748,0,0,19253.2590230431,19254.3060997153,8,0,90,16,16
5,563,541.568336186174,1,0,19256.2943552811,19257.3414307984,8,1,72,0,4
5,564,567.249950687255,1,0,19258.9767558761,19260.0238263889,8,1,79,0,8
5,565,784.254049769515,0,0,19261.7885631362,19262.8356313392,8,0,81,0,0
5,566,697.838065512769,1,0,19264.6709567249,19265.7180349369,8,1,70,4,0
5,567,438.269054066041,0,0,19267.4945345966,19268.5416008748,8,0,70,4,4
5,568,712.555179710762,0,0,19270.1533985878,19271.2004660209,8,0,78,0,4
5,569,742.286984077509,1,0,19272.9534390859,19274.0005138333,8,1,65,8,8
5,570,599.928642554005,1,0,19275.7887787152,19276.8358461483,8,1,79,8,4
5,571,709.828105762426,1,0,19278.6358862613,19279.6829552343,8,1,84,8,8
5,572,782.145995432074,0,0,19281.4594533541,19282.5065296414,8,0,72,8,0
5,573,900.816827906965,0,0,19284.3418565669,19285.3889259248,8,0,88,8,16
5,574,770.677194330347,0,0,19287.3301344605,19288.3772095928,8,0,63,0,0
5,575,597.075300927827,0,0,19290.3066548312,19291.3537272688,8,0,64,4,8
5,576,573.060188842646,0,0,19293.0596363653,19294.1067091879,8,0,79,0,8
5,577,538.783517873526,1,0,19295.6949783813,19296.7420411949,8,1,88,4,4
5,578,565.867165591044,0,0,19298.4126584744,19299.4597278324,8,0,88,16,8
5,579,783.395198559447,0,0,19301.0832919224,19302.1303620503,8,0,71,4,4
5,580,765.837061531784,1,0,19304.0127987548,19305.0598215322,8,1,81,8,8
5,581,501.74512634112,0,0,19306.9186723577,19307.9657863713,8,0,84,16,0
5,582,494.345763221645,1,0,19309.4951840283,19310.5422583907,8,1,77,8,16
5,583,684.544157466007,0,0,19312.10699483,19313.1540653428,8,0,63,4,16
5,584,512.380868716718,1,0,19314.9070376378,19315.9541008363,8,1,94,8,16
5,585,554.499994574144,0,0,19317.5070716685,19318.5541468008,8,0,69,8,0
5,586,715.442013068241,1,0,19320.1541735172,19321.2012490346,8,1,81,0,4
5,587,690.951472366578,1,0,19323.0365694157,19324.0836911285,8,1,86,8,0
5,588,824.403707767488,1,0,19325.8130844739,19326.8601588363,8,1,82,4,16
5,589,651.748821979709,1,0,19328.8366572641,19329.8837323965,8,1,85,0,8
5,590,942.242251439893,1,0,19331.5661102787,19332.6131919554,8,1,83,0,0
5,591,1200.82845376965,0,0,19334.6014532956,19335.6485349723,8,0,75,0,16
5,592,1611.23575943202,0,0,19337.9191562555,19338.9662244585,8,0,71,8,8
5,593,1313.34065708143,1,0,19341.7309742946,19342.7780532765,8,1,63,0,16
5,594,783.157291767566,0,0,19345.1192689725,19346.1663356357,8,0,78,0,16
5,595,648.932821710332,1,0,19348.1193078537,19349.166384141,8,1,76,16,16
5,596,540.736817310972,0,0,19351.0017129913,19352.0487788845,8,0,78,8,0
5,597,890.000153180154,1,0,19353.625281316,19354.6723545235,8,1,74,16,4
5,598,745.035615920642,1,0,19356.6723849355,19357.7194800859,8,1,85,4,0
5,599,849.705749300483,0,0,19359.5665926366,19360.6136204186,8,0,96,4,8
5,600,1002.58934897647,0,0,19362.578356319,19363.6256697431,8,0,83,4,16
5,601,853.451048908028,0,0,19365.8137046484,19366.8607797807,8,0,91,16,4
5,602,623.506437303149,0,0,19368.7196263717,19369.766701119,8,0,71,4,8
5,603,768.757771584205,1,0,19371.4843966107,19372.531512549,8,1,100,8,4
5,604,767.567082748428,1,0,19374.4256020667,19375.4726787389,8,1,68,4,4
5,605,617.010581041541,1,0,19377.3550611636,19378.4021301366,8,1,96,4,8
5,606,885.660086594726,0,0,19380.1786297963,19381.2257056986,8,0,93,0,16
5,607,525.924617388227,1,0,19383.2022068211,19384.2493296888,8,1,82,0,16
5,608,879.963027400663,1,0,19385.8140210875,19386.8610839011,8,1,66,8,4
5,609,537.63786964555,0,0,19388.8964149842,19389.943485497,8,0,98,0,4
5,610,398.913958550111,1,0,19391.5082180866,19392.5552912942,8,1,77,0,8
5,611,342.244407231192,0,0,19393.9788612357,19395.0259209696,8,0,88,4,0
5,612,641.483413473907,1,0,19396.390645937,19397.4377160648,8,1,62,8,8
5,613,779.850079423341,0,0,19399.2142245787,19400.2613054854,8,0,99,0,8
5,614,592.148551582795,0,0,19402.131912294,19403.1789885813,8,0,65,16,16
5,615,540.555499999755,1,0,19404.8143048048,19405.8613780124,8,1,72,4,16
5,616,667.030676082504,1,0,19407.4378758242,19408.4849509566,8,1,80,4,0
5,617,656.268281061784,0,0,19410.2967505174,19411.3438148708,8,0,100,16,4
5,618,742.376295362192,0,0,19413.0144352301,19414.0615065128,8,0,63,16,8
5,619,525.24785341302,0,0,19415.9556610891,19417.0027339117,8,0,83,16,0
5,620,566.316801727226,0,0,19418.5674614969,19419.6145370142,8,0,99,16,8
5,621,793.775710837508,1,0,19421.3792668321,19422.4263438893,8,1,61,16,8
5,622,545.851813294576,1,0,19424.2499055926,19425.2969818799,8,1,74,16,16
5,623,569.021932813484,1,0,19426.8499438579,19427.8970651857,8,1,94,8,0
5,624,648.087444180419,0,0,19429.5676351149,19430.6147044728,8,0,88,0,4
5,625,397.802956937085,1,0,19432.344151713,19433.3912172213,8,1,95,8,16
5,626,715.825820629107,1,0,19434.9088885372,19435.9560175643,8,1,69,16,8
5,627,629.845613857469,0,0,19437.8618826981,19438.9090005613,8,0,81,0,0
5,628,607.148613176832,0,0,19440.7207462274,19441.7678132755,8,0,94,4,0
5,629,642.678336895187,0,0,19443.5560804672,19444.6031586792,8,0,62,8,4
5,630,765.288875012629,1,0,19446.2973006288,19447.3443753761,8,1,76,8,4
5,631,723.324504055199,0,0,19449.2973472092,19450.3444238814,8,0,66,16,4
5,632,609.669347253657,1,0,19452.2150387742,19453.2621177562,8,1,75,16,16
5,633,747.871634237526,0,0,19454.885674147,19455.9327415801,8,0,80,0,0
5,634,577.719389289996,1,0,19457.7210041522,19458.7680846741,8,1,98,4,4
5,635,653.807986087486,1,0,19460.4857574529,19461.532855298,8,1,97,16,0
5,636,879.850233406614,0,0,19463.3916884153,19464.4388178273,8,0,62,16,4
5,637,1058.62948670256,0,0,19466.3211390431,19467.3682164852,8,0,68,16,0
5,638,606.808306376479,1,0,19469.4976616465,19470.5447933684,8,1,68,8,16
5,639,704.505230067298,0,0,19472.227115431,19473.2741901784,8,0,76,16,0
5,640,602.746567637951,1,0,19475.050752587,19476.0977638156,8,1,68,4,8
5,641,994.791549732327,1,0,19480.9096457584,19481.9567243554,9,1,71,0,4
5,642,602.644167629478,1,0,19484.0508430532,19485.0979035569,9,1,62,8,8
5,643,827.177747134556,0,0,19486.733224785,19487.7802995324,9,0,78,4,8
5,644,660.246482948423,1,0,19489.639149203,19490.6862212557,9,1,83,4,8
5,645,577.335196772765,0,0,19492.5450801654,19493.5921479834,9,0,95,16,4
5,646,953.388838977844,0,0,19495.2039453115,19496.2510123596,9,0,80,16,4
5,647,983.735043402703,0,0,19498.274625186,19499.3216548928,9,0,90,16,16
5,648,793.173629575904,0,0,19501.498159018,19502.545227991,9,0,80,8,4
5,649,675.788956625183,1,0,19504.5217410473,19505.5688034759,9,1,85,4,8
5,650,635.587328695692,1,0,19507.4276620007,19508.4747317436,9,1,86,8,4
5,651,511.008862569724,0,0,19510.2512298634,19511.2983096153,9,0,76,16,0
5,652,878.809679921687,1,0,19512.8395537215,19513.8865884328,9,1,92,8,8
5,653,547.653822486609,0,0,19515.8277969685,19516.8748682513,9,0,92,16,16
5,654,873.032933501236,1,0,19518.4513599037,19519.4984381158,9,1,70,0,16
5,655,602.73925335423,0,0,19521.4984927805,19522.5456040993,9,0,63,4,16
5,656,759.70730455083,0,0,19524.3455980169,19525.3926458169,9,0,65,16,8
5,657,661.65621541586,0,0,19527.2397387345,19528.2868038578,9,0,91,8,16
5,658,635.407166271762,1,0,19530.0868301123,19531.1339133288,9,1,74,4,16
5,659,804.949245746684,1,0,19532.9221739761,19533.9692498784,9,1,68,4,4
5,660,872.902431234252,0,0,19535.9105180833,19536.957527387,9,0,64,16,0
5,661,742.37244574033,1,0,19538.8987386175,19539.9458141348,9,1,67,8,0
5,662,505.281391342578,0,0,19541.8987875077,19542.9458599453,9,0,71,4,4
5,663,616.716084772634,1,0,19544.6164702956,19545.6635458129,9,1,76,0,16
5,664,555.939369147382,1,0,19547.4871044365,19548.5341749493,9,1,86,0,0
5,665,915.355319528317,1,0,19550.110674301,19551.1577459687,9,1,66,8,16
5,666,812.950690124126,1,0,19553.1813091349,19554.2283827274,9,1,100,8,8
5,667,797.683849559689,0,0,19556.0754810345,19557.1225411533,9,0,98,0,4
5,668,537.956233583827,0,0,19559.0402689048,19560.087304771,9,0,83,4,8
5,669,451.884020789294,0,0,19561.652033896,19562.6991040238,9,0,74,4,16
5,670,960.479462217336,0,0,19564.322667344,19565.3697340072,9,0,80,8,0
5,671,941.138179154223,1,0,19567.4638854267,19568.5109543997,9,1,61,4,0
5,672,684.47794392705,0,0,19570.6286458877,19571.6757194802,9,0,64,16,16
5,673,682.613570814283,0,0,19573.4404473734,19574.4875228907,9,0,76,16,8
5,674,619.380794807512,1,0,19576.3816747722,19577.4287437452,9,1,96,0,16
5,675,720.541610553482,1,0,19579.2523027538,19580.2993771162,9,1,75,16,0
5,676,675.881732571725,0,0,19582.111176677,19583.1582414154,9,0,76,16,0
5,677,909.294855788175,1,0,19585.0406265349,19586.0876978176,9,1,87,16,0
5,678,615.594304214028,1,0,19588.0642047146,19589.1112756124,9,1,83,0,8
5,679,1309.31972436156,0,0,19590.8054221814,19591.8524938491,9,0,70,0,4
5,680,1037.9620080239,1,0,19594.2878240083,19595.3349126143,9,1,80,8,4
5,681,558.978262673918,1,0,19597.3937575884,19598.4408358005,9,1,85,16,8
5,682,793.702952934837,0,0,19600.1350262552,19601.1820598117,9,0,71,4,0
5,683,976.994735989138,0,0,19603.05266893,19604.0997421376,9,0,67,8,0
5,684,780.050259891141,0,0,19606.2527185132,19607.2997948004,9,0,75,8,4
5,685,715.561736393283,1,0,19609.1821814598,19610.229257747,9,1,91,0,0
5,686,1348.58281385459,0,0,19611.9822269623,19613.0292974751,9,0,88,0,0
5,687,778.309459725278,1,0,19615.5234549001,19616.5705227182,9,1,78,8,0
5,688,540.369563139393,0,0,19618.429380858,19619.4764579152,9,0,87,4,8
5,689,670.269750080479,1,0,19621.1823662418,19622.2294379094,9,1,72,8,16
5,690,824.228549856343,0,0,19623.9824113594,19625.0294799473,9,0,82,4,0
5,691,535.291908516228,1,0,19626.9824575548,19628.0295288376,9,1,71,4,0
5,692,696.54882629402,1,0,19629.7001434224,19630.74721586,9,1,67,8,16
5,693,617.312391597807,0,0,19632.6413654318,19633.6884363296,9,0,65,16,16
5,694,680.385408191796,0,0,19635.3943577449,19636.4414271028,9,0,97,0,4
5,695,567.508645450289,1,0,19638.2649834166,19639.3120527745,9,1,84,8,16
5,696,671.748390821449,0,0,19641.0179664906,19642.0650373884,9,0,67,8,0
5,697,719.557646552857,0,0,19643.9121287661,19644.9592054383,9,0,92,16,4
5,698,664.299752508668,0,0,19646.7592336176,19647.8063064402,9,0,91,16,4
5,699,718.007787752867,1,0,19649.5945674724,19650.6417057386,9,1,67,0,0
5,700,847.731276931881,0,0,19652.3828508325,19653.4299178806,9,0,83,0,8
5,701,672.434393894946,1,0,19655.3711337306,19656.4182019336,9,1,97,4,0
5,702,749.753715623228,1,0,19658.3005947524,19659.347667575,9,1,95,0,16
5,703,829.500995474518,0,0,19661.2888699513,19662.3359420039,9,0,65,4,16
5,704,819.463484735024,1,0,19664.2418564129,19665.2889303904,9,1,91,16,8
5,705,1950.19519055131,0,0,19667.1830734178,19668.2301543245,9,0,86,0,0
5,706,437.084139666695,0,0,19671.3243196028,19672.3713901156,9,0,85,0,8
5,707,778.687107878795,1,0,19673.9125968805,19674.9596912609,9,1,74,16,4
5,708,594.898723273218,0,0,19676.8655814173,19677.9126542399,9,0,74,16,8
5,709,952.761735159584,1,0,19679.6185633364,19680.6656380838,9,1,87,8,4
5,710,1587.45624436415,1,0,19682.7127297695,19683.7598018221,9,1,87,0,8
5,711,911.203114621458,0,0,19686.4421989525,19687.4892698502,9,0,80,4,4
5,712,792.994622039259,1,0,19689.4422486126,19690.4893229751,9,1,100,8,8
5,713,623.3936433091,0,0,19692.4187612841,19693.4658348766,9,0,77,16,16
5,714,894.145813726936,0,0,19695.2070442592,19696.2541128472,9,0,80,4,16
5,715,714.204358817369,1,0,19698.2070916095,19699.2541625073,9,1,88,8,8
5,716,797.603392406018,1,0,19700.9836055129,19702.0306779505,9,1,73,0,8
5,717,1398.41042767148,1,0,19703.9836509384,19705.0307191414,9,1,64,4,4
5,718,665.372257877607,1,0,19707.5366433285,19708.5837188458,9,1,86,0,16
5,719,793.514321336261,1,0,19710.289631022,19711.3367023047,9,1,72,4,4
5,720,1621.61088223729,0,0,19713.1484995558,19714.1955719934,9,0,85,0,4
