sub_id,Trial,RT,Resp,Error,Fix_onset,Disp_onset,block,tid,tloc,fish_setsize,bird_setsize
4,1,488.175291800871,1,0,43314.4188004586,43315.4658432541,1,1,74,0,0
4,2,653.785749847884,0,0,43317.1481599273,43318.1952350597,1,0,87,16,4
4,3,604.253017263545,1,0,43319.8657279964,43320.9127661723,1,1,88,4,0
4,4,567.921031804872,0,0,43322.5950805358,43323.6421006185,1,0,79,16,8
4,5,597.732523398008,1,0,43325.3832464823,43326.43026695,1,1,70,0,8
4,6,675.246636121301,0,0,43328.053759437,43329.1007949183,1,0,71,4,4
4,7,609.521228288941,0,0,43330.8184049482,43331.8654335001,1,0,96,16,0
4,8,508.83507123217,0,0,43333.4889229075,43334.5360118985,1,0,71,4,8
4,9,701.803270254459,0,0,43336.1359138871,43337.1829947938,1,0,72,16,8
4,10,485.060175713443,1,0,43339.0887794705,43340.1358084074,1,1,71,0,8
4,11,679.324543285475,1,0,43341.8063563937,43342.8533995742,1,1,78,0,0
4,12,760.672496973712,0,0,43344.6180820417,43345.6650951951,1,0,90,4,0
4,13,582.32825124287,1,0,43347.4885779812,43348.535606533,1,1,82,8,0
4,14,690.402222542616,1,0,43350.147333413,43351.1943661995,1,1,76,4,4
4,15,589.236787243863,0,0,43353.0413813547,43354.0884064419,1,0,67,16,0
4,16,478.984313471301,1,0,43355.8648418129,43356.9118745993,1,1,64,8,4
4,17,856.562406952435,1,0,43358.4530097612,43359.5000367732,1,1,98,16,16
4,18,740.865794316051,0,0,43361.5117611894,43362.5587851217,1,0,80,8,0
4,19,515.582692933094,0,0,43364.3940362096,43365.441070151,1,0,65,16,4
4,20,771.203914526268,1,0,43367.0763267054,43368.1233502528,1,1,62,16,4
4,21,577.411510916136,0,0,43369.9821298602,43371.0291684211,1,0,78,4,0
4,22,481.761817507504,0,0,43372.6880508906,43373.7349832019,1,0,78,4,4
4,23,636.047065432649,1,0,43375.2525902291,43376.29962879,1,1,73,16,0
4,24,581.027463143982,0,0,43378.0525264023,43379.0995499497,1,0,71,4,16
4,25,553.98616129969,0,0,43380.746574421,43381.7936068225,1,0,94,0,0
4,26,816.652195593633,1,0,43383.3818490686,43384.4288310401,1,1,80,8,16
4,27,555.613012576941,0,0,43386.322907084,43387.3699398705,1,0,63,16,4
4,28,754.662848274165,1,0,43388.9698999884,43390.0169320049,1,1,87,16,8
4,29,461.406158399768,0,0,43391.9110038143,43392.958033906,1,0,95,4,8
4,30,486.511869086826,0,0,43394.4521212679,43395.4991494348,1,0,85,0,16
4,31,493.605572024535,1,0,43397.063815426,43398.1108462877,1,1,63,8,8
4,32,748.587755959306,1,0,43399.6637589905,43400.7107886973,1,1,87,16,16
4,33,431.404495357128,1,0,43402.4989738919,43403.5460066784,1,1,75,8,8
4,34,533.304439006315,0,0,43405.1341977245,43406.1812332057,1,0,90,0,4
4,35,656.590971164405,1,0,43407.8047264627,43408.8517577093,1,1,99,4,0
4,36,499.028537960839,0,0,43410.5223068506,43411.5693330927,1,0,95,8,4
4,37,612.125114261289,0,0,43413.2634184527,43414.3104454648,1,0,91,8,8
4,38,401.735054911114,0,0,43415.9927605981,43417.0397922297,1,0,84,8,4
4,39,723.627561077592,1,1,43418.5456359596,43419.592669131,1,0,70,8,16
4,40,737.941234634491,1,0,43421.7573152581,43422.8043549739,1,1,84,0,16
4,41,487.351857140311,0,0,43424.6160783122,43425.6631072491,1,0,85,0,4
4,42,732.225697247486,0,0,43427.263067367,43428.3100970737,1,0,62,0,4
4,43,541.73704131972,0,0,43430.1924475466,43431.2394414519,1,0,61,16,8
4,44,538.976090676442,0,0,43432.8982176717,43433.9452489183,1,0,75,4,4
4,45,640.036046264868,0,0,43435.6510918013,43436.6981245878,1,0,70,4,16
4,46,639.119065723207,1,0,43438.4980827039,43439.5451162603,1,1,80,0,8
4,47,758.503233606461,0,0,43441.3685975064,43442.4156333726,1,0,98,16,16
4,48,612.294882696006,1,0,43444.2979434245,43445.3449804455,1,1,75,8,8
4,49,544.743982965883,1,0,43447.1214011879,43448.1684293548,1,1,78,4,16
4,50,498.280555926613,1,0,43449.8507417934,43450.8977803544,1,1,86,0,8
4,51,684.272465558024,1,0,43452.4859710155,43453.5330018772,1,1,71,16,16
4,52,763.307564899151,0,0,43455.2859033391,43456.3329334308,1,0,64,8,4
4,53,791.061817195441,1,0,43458.1211278646,43459.1681683503,1,1,81,16,0
4,54,515.751306491438,1,0,43461.0622590228,43462.1092660168,1,1,68,4,8
4,55,611.927628524427,1,0,43463.6621694806,43464.7092388385,1,1,61,0,0
4,56,608.173859742237,0,0,43466.3679788718,43467.4150074237,1,0,81,16,0
4,57,523.209568855236,0,0,43469.2149720841,43470.2620029458,1,0,73,0,4
4,58,565.927696283325,0,0,43471.8619646036,43472.9089958502,1,0,79,0,4
4,59,466.993888265279,0,0,43474.6618946174,43475.7089289437,1,0,84,8,16
4,60,662.233365692373,1,0,43477.3206473545,43478.3676824507,1,1,69,16,8
4,61,701.906055226573,1,0,43480.0499945044,43481.0970280608,1,1,80,4,8
4,62,689.310469053453,0,0,43482.920508922,43483.9675455581,1,0,77,4,4
4,63,954.210825373593,0,0,43485.8498479107,43486.8968814671,1,0,63,16,4
4,64,547.930702065059,0,0,43488.9438923107,43489.9909274069,1,0,62,8,16
4,65,646.741322096204,1,0,43491.6379518782,43492.6850451038,1,1,79,8,4
4,66,687.043425226875,1,0,43494.3908202334,43495.4378480154,1,1,88,8,0
4,67,659.039332305838,0,0,43497.2848627856,43498.3318971119,1,0,87,0,16
4,68,759.349766020023,1,0,43500.0024454832,43501.0494667208,1,1,61,8,16
4,69,528.798068640754,1,0,43502.9200173249,43503.9670551159,1,1,67,4,0
4,70,405.334068789671,1,0,43505.6846566767,43506.7316825339,1,1,72,4,8
4,71,543.694575339032,1,0,43508.2610928946,43509.3080948841,1,1,67,8,8
4,72,485.070954659022,1,0,43510.9786451802,43512.0256752719,1,1,73,4,16
4,73,727.919507357001,1,0,43513.6139563992,43514.6609314413,1,1,76,16,16
4,74,475.307537177287,0,0,43516.4843907447,43517.5314185266,1,0,61,0,8
4,75,575.685339317715,1,0,43519.2020207927,43520.2489996844,1,1,68,0,16
4,76,881.653104108409,1,0,43521.9430777302,43522.9901082069,1,1,92,8,0
4,77,455.999360885471,1,0,43525.06064834,43526.1076730422,1,1,94,8,0
4,78,436.999154546356,0,0,43527.6605842052,43528.7076146819,1,0,74,4,16
4,79,518.948034608911,1,0,43530.2016912648,43531.2487221265,1,1,100,0,16
4,80,481.194382853573,0,0,43532.9545680892,43534.0015947162,1,0,73,0,0
4,81,466.110399458557,0,0,43553.6834632931,43554.7304980044,2,0,84,0,4
4,82,359.607844839047,0,0,43556.3658011393,43557.4127981242,2,0,86,0,8
4,83,362.339923303807,0,0,43558.8951037105,43559.9421330323,2,0,76,0,8
4,84,444.599468064553,1,0,43561.4479829216,43562.4950037742,2,1,75,16,0
4,85,412.977883061103,1,0,43564.0243871876,43565.0714118899,2,1,98,0,0
4,86,599.290851365367,0,0,43566.5890281562,43567.6360536284,2,0,78,8,0
4,87,549.293084150122,0,0,43569.2830769448,43570.3301035719,2,0,79,4,16
4,88,502.885476678784,1,0,43572.0594757444,43573.1065708948,2,1,96,8,4
4,89,776.853623341594,0,0,43574.8005881164,43575.8476270623,2,0,100,8,16
4,90,462.712335967808,1,0,43577.6475867183,43578.6946137303,2,1,67,4,16
4,91,512.570361817779,1,0,43580.3298633554,43581.3768953719,2,1,62,0,16
4,92,565.717121819034,1,0,43583.0827320955,43584.1297679617,2,1,71,4,0
4,93,666.13534501812,0,0,43585.7532558292,43586.8002901555,2,0,98,16,4
4,94,564.517578844971,1,0,43588.6237756363,43589.6708107325,2,1,84,8,8
4,95,549.722702242434,0,0,43591.2825861177,43592.3295861824,2,0,81,0,4
4,96,624.165199624258,1,0,43593.9059962228,43594.9530255446,2,1,98,16,4
4,97,671.580638780142,0,0,43596.7647504228,43597.8117828243,2,0,77,16,8
4,98,588.878387206933,0,0,43599.5294182618,43600.576422561,2,0,89,4,0
4,99,561.336249222222,1,0,43602.2469697774,43603.2939925549,2,1,90,4,4
4,100,707.714753538312,1,0,43605.0116095142,43606.0586338315,2,1,73,8,4
4,101,700.185273111856,1,0,43607.8938856893,43608.9409200157,2,1,77,8,8
4,102,546.669565097545,0,0,43610.752642969,43611.7996711359,2,0,87,16,16
4,103,598.054351998144,1,0,43613.3761081237,43614.4231355207,2,1,67,16,16
4,104,455.727192435006,0,0,43616.1525046135,43617.1995312405,2,0,65,16,8
4,105,494.141439739906,0,0,43618.6700889279,43619.7171186347,2,0,78,4,4
4,106,624.154420678678,0,0,43621.222968524,43622.2699986158,2,0,75,8,16
4,107,418.883976861252,0,0,43623.9993653987,43625.0463981852,2,0,65,4,4
4,108,411.433028777537,1,0,43626.6345984704,43627.6816320268,2,1,65,8,8
4,109,363.3808617451,0,0,43629.1286523405,43630.1756858969,2,0,65,0,4
4,110,777.326742179866,1,0,43631.5756553309,43632.622681958,2,1,90,16,4
4,111,600.961203410407,1,0,43634.5520498188,43635.5990783707,2,1,90,8,16
4,112,518.169640556152,1,0,43637.2578692191,43638.304897386,2,1,72,0,16
4,113,749.186757522693,1,0,43639.8578004648,43640.9048340212,2,1,98,16,4
4,114,629.436490366061,0,0,43642.8224335802,43643.8694613622,2,0,70,8,8
4,115,638.709465689317,0,0,43645.6341434448,43646.6811681471,2,0,94,16,4
4,116,515.574223762087,0,0,43648.410524536,43649.4575646368,2,0,74,16,0
4,117,540.207970494521,1,0,43650.9986997987,43652.0457275806,2,1,77,4,16
4,118,474.588812299771,0,1,43653.669227382,43654.7162809564,2,1,93,4,16
4,119,788.467170328659,1,0,43656.2103325168,43657.2573641484,2,1,89,8,4
4,120,682.209836792026,0,0,43659.2337936679,43660.2808183702,2,0,88,16,0
4,121,764.109826624917,1,0,43662.1278342953,43663.1748678517,2,1,99,8,0
4,122,514.599113892473,1,0,43665.1512954464,43666.1983178389,2,1,84,16,16
4,123,635.85650902678,0,0,43667.8688742944,43668.9159074659,2,0,62,0,0
4,124,564.778583386214,0,0,43670.609991671,43671.6570236876,2,0,68,0,8
4,125,659.747663201415,0,0,43673.2452089592,43674.2922363562,2,0,63,4,8
4,126,493.208675739879,0,0,43676.1157279964,43677.1627557784,2,0,77,0,8
4,127,683.644591816119,1,0,43678.6921287977,43679.7391623541,2,1,61,0,16
4,128,755.589452877757,0,0,43681.5391235499,43682.5861482522,2,0,96,16,8
4,129,623.841831176833,1,0,43684.5390442477,43685.5860743394,2,1,93,4,0
4,130,930.34777345747,1,0,43687.2683948622,43688.3154237991,2,1,100,16,0
4,131,495.833734639746,0,0,43690.3859589277,43691.4329882495,2,0,83,4,16
4,132,459.213797286793,0,0,43692.9623662734,43694.0094021395,2,0,65,0,0
4,133,756.778601862607,1,0,43695.5858422071,43696.6328669093,2,1,70,8,16
4,134,700.069014448673,1,0,43698.5386989363,43699.5857313379,2,1,100,8,8
4,135,670.440764981322,1,0,43701.3033344385,43702.3503653002,2,1,76,8,4
4,136,462.058669741964,1,0,43704.232675737,43705.2797096783,2,1,98,16,16
4,137,971.33010521793,1,0,43706.8914377132,43707.9384628004,2,1,61,16,8
4,138,421.980229795736,1,0,43710.0795919568,43711.1266232035,2,1,84,0,0
4,139,685.525518310897,0,0,43712.7501253146,43713.7971403928,2,0,64,16,16
4,140,460.743638032,0,0,43715.6088698905,43716.6558934379,2,0,65,0,0
4,141,680.892110351124,0,0,43718.2088257738,43719.255830843,2,0,94,8,0
4,142,623.459948430536,0,0,43720.9969728571,43722.0439956346,2,0,93,8,0
4,143,521.521893511817,1,0,43723.7380756052,43724.7851110864,2,1,92,4,8
4,144,723.667212208966,1,0,43726.4909493498,43727.5379775167,2,1,99,4,4
4,145,671.190671819204,1,0,43729.467351152,43730.5143746994,2,1,74,4,8
4,146,753.551076741132,1,0,43732.3378640298,43733.3848918118,2,1,71,16,8
4,147,509.990728489356,1,0,43735.2554351016,43736.3024713527,2,1,100,0,16
4,148,520.997959625674,0,0,43737.9494885097,43738.9965239909,2,0,63,0,4
4,149,725.864577834727,1,0,43740.5376930295,43741.5846869348,2,1,81,4,4
4,150,597.370658702857,0,0,43743.3728829084,43744.4199133851,2,0,71,4,8
4,151,526.531024814176,0,0,43746.0786961492,43747.1257266259,2,0,81,0,8
4,152,427.479418292933,1,0,43748.6668737216,43749.7139041983,2,1,74,0,4
4,153,608.607327449135,1,0,43751.3138697057,43752.3608917132,2,1,68,8,16
4,154,478.114298355649,0,0,43754.1373274692,43755.184356406,2,0,74,8,0
4,155,759.380178053107,1,0,43756.749023937,43757.796052104,2,1,88,0,16
4,156,651.630730084435,0,0,43759.6195398945,43760.6665707562,2,0,87,16,0
4,157,511.745387302653,0,0,43762.3253608346,43763.3724309625,2,0,65,8,4
4,158,651.279644342139,0,0,43764.9370549927,43765.9840920138,2,0,98,4,0
4,159,812.460724519042,0,0,43767.7487494588,43768.7957860949,2,0,91,4,8
4,160,829.239697559387,0,0,43770.7839681329,43771.831004769,2,0,81,4,0
4,161,596.596114264685,0,0,43781.9836943476,43783.0307217446,3,0,74,8,8
4,162,499.848892919545,1,0,43784.8071544208,43785.8541887472,3,1,96,8,16
4,163,497.852862659784,0,0,43787.4541480951,43788.5011720275,3,0,84,8,0
4,164,571.757952478947,1,0,43790.1482619424,43791.1952677815,3,1,87,0,16
4,165,488.455159495061,1,0,43792.9246003028,43793.97162616,3,1,83,8,16
4,166,551.119730946084,0,0,43795.5598306797,43796.6068607715,3,0,78,8,0
4,167,580.897730797005,0,0,43798.3479935466,43799.3950317225,3,0,67,8,8
4,168,439.919479642413,1,0,43801.1832219217,43802.2302547082,3,1,64,0,16
4,169,450.030903171864,0,0,43803.7478578858,43804.7948956768,3,0,63,16,8
4,170,481.322575353261,1,0,43806.3595601281,43807.40658868,3,1,93,0,4
4,171,429.707195951778,1,0,43808.9712646802,43810.0182893825,3,1,95,16,8
4,172,753.514505311614,0,0,43811.4535567928,43812.5005838049,3,0,92,8,4
4,173,615.712194303342,0,0,43814.4182414932,43815.4652407879,3,0,89,4,4
4,174,475.578165780462,1,0,43817.1122306126,43818.1592626292,3,1,78,0,8
4,175,685.492411546875,1,0,43819.747466764,43820.7944953159,3,1,92,0,4
4,176,654.61072436301,0,0,43822.6532749233,43823.7003107895,3,0,90,8,4
4,177,430.878251703689,0,0,43825.5590919368,43826.6061231834,3,0,94,4,8
4,178,699.225946700608,1,0,43828.1237332904,43829.1707626122,3,1,91,4,0
4,179,603.898466848477,1,0,43830.9118946174,43831.9589289437,3,1,98,16,4
4,180,410.887921956601,1,0,43833.7000682632,43834.7470918105,3,1,63,0,0
4,181,678.929186855385,0,0,43836.3117658859,43837.3587944378,3,0,68,8,4
4,182,765.460659837117,1,0,43839.1234591971,43840.1704896738,3,1,78,16,0
4,183,482.904386029986,0,0,43842.0998575347,43843.146882237,3,0,87,16,8
4,184,485.807387820387,0,0,43844.746851594,43845.7938851504,3,0,77,0,4
4,185,483.151146960154,0,0,43847.3114914077,43848.3585214995,3,0,96,0,0
4,186,526.066375146911,1,0,43850.0055421211,43851.0525741377,3,1,97,8,4
4,187,409.540938366263,0,0,43852.664296783,43853.7113330342,3,0,77,0,4
4,188,611.884897691198,1,0,43855.2877611678,43856.3348578581,3,1,70,16,0
4,189,431.720934488112,1,0,43858.0171002335,43859.06413302,3,1,65,4,0
4,190,416.538785655575,1,0,43860.6641039168,43861.7111320838,3,1,65,16,4
4,191,558.148760195763,1,0,43863.2875663768,43864.3345972385,3,1,95,8,0
4,192,563.418126112083,1,0,43865.9580878008,43867.0051209722,3,1,79,4,4
4,193,598.693774612912,0,0,43868.7697922759,43869.8168212127,3,0,85,0,0
4,194,483.407916908618,1,1,43871.4991255671,43872.5461552739,3,0,68,8,8
4,195,865.92122890579,0,0,43874.1225861023,43875.1696227384,3,0,75,8,16
4,196,547.988831393013,1,0,43877.0754578452,43878.1224894767,3,1,84,4,4
4,197,562.008008681005,0,0,43879.8636272563,43880.9107143225,3,0,69,4,4
4,198,601.494761358481,1,0,43882.6400410694,43883.6870561476,3,1,100,0,8
4,199,809.074594872072,1,0,43885.3576730422,43886.404641155,3,1,61,8,16
4,200,455.553189414786,1,0,43888.3340020866,43889.381035643,3,1,77,8,8
4,201,617.195839557098,0,0,43890.9692293838,43892.0162667898,3,0,81,4,16
4,202,657.081798279251,1,0,43893.7573949454,43894.8044327364,3,1,74,8,8
4,203,523.944077198394,0,0,43896.4985127069,43897.5456043927,3,0,82,16,16
4,204,402.620083572401,0,0,43899.0749123534,43900.1219482195,3,0,81,4,8
4,205,559.074209901155,0,0,43901.5925009024,43902.6395317641,3,0,87,0,8
4,206,520.595673864591,1,0,43904.2747852388,43905.3218134057,3,1,65,0,16
4,207,609.650960635918,1,0,43907.0158995357,43908.0629257778,3,1,85,4,16
4,208,713.900715025375,0,0,43909.8276579055,43910.8746237085,3,0,90,16,4
4,209,546.874750085408,1,0,43912.7334044709,43913.7804361025,3,1,99,4,8
4,210,479.485919539002,0,0,43915.4627450764,43916.5097720885,3,0,61,0,16
4,211,545.712933431787,1,1,43918.1685675564,43919.215588794,3,0,99,4,16
4,212,790.790418672259,0,0,43920.9214790273,43921.9684652333,3,0,62,16,16
4,213,585.735553824634,1,0,43923.9095936969,43924.9566249435,3,1,69,8,0
4,214,530.496522944304,0,0,43926.7448193772,43927.7918537036,3,0,97,0,16
4,215,695.556869657594,1,0,43929.4506364677,43930.4976661745,3,1,92,8,4
4,216,906.805395250558,1,0,43932.2035071327,43933.2505441537,3,1,79,16,4
4,217,662.431621356518,0,0,43935.285781306,43936.3328106278,3,0,71,16,0
4,218,479.638749631704,1,0,43938.085719404,43939.132746801,3,1,67,8,16
4,219,471.395548833243,1,0,43940.6738861975,43941.7209201388,3,1,64,0,4
4,220,723.444318959082,0,0,43943.2855826654,43944.332613527,3,0,70,16,16
4,221,509.575354015396,0,0,43946.2266941905,43947.2737262071,3,0,87,4,0
4,222,474.270063394215,0,0,43948.9677950137,43950.0148254904,3,0,76,8,0
4,223,483.002166489314,1,0,43951.5912936602,43952.6383021941,3,1,65,4,0
4,224,799.494804472488,1,0,43954.320611553,43955.3676439545,3,1,91,16,4
4,225,625.074480914918,0,0,43957.191121736,43958.2381568322,3,0,93,16,8
4,226,708.696407760726,0,0,43959.9322352629,43960.9792761336,3,0,68,4,0
4,227,743.865806638496,1,0,43962.8380430373,43963.8850750539,3,1,74,4,8
4,228,507.029982341919,0,0,43965.7438596659,43966.7908893726,3,0,86,16,16
4,229,641.516611824045,1,0,43968.3555588285,43969.4025877654,3,1,88,16,0
4,230,611.033360772126,1,0,43971.1790146671,43972.2260482236,3,1,79,16,0
4,231,663.362075574696,1,0,43973.8495418655,43974.8965715723,3,1,100,16,16
4,232,626.335232918791,0,0,43976.7435848027,43977.7906164343,3,0,99,0,0
4,233,759.331672787084,0,0,43979.4376378259,43980.4846594484,3,0,96,4,16
4,234,679.613650077954,1,0,43982.3434459852,43983.3904772319,3,1,81,16,8
4,235,905.121954485367,0,0,43985.2727853589,43986.319811601,3,0,78,4,4
4,236,552.349300982314,0,0,43988.2844778232,43989.3315013705,3,0,78,4,16
4,237,531.254898960469,0,0,43991.0726360704,43992.1196719366,3,0,99,0,8
4,238,507.383762822428,0,0,43993.7196366741,43994.7666667658,3,0,99,0,8
4,239,506.217711583304,1,0,43996.4725096488,43997.5195408954,3,1,75,4,8
4,240,463.119626234402,1,0,43999.2136166314,44000.2606436434,3,1,63,0,0
4,241,500.251948600635,1,0,44014.507357989,44015.5543842311,4,1,66,16,4
4,242,367.535761390172,1,0,44017.1661103411,44018.2131400479,4,1,76,0,16
4,243,594.907284023066,0,0,44019.6366437758,44020.6837173684,4,0,79,8,0
4,244,793.535970813537,1,0,44022.4601011543,44023.5071350957,4,1,81,8,4
4,245,624.068959019496,1,0,44025.3776626021,44026.4247077073,4,1,61,8,16
4,246,443.058463395573,0,0,44028.1305490505,44029.1775768324,4,0,100,0,0
4,247,387.478355791245,1,0,44030.6951927138,44031.7422193409,4,1,84,0,8
4,248,402.607379808615,1,0,44033.2480726948,44034.2950973971,4,1,84,4,0
4,249,449.282536181272,1,0,44035.824475421,44036.8715051278,4,1,76,0,16
4,250,528.604432533029,0,0,44038.4479401908,44039.4949679727,4,0,79,4,16
4,251,512.305122691032,0,0,44041.2243455347,44042.2713752414,4,0,87,4,16
4,252,525.771108957997,1,0,44043.9066368003,44044.9537238665,4,1,77,8,4
4,253,699.205158729455,0,0,44046.6595070803,44047.7065360172,4,0,92,4,8
4,254,687.694011750864,1,0,44049.5418306058,44050.5888110374,4,1,70,0,0
4,255,450.060160314024,0,0,44052.3534838809,44053.4005139727,4,0,84,4,4
4,256,445.432526779769,1,0,44055.0239999154,44056.0710353966,4,1,86,0,8
4,257,819.450872557354,1,0,44057.6709997491,44058.7180290709,4,1,91,4,0
4,258,546.339267326402,1,0,44060.7062149585,44061.7532412006,4,1,64,4,4
4,259,642.479017929873,0,0,44063.4708520005,44064.5178805524,4,0,99,8,8
4,260,553.173120613792,0,0,44066.200192991,44067.2472253925,4,0,98,8,0
4,261,634.757441250258,0,0,44068.9295874913,44069.9765744672,4,0,89,8,0
4,262,654.106808520737,0,0,44071.6353576163,44072.6823865532,4,0,81,8,8
4,263,410.572252760176,1,0,44074.3647055361,44075.4117283136,4,1,76,0,8
4,264,628.497566962324,0,0,44076.8469891796,44077.8940258157,4,0,62,4,16
4,265,417.575104562275,0,0,44079.6469176535,44080.693950825,4,0,66,0,4
4,266,442.224249782157,1,0,44082.2350886816,44083.2821276274,4,1,67,16,4
4,267,429.338016969268,0,0,44084.8820819709,44085.9291178371,4,0,66,8,8
4,268,642.995252572291,1,0,44087.4232017343,44088.4702325959,4,1,92,16,16
4,269,706.762741414423,1,0,44090.1996078481,44091.2466379398,4,1,67,16,8
4,270,574.724088102812,1,0,44093.1054441097,44094.1524426345,4,1,94,8,16
4,271,562.269783142256,1,0,44095.8229937006,44096.8700291818,4,1,98,4,8
4,272,400.210218671418,0,0,44098.4699892997,44099.5170209313,4,0,76,0,0
4,273,656.774213290191,1,0,44100.9993877266,44102.046379322,4,1,67,16,4
4,274,477.288168949599,0,0,44103.7169161445,44104.7639523956,4,0,74,16,8
4,275,780.786399664066,1,0,44106.2933616015,44107.3403612812,4,1,100,4,16
4,276,417.595892533427,0,0,44109.2697260623,44110.3167542293,4,0,64,8,0
4,277,554.814600473037,1,0,44111.9284768746,44112.9755112009,4,1,66,4,4
4,278,473.729961086065,1,1,44114.7284107381,44115.7754415997,4,0,98,8,16
4,279,815.759467688622,1,0,44117.2695201074,44118.3165494293,4,1,71,16,0
4,280,634.249675786123,1,0,44120.2929843383,44121.3400136601,4,1,62,16,4
4,281,628.032532331417,1,0,44123.1399602273,44124.1869980183,4,1,91,8,0
4,282,518.636215034348,1,0,44125.8693639667,44126.9163582569,4,1,71,0,0
4,283,568.492316073389,1,0,44128.5045369842,44129.5515690007,4,1,90,8,16
4,284,719.827211840311,1,0,44131.2103598491,44132.2573860912,4,1,90,16,0
4,285,529.067157389363,1,0,44134.1279328457,44135.1749587028,4,1,99,0,4
4,286,492.309018518426,0,0,44136.7396323933,44137.7866582504,4,0,64,4,16
4,287,541.69546537014,0,0,44139.45727553,44140.5042378684,4,0,67,8,8
4,288,447.406614199281,0,0,44142.1865530017,44143.2335857882,4,0,65,8,4
4,289,607.369673198264,1,0,44144.7747232598,44145.8217602809,4,1,74,8,8
4,290,575.22646409052,0,0,44147.6217099278,44148.6687469489,4,0,89,0,4
4,291,412.798105600814,1,0,44150.3510967288,44151.3980902491,4,1,85,0,16
4,292,472.687867753848,0,0,44152.9862889945,44154.0333152366,4,0,86,16,4
4,293,505.851997266291,0,0,44155.5979927766,44156.6450579,4,0,64,8,16
4,294,534.630634625501,1,0,44158.2332116047,44159.2802486258,4,1,75,8,4
4,295,497.056760323176,0,0,44160.8449107673,44161.8919504831,4,0,83,4,4
4,296,671.683808708622,0,0,44163.5272047277,44164.57422943,4,0,69,16,16
4,297,563.962078049371,0,0,44166.3388938043,44167.385986645,4,0,86,16,0
4,298,526.146832300583,0,0,44169.1505932749,44170.1976252915,4,0,99,4,0
4,299,386.599486533669,1,0,44171.7740588146,44172.8210916011,4,1,75,0,0
4,300,678.732856009447,1,0,44174.2799418107,44175.3269518844,4,1,80,16,8
4,301,520.967932556232,1,0,44177.1856910708,44178.2327207776,4,1,77,16,0
4,302,423.97549013549,0,0,44179.9267995932,44180.9738978233,4,0,86,8,4
4,303,673.795712667925,1,0,44182.4209319957,44183.467894334,4,1,62,16,16
4,304,466.952697279339,1,0,44185.2678867118,44186.3148848517,4,1,85,4,8
4,305,516.114711033879,0,0,44187.9736545271,44189.0206903933,4,0,83,16,8
4,306,449.373002353241,1,0,44190.6912360698,44191.7382661616,4,1,95,16,0
4,307,573.146896975231,0,0,44193.3735296453,44194.4205570423,4,0,89,4,4
4,308,591.959626603057,0,0,44196.0558182162,44197.1028483079,4,0,88,16,16
4,309,469.787945672579,1,0,44198.9028014195,44199.9498380556,4,1,67,0,4
4,310,733.729360552388,0,0,44201.5497958637,44202.5968290352,4,0,81,4,8
4,311,636.097495516879,0,0,44204.4085531434,44205.4555793855,4,0,98,16,8
4,312,594.222435844131,1,0,44207.2084827722,44208.2555067046,4,1,94,4,0
4,313,428.399478529172,0,0,44209.9260581556,44210.9730878624,4,0,75,16,16
4,314,519.634422649688,0,0,44212.4789408314,44213.525961684,4,0,75,0,8
4,315,752.057037498162,1,0,44215.102396747,44216.1494322282,4,1,71,4,8
4,316,543.169486561965,0,0,44217.949393809,44218.9964196661,4,0,62,0,8
4,317,429.677168882336,0,0,44220.7257887589,44221.7728230852,4,0,66,4,0
4,318,408.118117178674,0,0,44223.2904308824,44224.337462129,4,0,68,0,16
4,319,559.671671617252,0,0,44225.9138987319,44226.9609299785,4,0,99,0,4
4,320,507.559690660855,0,0,44228.7138322103,44229.7608615322,4,0,64,0,16
4,321,737.682539875095,0,0,44245.0546737229,44246.1016318266,5,0,82,16,8
4,322,490.93624244415,1,0,44248.0075088942,44249.0545027995,5,1,64,8,4
4,323,557.766492485825,1,0,44250.5956402712,44251.6426738276,5,1,62,4,0
4,324,433.378582769365,0,0,44253.3838023681,44254.4308339997,5,0,76,0,0
4,325,413.710851549695,0,0,44255.9485715292,44256.9954915217,5,0,75,16,4
4,326,653.604047569388,0,0,44258.5366162895,44259.5836548505,5,0,81,16,0
4,327,433.569524138875,0,0,44261.3836110417,44262.4306368989,5,0,76,16,16
4,328,410.019061724597,1,0,44263.9012015156,44264.9482296825,5,1,76,8,4
4,329,605.398665487883,0,0,44266.4658317053,44267.5128644918,5,0,63,4,4
4,330,806.242426173412,0,0,44269.3010604654,44270.3480897872,5,0,68,16,4
4,331,455.045423950651,0,0,44272.3480512909,44273.395077918,5,0,69,0,0
4,332,383.314602004248,0,0,44275.0538633769,44276.1008884641,5,0,67,0,8
4,333,457.421412145777,0,1,44277.5126177308,44278.5596501324,5,1,93,4,8
4,334,818.455744636594,1,0,44280.0537336446,44281.1007645062,5,1,95,16,4
4,335,651.455572180566,0,0,44282.9477804314,44283.9948155276,5,0,93,16,8
4,336,715.434020436078,0,0,44285.85359552,44286.9006290764,5,0,90,8,8
4,337,686.633055265702,1,0,44288.7123870613,44289.759377117,5,1,98,0,16
4,338,520.256906915165,1,0,44291.4769844522,44292.5240168537,5,1,88,0,0
4,339,412.273016831023,1,0,44294.1357429637,44295.1827695908,5,1,87,0,4
4,340,626.0103246168,0,0,44296.7122053591,44297.7592115831,5,0,96,4,8
4,341,572.3650382497,0,0,44299.5238382312,44300.5708717876,5,0,84,8,8
4,342,625.097578667919,0,0,44302.2178904844,44303.2649278905,5,0,67,8,16
4,343,541.474881894828,1,0,44304.935473567,44305.9825021189,5,1,68,0,4
4,344,591.507680692303,1,0,44307.6883519312,44308.7353774034,5,1,92,0,0
4,345,590.737755803275,1,0,44310.4882804052,44311.5353135766,5,1,62,8,0
4,346,526.999909066944,0,0,44313.299977951,44314.347015357,5,0,68,4,4
4,347,516.781850943516,1,0,44315.9352017835,44316.9822318753,5,1,82,0,16
4,348,453.989087007358,0,0,44318.6998430601,44319.7468704571,5,0,76,4,8
4,349,598.666442281683,1,0,44321.3821401002,44322.4291574882,5,1,94,8,4
4,350,435.63407772308,0,0,44324.229169884,44325.2761641742,5,0,94,4,0
4,351,520.546398678562,0,0,44326.758464371,44327.8054956177,5,0,96,8,0
4,352,634.583823186404,1,0,44329.5113392706,44330.5583747518,5,1,62,8,16
4,353,416.248523972172,1,0,44332.2406844956,44333.287718822,5,1,75,0,4
4,354,414.295224538364,1,0,44334.7464997383,44335.7935356045,5,1,84,8,4
4,355,590.029424914974,1,0,44337.3817381994,44338.4287590521,5,1,63,16,8
4,356,475.781040986476,0,0,44340.122845567,44341.1699353279,5,0,76,0,8
4,357,493.24101259117,1,0,44342.828657653,44343.8756919793,5,1,73,4,4
4,358,632.51541997306,0,0,44345.3932959269,44346.4403275585,5,0,68,0,4
4,359,875.1379997193,1,0,44348.1697055053,44349.2167344422,5,1,71,16,16
4,360,408.798345823016,0,0,44351.1578767644,44352.2049014666,5,0,71,4,16
4,361,697.235690866364,0,0,44353.6754514548,44354.722486551,5,0,62,4,4
4,362,533.90613530064,0,0,44356.5577357141,44357.6048308645,5,0,97,4,4
4,363,452.600912438356,0,0,44359.3341364385,44360.381158446,5,0,64,4,16
4,364,692.496418232622,0,0,44361.8752461928,44362.9222766695,5,0,81,8,16
4,365,499.832724504813,0,0,44364.7458110405,44365.7927972465,5,0,85,8,16
4,366,654.353184487263,1,0,44367.310412358,44368.3574332106,5,1,92,0,16
4,367,498.427996550163,1,0,44370.063281868,44371.1103111899,5,1,82,4,0
4,368,653.600582911167,1,0,44372.7220365299,44373.7690654668,5,1,67,16,16
4,369,542.770280510013,1,0,44375.4396188426,44376.4867124532,5,1,78,8,8
4,370,684.277470070811,1,0,44378.1454309286,44379.1924587105,5,1,100,16,0
4,371,516.405742637289,0,0,44381.004180124,44382.0512190699,5,0,66,8,0
4,372,565.906523341255,0,0,44383.6864767791,44384.7335068709,5,0,94,16,0
4,373,698.105705989292,0,0,44386.3805271076,44387.4275552745,5,0,99,16,8
4,374,704.176178755006,1,0,44389.239276303,44390.2863090895,5,1,95,0,8
4,375,529.249629595142,1,0,44392.0392120913,44393.0862360236,5,1,82,0,4
4,376,629.739070835058,1,0,44394.6626795558,44395.7097019483,5,1,73,0,0
4,377,525.666399167676,1,0,44397.4037815339,44398.4508154753,5,1,68,0,16
4,378,569.749218448123,1,0,44400.1095963146,44401.1566945447,5,1,70,4,0
4,379,477.042177946714,0,0,44402.7683540562,44403.8153903073,5,0,86,16,4
4,380,408.04150965414,0,0,44405.3094634256,44406.3564992917,5,0,87,4,8
4,381,501.556201357744,1,0,44407.932932045,44408.9799682961,5,1,85,8,8
4,382,546.076722937869,0,0,44410.5563933501,44411.6034242118,5,0,82,16,8
4,383,669.784788973629,1,0,44413.2504544575,44414.2975026425,5,1,89,16,4
4,384,769.253309830674,0,0,44416.1092225161,44417.156230665,5,0,99,8,0
4,385,649.279764445964,1,0,44419.0150172017,44420.0620430589,5,1,98,4,16
4,386,647.622501128353,1,0,44421.8267132077,44422.873737525,5,1,84,8,16
4,387,469.34831856197,0,0,44424.5560565079,44425.6030842899,5,0,96,16,16
4,388,478.218238218687,0,0,44427.203042868,44428.2500733447,5,0,65,4,8
4,389,436.890210177808,0,0,44429.9324065712,44430.9794228043,5,0,84,4,16
4,390,379.000712877314,0,0,44432.591151994,44433.638179776,5,0,75,8,8
4,391,417.612445919076,1,0,44435.120498836,44436.1675316224,5,1,75,4,0
4,392,458.637123541848,1,0,44437.7674894305,44438.8145256817,5,1,66,16,16
4,393,440.139293190441,0,0,44440.3909526605,44441.4379923763,5,0,87,8,4
4,394,637.61501746194,1,0,44443.0026564427,44444.0496934637,5,1,99,16,0
4,395,433.100254922465,1,0,44445.8731762497,44446.9202125009,5,1,64,0,16
4,396,406.612914026482,1,0,44448.4495812857,44449.4966125323,5,1,65,0,8
4,397,746.637536220078,1,0,44451.0024631915,44452.0494921284,5,1,90,16,0
4,398,564.06832767243,1,0,44453.9670928422,44455.014122549,5,1,88,0,8
4,399,698.637339119159,0,0,44456.6494229891,44457.6964072703,5,0,99,4,16
4,400,657.772035941889,0,0,44459.54342743,44460.5904529022,5,0,82,8,0
4,401,564.326252511819,0,0,44474.5665852308,44475.6136149375,6,0,73,4,4
4,402,751.868405903224,0,0,44477.3429886498,44478.3900241311,6,0,70,8,16
4,403,442.029458783509,1,0,44480.2958507686,44481.3428850949,6,1,67,4,4
4,404,525.492396147456,0,0,44482.8134447072,44483.8604686395,6,0,69,4,8
4,405,568.722138654266,0,0,44485.5780821341,44486.6251133808,6,0,77,16,4
4,406,792.332963173976,1,0,44488.2956559776,44489.3426864543,6,1,62,8,4
4,407,829.836004377285,1,0,44491.3191217483,44492.366141831,6,1,71,8,16
4,408,406.291855353629,0,0,44494.3425655761,44495.3895983626,6,0,95,0,8
4,409,594.696324609686,0,0,44496.9072073147,44497.9542404861,6,0,82,8,8
4,410,604.002406711516,0,0,44499.6248377476,44500.6718170243,6,0,88,8,8
4,411,827.862301935966,1,0,44502.4600183874,44503.5070473243,6,1,81,4,4
4,412,773.862080197432,0,0,44505.4599540987,44506.506978416,6,0,81,16,16
4,413,665.964806663396,1,0,44508.459931001,44509.5069287558,6,1,74,8,0
4,414,491.733114700764,1,0,44511.3539150389,44512.4009520599,6,1,85,4,16
4,415,526.168775155384,0,0,44514.0714911921,44515.1185247485,6,0,94,0,16
4,416,526.441713525855,1,0,44516.8361370883,44517.883157556,6,1,83,16,8
4,417,408.18125102669,0,0,44519.4595995483,44520.5066250205,6,0,82,8,16
4,418,618.916621679091,1,0,44521.953657268,44523.0006858199,6,1,99,8,8
4,419,433.740062500874,0,0,44524.6948277694,44525.7418401529,6,0,66,0,0
4,420,401.44902782049,1,0,44527.2241107076,44528.2711354098,6,1,76,0,4
4,421,562.969644866826,1,0,44529.8005138187,44530.8475535345,6,1,69,16,8
4,422,529.493310816179,0,0,44532.412216446,44533.4592503874,6,0,68,16,4
4,423,590.618802416429,0,0,44535.1298037632,44536.1769289406,6,0,69,4,16
4,424,454.948028454965,1,0,44537.9297564898,44538.9767677184,6,1,87,16,8
4,425,500.807064447145,1,0,44540.529733546,44541.5767436197,6,1,73,16,8
4,426,504.138529424381,1,0,44543.0943044515,44544.1413380079,6,1,72,16,0
4,427,603.259814160992,0,0,44545.7412992807,44546.7883316822,6,0,68,4,4
4,428,417.877685038548,1,0,44548.4118218595,44549.458854261,6,1,84,0,8
4,429,603.796066840005,1,0,44550.9176879172,44551.9646795127,6,1,95,16,4
4,430,558.035196270794,1,0,44553.6705143114,44554.7175451731,6,1,86,8,0
4,431,429.005024459912,0,0,44556.3175091406,44557.3645411572,6,0,77,8,0
4,432,399.528450187063,0,0,44558.8468609871,44559.8938860743,6,0,86,4,16
4,433,480.294725624844,0,0,44561.482090979,44562.5291145264,6,0,98,0,8
4,434,526.541803767032,1,0,44564.0349663405,44565.0819937375,6,1,76,16,0
4,435,541.179615705914,1,0,44566.7643084859,44567.8113474318,6,1,98,0,8
4,436,667.453456429939,0,0,44569.4818869489,44570.5289258948,6,0,81,0,0
4,437,529.551440144132,1,0,44572.328883241,44573.3759098681,6,1,89,0,0
4,438,774.40757198201,1,0,44575.0699844491,44576.1170210852,6,1,70,4,0
4,439,509.567654764396,1,0,44577.9287424987,44578.975777595,6,1,79,0,4
4,440,529.416318328003,0,0,44580.6580915734,44581.7051120411,6,0,97,16,4
4,441,437.61586437904,0,0,44583.3756673417,44584.4226935838,6,0,97,4,0
4,442,617.844116306514,0,0,44585.8814845092,44586.9285773498,6,0,65,16,16
4,443,443.742926625418,0,0,44588.6225984211,44589.6696281279,6,0,88,0,8
4,444,531.748035842611,1,0,44591.1284271375,44592.1754537645,6,1,69,4,4
4,445,433.416694046173,0,0,44593.7989447118,44594.8459728787,6,0,94,0,16
4,446,615.950101091585,1,0,44596.3753970981,44597.4224071718,6,1,78,8,4
4,447,582.472997120931,0,0,44599.1988063563,44600.245836448,6,0,65,8,0
4,448,729.21452101582,1,0,44601.9281488866,44602.9751793633,6,1,61,8,4
4,449,553.007201800938,1,0,44604.7163633384,44605.7633480046,6,1,97,16,16
4,450,767.794302169932,1,0,44607.4104182864,44608.4574033375,6,1,63,4,16
4,451,589.497021857824,0,0,44610.2926536555,44611.3396833623,6,0,81,4,8
4,452,812.208574119722,0,0,44613.0690520701,44614.1160821618,6,0,100,4,16
4,453,497.357415995793,0,0,44615.974864849,44617.0218914761,6,0,75,16,16
4,454,650.557839755493,1,0,44618.6336241304,44619.6806507575,6,1,100,0,16
4,455,483.155766509299,0,1,44621.4100256247,44622.4570549465,6,1,81,0,4
4,456,1076.20888824749,0,0,44623.9628963666,44625.0099333877,6,0,98,4,0
4,457,969.580065953778,1,0,44627.1745891389,44628.2216196156,6,1,83,8,4
4,458,435.420038600569,0,0,44630.2215757299,44631.2685985073,6,0,75,0,4
4,459,694.140592830081,1,0,44632.8097386737,44633.8567772346,6,1,82,8,8
4,460,715.928697180061,1,0,44635.7390799722,44636.7861131436,6,1,68,8,8
4,461,509.869850277028,0,0,44638.5861347785,44639.6330986567,6,0,64,0,0
4,462,461.489695248019,0,0,44641.2683544412,44642.3153822231,6,0,84,16,8
4,463,522.63366504485,1,0,44643.8212390417,44644.8682625891,6,1,64,0,16
4,464,591.58197844954,0,0,44646.4682296363,44647.5152547236,6,0,78,0,0
4,465,734.99973660364,1,0,44649.2328593641,44650.2799002348,6,1,73,0,4
4,466,498.440315350308,0,0,44652.0563279065,44653.1033576132,6,0,85,8,4
4,467,636.412009829655,1,0,44654.6915578984,44655.7385837556,6,1,71,4,8
4,468,628.158800005622,0,0,44657.4326679607,44658.4796957427,6,0,92,16,0
4,469,605.325907592487,1,0,44660.2796534738,44661.3266854904,6,1,70,8,16
4,470,690.867257173522,1,0,44663.0090048583,44664.05603495,6,1,82,0,16
4,471,465.407458032132,0,0,44665.8912814184,44666.9383138199,6,0,76,16,16
4,472,411.029973096447,1,0,44668.5147369491,44669.5617701205,6,1,77,16,0
4,473,420.771832687024,1,0,44671.0558517079,44672.1029391591,6,1,77,16,4
4,474,821.559696822078,0,0,44673.6910859345,44674.7381156413,6,0,90,8,16
4,475,461.836161448446,1,0,44676.6910108668,44677.7380409585,6,1,86,4,0
4,476,615.72104843799,1,0,44679.3850588855,44680.4320982163,6,1,90,4,8
4,477,546.738088414713,0,0,44682.1967614358,44683.2438612057,6,0,63,4,8
4,478,727.431759944011,0,0,44684.8672740056,44685.9143133364,6,0,78,16,0
4,479,421.475544033456,0,0,44687.8201480582,44688.8671827695,6,0,96,4,0
4,480,494.221511929936,0,0,44690.3024432505,44691.3494741121,6,0,85,8,0
4,481,619.795490929391,1,0,44702.7727722702,44703.8197546266,7,1,80,4,0
4,482,556.581193122838,0,0,44705.5491252592,44706.5961518862,7,0,62,0,8
4,483,668.233775300905,0,0,44708.2784670196,44709.3255025008,7,0,79,16,16
4,484,731.48233476968,0,0,44711.1019301725,44712.1489644988,7,0,81,16,4
4,485,485.814317136828,0,0,44713.9606959213,44715.007716389,7,0,67,0,4
4,486,546.945968133514,0,0,44716.6665026178,44717.7135227005,7,0,96,16,0
4,487,496.894306175818,0,0,44719.3017318399,44720.3487619316,7,0,74,8,0
4,488,657.440198316181,0,0,44721.9840154063,44723.0310478078,7,0,71,8,16
4,489,536.155085894279,1,0,44724.7604134359,44725.8074442975,7,1,95,4,4
4,490,617.372152359167,0,0,44727.4191715624,44728.4661985745,7,0,99,16,16
4,491,544.502226541226,1,0,44730.2308675684,44731.2778968902,7,1,88,16,4
4,492,527.937292616116,0,0,44732.8425736603,44733.8896068318,7,0,61,4,8
4,493,612.474660156295,0,0,44735.61897092,44736.6660033215,7,0,63,16,4
4,494,374.977470375597,0,0,44738.4424329181,44739.4894660895,7,0,65,8,0
4,495,424.620687190327,1,0,44741.0188314096,44742.0658707405,7,1,95,0,8
4,496,445.968779473333,0,0,44743.583516264,44744.6305086294,7,0,76,16,8
4,497,639.360052213306,0,0,44746.1010674717,44747.1480975634,7,0,72,8,0
4,498,896.959210840578,1,0,44748.8892322633,44749.9362596603,7,1,99,4,8
4,499,591.743662669614,0,0,44751.9715799645,44753.0185426878,7,0,100,0,0
4,500,395.696534025774,0,0,44754.6655725486,44755.7125883967,7,0,74,0,4
4,501,517.708070583467,1,0,44757.2655492198,44758.3125473597,7,1,86,8,4
4,502,551.700639269257,0,0,44759.8654315753,44760.9124662866,7,0,73,16,8
4,503,534.905882770545,1,0,44762.5594865233,44763.6065100707,7,1,79,4,4
4,504,520.5644919115,1,0,44765.1947118957,44766.2417412175,7,1,78,8,4
4,505,572.528647287982,0,0,44767.7946466061,44768.8416813174,7,0,79,16,0
4,506,418.062851975264,0,0,44770.5710484853,44771.6180758823,7,0,87,0,16
4,507,641.833050955029,0,0,44773.2062796322,44774.2533228126,7,0,82,4,16
4,508,493.468525397475,1,0,44776.0767925099,44777.1238252964,7,1,98,0,0
4,509,492.63777644228,1,0,44778.7944260226,44779.8414195429,7,1,84,0,8
4,510,490.806895060814,0,0,44781.3472890653,44782.3942833555,7,0,93,0,4
4,511,770.41204678244,0,0,44784.0766015686,44785.1236297355,7,0,70,8,8
4,512,664.857269708591,1,0,44787.0882955727,44788.135391878,7,1,77,16,16
4,513,557.123605205561,1,0,44789.8058667215,44790.8529018177,7,1,89,4,8
4,514,540.779254755762,1,0,44792.5823351992,44793.6292986924,7,1,85,8,4
4,515,592.90663421416,1,0,44795.2293215592,44796.2763220088,7,1,79,8,16
4,516,479.744614298397,1,0,44798.0174282215,44799.0644687072,7,1,74,4,0
4,517,461.114356861799,0,0,44800.5467843025,44801.5938105447,7,0,77,0,16
4,518,673.736813419964,1,0,44803.0761642512,44804.1231689355,7,1,92,0,0
4,519,673.711790863308,0,0,44805.8642963211,44806.9113337271,7,0,95,16,16
4,520,439.125687080377,1,0,44808.734817668,44809.7818477597,7,1,94,8,16
4,521,583.758001754177,0,0,44811.3582808979,44812.4053063701,7,0,83,4,4
4,522,515.757850851514,1,0,44814.1582128366,44815.2052379238,7,1,98,8,8
4,523,532.071019333671,1,0,44816.8169655737,44817.8640025947,7,1,93,4,16
4,524,496.836176847864,1,0,44819.4639657923,44820.5110451592,7,1,73,8,8
4,525,595.987488646642,1,0,44822.1697855775,44823.2168106648,7,1,98,4,16
4,526,629.494619686739,0,0,44824.8873613458,44825.9343906677,7,0,70,16,16
4,527,412.416607818159,0,0,44827.68728751,44828.7343214514,7,0,76,16,4
4,528,533.954640573938,0,0,44830.3107549746,44831.357788531,7,0,68,4,4
4,529,639.340419133077,0,0,44833.0165732199,44834.0636048515,7,0,76,4,4
4,530,902.216257964028,0,0,44835.9106192368,44836.9576504834,7,0,94,8,8
4,531,555.769307327864,1,0,44838.9340734586,44839.981097391,7,1,75,0,16
4,532,780.120414638077,1,0,44841.698706651,44842.7457448269,7,1,99,4,0
4,533,404.064462651149,1,0,44844.5927526679,44845.6397812198,7,1,86,0,8
4,534,609.398810229322,1,0,44847.1573971012,44848.2044291177,7,1,70,4,16
4,535,448.243907507276,1,0,44850.0043864639,44851.0514161707,7,1,64,8,16
4,536,705.005772819277,1,0,44852.639614531,44853.6866492423,7,1,94,0,0
4,537,651.242302985338,1,0,44855.4395472396,44856.4865927298,7,1,78,4,8
4,538,612.94854892185,0,0,44858.3335955662,44859.3806225783,7,0,82,16,8
4,539,470.739957789192,0,0,44861.0629319372,44862.109971268,7,0,68,4,0
4,540,429.449656076031,1,0,44863.6981696284,44864.7451958705,7,1,96,8,0
4,541,568.650150671601,1,0,44866.203985256,44867.2510145778,7,1,92,16,0
4,542,620.459936115367,1,0,44868.8980375093,44869.9450641364,7,1,70,0,0
4,543,473.592144531722,0,0,44871.650910869,44872.697938266,7,0,84,16,8
4,544,442.688514493057,1,0,44874.2508525086,44875.297876056,7,1,89,0,16
4,545,537.098243876244,1,0,44876.9213670033,44877.9683959401,7,1,74,8,8
4,546,512.227745246491,1,0,44879.521307873,44880.5683375798,7,1,94,4,8
4,547,552.714630342962,0,0,44882.2036599628,44883.2507027583,7,0,67,8,4
4,548,788.305486094032,0,0,44885.0152886003,44886.0623171522,7,0,89,4,16
4,549,499.970926015521,0,0,44888.0034510051,44889.0504784021,7,0,67,8,16
4,550,542.372229341709,1,0,44890.721031008,44891.7680568652,7,1,90,4,0
4,551,569.462806393858,0,0,44893.4621356809,44894.5091646177,7,0,87,8,0
4,552,453.45899372478,0,0,44896.1208930375,44897.1679238992,7,0,75,0,4
4,553,927.383947608178,1,0,44898.7561268791,44899.8031585107,7,1,62,16,8
4,554,357.382376954774,1,0,44901.8031153949,44902.8501427919,7,1,76,0,8
4,555,764.13677399978,1,0,44904.2383485435,44905.2853751706,7,1,72,16,4
4,556,579.258560719609,0,0,44907.1912106623,44908.2382419089,7,0,93,8,4
4,557,628.745482776139,1,0,44909.8735042377,44910.9205350994,7,1,91,16,0
4,558,458.217129518744,1,0,44912.5910788512,44913.6381116376,7,1,73,0,4
4,559,817.985320536536,0,0,44915.1792471845,44916.2262761213,7,0,100,0,16
4,560,836.50663359731,0,0,44918.1438764502,44919.1909107766,7,0,80,16,0
4,561,637.421766310581,1,0,44932.872927179,44933.9199618903,8,1,68,4,4
4,562,470.734953283682,1,0,44935.6023401575,44936.6493590853,8,1,68,0,0
4,563,610.480169743823,0,0,44938.1786855243,44939.225716001,8,0,73,16,0
4,564,528.48932876077,1,0,44940.9315542644,44941.9785874358,8,1,96,4,8
4,565,494.683081902622,0,0,44943.6844368632,44944.7314646451,8,0,87,8,8
4,566,577.664046279097,1,0,44946.2726040416,44947.3196329784,8,1,69,4,0
4,567,553.930341739033,0,0,44948.9901836595,44950.0372637964,8,0,98,0,8
4,568,498.370637142216,1,0,44951.8018773557,44952.8489028279,8,1,78,0,16
4,569,547.203892972902,1,0,44954.4018093713,44955.4488386931,8,1,89,0,8
4,570,708.353406225797,1,0,44957.1546888904,44958.2017178272,8,1,94,16,16
4,571,525.779193165363,1,0,44959.9663841264,44961.0134095986,8,1,66,8,0
4,572,1198.61385640979,0,0,44962.5663130623,44963.6133443089,8,0,80,4,16
4,573,569.932075610268,0,0,44965.9779961335,44967.0250246854,8,0,92,8,16
4,574,474.191916015116,0,0,44968.7779330767,44969.8249620135,8,0,63,16,8
4,575,382.688268116908,0,0,44971.5072721423,44972.5543049288,8,0,75,4,0
4,576,531.825798258069,1,0,44974.1072157069,44975.1542392542,8,1,87,16,4
4,577,403.766501724022,0,1,44976.7071504172,44977.7541816639,8,1,94,0,8
4,578,441.616779047763,1,0,44979.3423769445,44980.3894058814,8,1,75,4,4
4,579,730.622713628691,0,0,44981.8364300447,44982.8834570567,8,0,89,16,4
4,580,539.585101258126,0,0,44984.6363646781,44985.6833947698,8,0,95,8,4
4,581,713.420666863385,1,0,44987.2715900505,44988.3186278415,8,1,62,4,16
4,582,551.3818903637,0,0,44990.2244567888,44991.2714961197,8,0,79,16,16
4,583,863.689986588724,1,0,44992.88321915,44993.9302430823,8,1,92,16,8
4,584,419.214659596037,1,0,44995.9537265613,44997.0007624274,8,1,86,0,16
4,585,666.210027731722,1,0,44998.5066007678,44999.5536323994,8,1,92,4,16
4,586,492.188910233381,1,0,45001.4006502494,45002.4476891953,8,1,86,4,16
4,587,540.72920964245,0,0,45004.0711789876,45005.1182048448,8,0,74,8,16
4,588,626.946938245965,1,0,45006.7417011814,45007.7887243439,8,1,88,4,8
4,589,743.285668228054,1,0,45009.5063305242,45010.5533625408,8,1,97,8,16
4,590,401.832065443159,1,0,45012.470979808,45013.51800759,8,1,96,4,8
4,591,444.757687619131,1,0,45015.0120818631,45016.0591146496,8,1,86,8,4
4,592,534.593293261423,1,0,45017.612021578,45018.659048975,8,1,88,8,0
4,593,419.692397998006,1,0,45020.3178378986,45021.36487107,8,1,96,8,4
4,594,457.01104219188,0,0,45022.9295362913,45023.9765621484,8,0,86,0,4
4,595,730.750906121102,0,0,45025.5529952866,45026.6000234535,8,0,83,16,0
4,596,520.841279903834,1,0,45028.5058762685,45029.5529132896,8,1,82,4,4
4,597,504.033819648612,1,0,45031.1646274658,45032.2116633319,8,1,64,4,4
4,598,649.155806546332,1,0,45033.7763250885,45034.8233524855,8,1,89,8,0
4,599,447.815059342247,0,0,45036.5056760881,45037.5527431362,8,0,86,16,4
4,600,716.485737830226,0,0,45039.1879565748,45040.2349897462,8,0,100,8,0
4,601,516.372635865991,0,0,45042.1172990281,45043.1643306597,8,0,98,16,8
4,602,711.719902792538,0,0,45044.8348747964,45045.8819083528,8,0,69,16,0
4,603,637.49644903146,0,0,45047.7171602107,45048.7641914573,8,0,93,4,8
4,604,681.424513408274,1,0,45050.5641514982,45051.6111731208,8,1,93,0,0
4,605,501.010709580441,1,0,45053.4464334478,45054.4934577651,8,1,74,8,8
4,606,566.1971699883,1,0,45056.0934244273,45057.1404564439,8,1,79,0,8
4,607,398.149514716351,1,0,45058.8933490517,45059.940383763,8,1,86,4,0
4,608,570.093374873977,0,0,45061.4344707398,45062.4814977519,8,0,85,4,16
4,609,581.123318792379,0,0,45064.2343930544,45065.2814254559,8,0,71,0,4
4,610,528.862742328784,0,0,45067.0578573623,45068.1048897638,8,0,67,16,4
4,611,474.009443823888,1,0,45069.7754373651,45070.8225352103,8,1,68,4,0
4,612,563.840814873402,0,0,45072.3636187872,45073.410647724,8,0,83,16,16
4,613,434.402582868643,0,0,45075.1870657717,45076.2340985582,8,0,69,0,4
4,614,432.68026089936,0,0,45077.8105436302,45078.8576164528,8,0,75,8,8
4,615,517.174512635393,0,0,45080.4692898229,45081.5163172199,8,0,84,16,16
4,616,856.622846062237,1,0,45083.1515749292,45084.1986050209,8,1,91,0,16
4,617,438.95399383473,0,0,45086.2573837815,45087.3044504446,8,0,65,0,16
4,618,742.408338825044,0,0,45088.7749657862,45089.8220028072,8,0,71,16,0
4,619,610.327724607487,0,0,45091.7278390688,45092.7748741651,8,0,69,4,0
4,620,650.421948012081,1,0,45094.4689514409,45095.5159742184,8,1,65,8,16
4,621,622.980285224912,0,0,45097.2453821923,45098.2923841818,8,0,72,8,0
4,622,746.943581369123,1,0,45099.9511607866,45100.9982016573,8,1,82,4,4
4,623,676.796494917653,0,0,45102.9393362802,45103.9863579027,8,0,91,8,8
4,624,595.534772808605,1,0,45105.8216070658,45106.868632923,8,1,91,16,8
4,625,393.063390918542,0,0,45108.5391882236,45109.5862183154,8,0,77,0,16
4,626,610.462076503609,0,0,45111.0685427648,45112.1155674671,8,0,95,16,8
4,627,562.788712515612,1,0,45113.8684658493,45114.9154970959,8,1,69,8,4
4,628,434.229734732071,0,0,45116.5389930477,45117.586016595,8,0,65,8,16
4,629,450.653387437342,1,0,45119.0683722264,45120.1153707512,8,1,98,0,0
4,630,406.933587742969,1,1,45121.7270980161,45122.7741315725,8,0,99,0,8
4,631,579.255096061388,1,0,45124.2917393697,45125.3387721562,8,1,84,0,0
4,632,562.599310993392,0,0,45127.0093224523,45128.0563486944,8,0,74,16,0
4,633,565.370270662243,1,0,45129.6327856822,45130.6798111544,8,1,98,4,8
4,634,619.926763130934,0,0,45132.362174793,45133.4091690833,8,0,89,8,8
4,635,562.008393644646,0,0,45135.1620613061,45136.2091406731,8,0,90,0,4
4,636,605.589221901027,0,0,45137.8443433327,45138.8913803538,8,0,83,16,16
4,637,394.737977549084,0,0,45140.6913357751,45141.7383681766,8,0,97,0,0
4,638,516.231739609793,1,0,45143.1736282726,45144.2206548997,8,1,78,0,4
4,639,675.473763963964,0,0,45145.9265020173,45146.9735351887,8,0,90,16,4
4,640,717.927807148953,1,0,45148.79701528,45149.8440576905,8,1,100,8,4
4,641,504.904604691546,1,0,45161.0320071342,45162.07904685,9,1,69,0,4
4,642,558.030576714373,1,0,45163.7378261495,45164.7848531615,9,1,85,8,0
4,643,426.61556256644,0,0,45166.3730850136,45167.420088158,9,0,84,0,16
4,644,489.206606187508,0,0,45168.9376998048,45169.9847337462,9,0,68,4,4
4,645,475.371055981668,0,0,45171.5964544667,45172.6434834036,9,0,85,16,8
4,646,476.023182360223,1,0,45174.1846324241,45175.2316540466,9,1,87,4,8
4,647,455.359553307062,1,0,45176.8433897807,45177.8904191025,9,1,89,0,8
4,648,588.663963128056,1,0,45179.3610110516,45180.4079991824,9,1,68,16,8
4,649,539.014586924168,1,0,45182.0668527797,45183.113814733,9,1,67,4,8
4,650,413.845588402182,0,0,45184.666715887,45185.7137502133,9,0,65,0,16
4,651,731.917342331144,1,0,45187.2078441195,45188.254876906,9,1,80,8,0
4,652,920.294864219613,0,0,45190.1842413022,45191.2312675444,9,0,81,0,0
4,653,561.320080792939,1,0,45193.231219809,45194.2782422015,9,1,95,16,0
4,654,382.234012431582,1,0,45195.9723190924,45197.0193584232,9,1,76,0,16
4,655,506.740105614881,1,0,45198.5369639106,45199.5839936174,9,1,63,4,8
4,656,871.641000885575,0,0,45201.2898391951,45202.3368658222,9,0,78,16,16
4,657,711.209057626547,1,0,45204.4074113448,45205.4544418215,9,1,63,16,16
4,658,466.728649131255,1,0,45207.2897964643,45208.3367260808,9,1,78,8,16
4,659,535.246574530902,0,0,45209.9602166431,45211.0072475047,9,0,95,0,4
4,660,579.416395317821,0,0,45212.5601525083,45213.6071752858,9,0,90,4,16
4,661,415.776560017548,0,0,45215.3836630117,45216.4306696207,9,0,76,0,8
4,662,459.491740170051,0,0,45218.007080816,45219.0541055183,9,0,74,8,8
4,663,638.248280680273,0,0,45220.6893655373,45221.7363913945,9,0,78,0,8
4,664,624.56440567621,1,0,45223.465762797,45224.5127948136,9,1,79,4,4
4,665,570.651570415066,0,0,45226.2539291285,45227.3009584503,9,0,100,8,16
4,666,518.60734285583,0,0,45228.9127172821,45229.9597169618,9,0,100,4,16
4,667,568.95273115515,1,0,45231.6773223722,45232.7243547738,9,1,75,4,16
4,668,865.769553704013,0,0,45234.4537300259,45235.5007528034,9,0,62,4,0
4,669,710.443367323023,1,0,45237.3948350067,45238.4418654834,9,1,82,8,4
4,670,462.652281828923,1,0,45240.2536392518,45241.3006150638,9,1,73,8,16
4,671,596.690815029433,0,0,45242.8535250719,45243.9006148328,9,0,83,16,16
4,672,461.091259116074,0,0,45245.6063930421,45246.6534246737,9,0,68,4,4
4,673,534.74458349956,1,0,45248.2886850777,45249.3357067003,9,1,94,16,16
4,674,743.563611118589,1,0,45250.9356749024,45251.9827076889,9,1,83,8,8
4,675,508.199883202906,1,0,45253.8061897049,45254.8532197967,9,1,86,16,8
4,676,774.241653169156,0,0,45256.4061244153,45257.4531537371,9,0,91,16,0
4,677,601.234911708161,0,0,45259.4060508875,45260.4530817492,9,0,61,4,0
4,678,476.606400465244,1,0,45262.0765730813,45263.1236081776,9,1,87,16,4
4,679,786.120824239333,1,0,45264.7941542391,45265.8411843309,9,1,92,8,16
4,680,721.70082404773,0,0,45267.8293802275,45268.8764118591,9,0,67,4,8
4,681,570.589206501609,1,0,45270.7587196011,45271.8057469981,9,1,73,16,4
4,682,437.543876403652,1,0,45273.4645293773,45274.5115579292,9,1,86,0,16
4,683,703.454759132001,1,0,45276.099762834,45277.1467844565,9,1,62,8,0
4,684,478.004199096176,0,0,45278.8761612485,45279.9232617884,9,0,96,8,16
4,685,545.510443189414,0,0,45281.6055107082,45282.6525307909,9,0,91,0,0
4,686,538.601137261139,1,0,45284.3466192306,45285.3936443179,9,1,87,16,8
4,687,493.316850195697,0,0,45286.9936055907,45288.0406360674,9,0,71,0,16
4,688,717.522441693291,1,0,45289.6876601537,45290.7346879357,9,1,98,0,4
4,689,601.34231622942,1,0,45292.4875882427,45293.5346198743,9,1,62,8,4
4,690,411.871500997222,1,0,45295.2992842486,45296.3463131855,9,1,96,8,4
4,691,506.867528187286,1,0,45297.9109776368,45298.9580196624,9,1,74,8,8
4,692,532.422490046883,0,0,45300.522691428,45301.5697184401,9,0,89,8,8
4,693,589.6036564518,1,0,45303.1343859711,45304.1814137531,9,1,61,0,8
4,694,636.018963174138,0,0,45305.9107917,45306.9578221767,9,0,91,0,4
4,695,495.516910559672,0,0,45308.7224861661,45309.7695108683,9,0,63,0,0
4,696,474.630388249352,1,0,45311.3812373633,45312.4282716896,9,1,77,4,4
4,697,416.513378142554,0,0,45313.9223563567,45314.9693864485,9,0,85,16,16
4,698,451.202343880141,0,1,45316.4987613927,45317.5457864799,9,1,94,16,8
4,699,597.640132415108,0,0,45319.0634069808,45320.110432838,9,0,95,8,0
4,700,429.805361374747,0,0,45321.7221643375,45322.7691940442,9,0,66,0,0
4,701,688.793464491027,0,0,45324.3809898324,45325.4279999061,9,0,71,16,0
4,702,390.150765073486,1,0,45327.2396724294,45328.2867063707,9,1,76,8,4
4,703,686.322775538429,0,0,45329.7454953713,45330.7925273878,9,0,92,4,16
4,704,550.739388047077,0,0,45332.5571871426,45333.6042153096,9,0,87,0,0
4,705,625.231545593124,1,0,45335.2394757136,45336.2865085,9,1,85,16,0
4,706,552.969860444136,0,0,45338.0158772078,45339.0629161537,9,0,76,16,4
4,707,763.471173937432,0,0,45340.7922844765,45341.8393141833,9,0,78,16,4
4,708,764.482855236565,1,0,45343.7922055592,45344.8392402705,9,1,100,8,8
4,709,686.635365032998,1,0,45346.6980156434,45347.7450499697,9,1,84,4,0
4,710,476.331537276565,1,0,45349.533239399,45350.5802714155,9,1,73,16,0
4,711,534.328054134676,0,0,45352.1214088872,45353.1684401338,9,0,67,16,4
4,712,703.30231400294,1,0,45354.7213435975,45355.7683817735,9,1,81,4,0
4,713,522.294513124507,1,0,45357.5683402745,45358.6153707512,9,1,94,0,8
4,714,453.440130564559,0,0,45360.2153312541,45361.2623636556,9,0,98,4,0
4,715,680.170305764477,0,0,45362.7564417784,45363.8034764897,9,0,81,8,0
4,716,602.790544937307,0,0,45365.6387749279,45366.6857626738,9,0,69,4,8
4,717,434.39103399578,0,0,45368.4151290718,45369.4621595485,9,0,92,0,4
4,718,455.110482609598,0,0,45371.0503586788,45372.0973853059,9,0,97,8,4
4,719,527.517683556653,1,0,45373.7091198851,45374.7561488219,9,1,68,4,4
4,720,660.845191123371,0,0,45376.3796913541,45377.4266929587,9,0,89,4,16
