sub_id,Trial,RT,Resp,Error,Fix_onset,Disp_onset,block,tid,tloc,fish_setsize,bird_setsize
19,1,714.404496713541,1,0,735619.35086063,735620.397960218,1,1,68,0,8
19,2,697.119749616832,0,0,735622.303887308,735623.350979583,1,0,80,16,8
19,3,604.411526117474,0,0,735625.221624616,735626.26871612,1,0,90,0,8
19,4,623.760433867574,1,0,735627.892288204,735628.939374704,1,1,78,0,16
19,5,622.010016464628,0,0,735630.610018274,735631.657095534,1,0,86,8,8
19,6,677.259228541516,1,0,735633.374795577,735634.421882462,1,1,83,16,8
19,7,586.085074581206,1,0,735636.280755389,735637.327849973,1,1,93,0,16
19,8,758.308139396831,0,0,735638.998482379,735640.045571574,1,0,67,8,0
19,9,702.959222369827,0,0,735641.833854979,735642.880948409,1,0,87,4,16
19,10,663.379846140742,0,0,735644.751587667,735645.798673397,1,0,90,8,4
19,11,623.703844612464,1,0,735647.481071365,735648.528161715,1,1,80,0,16
19,12,639.681264408864,0,0,735650.187042033,735651.234167799,1,0,95,8,0
19,13,802.629464771599,1,0,735652.893030793,735653.940131537,1,1,98,16,16
19,14,642.705132719129,1,0,735655.940136156,735656.987221501,1,1,93,4,4
19,15,1386.87316665892,0,0,735658.763749739,735659.810832004,1,0,62,8,8
19,16,719.67230248265,0,0,735662.257964545,735663.305047581,1,0,72,4,8
19,17,562.170144752599,1,0,735665.187459715,735666.234539671,1,1,74,0,4
19,18,609.131532488391,0,0,735667.893414214,735668.940497635,1,0,85,8,8
19,19,582.984984037466,0,0,735670.728793359,735671.775885248,1,0,63,0,16
19,20,635.801242897287,0,0,735673.481820499,735674.52889468,1,0,93,4,8
19,21,640.269869822077,1,0,735676.211306892,735677.258384923,1,1,80,0,4
19,22,603.56615181081,0,0,735678.987848218,735680.034938182,1,0,62,4,0
19,23,555.182333453558,1,0,735681.670278138,735682.717358478,1,1,83,0,4
19,24,565.141658415087,0,0,735684.317408677,735685.364497487,1,0,91,0,16
19,25,947.321661515161,1,0,735687.129257852,735688.176343198,1,1,75,8,16
19,26,679.083943599835,1,0,735690.223463959,735691.270536985,1,1,73,8,0
19,27,754.043541965075,0,0,735693.035296581,735694.082394245,1,0,88,16,16
19,28,542.576786829159,0,1,735695.870740784,735696.91776723,1,1,61,4,4
19,29,743.436712655239,0,0,735698.564866587,735699.611955782,1,0,94,4,16
19,30,717.235499643721,1,0,735701.459069306,735702.506156191,1,1,77,16,16
19,31,738.325970829465,1,0,735704.412087516,735705.45918518,1,1,81,16,0
19,32,784.873525495641,0,0,735707.353349017,735708.400480173,1,0,64,0,0
19,33,759.548098663799,1,0,735710.282841108,735711.329926068,1,1,65,8,8
19,34,729.729022597894,0,0,735713.165283269,735714.212446761,1,0,96,16,4
19,35,681.24626937788,0,0,735716.083016342,735717.130098992,1,0,62,4,8
19,36,679.115895414725,0,0,735718.941912366,735719.988997326,1,0,84,8,0
19,37,643.833068432286,1,0,735721.671412233,735722.718485259,1,1,74,8,0
19,38,797.768947784789,0,0,735724.530314031,735725.577395527,1,0,71,16,16
19,39,650.291943456978,1,0,735727.518631236,735728.565720046,1,1,80,0,8
19,40,733.874282334,1,0,735730.342249823,735731.389333243,1,1,97,8,16
19,41,610.247534350492,1,0,735733.318793382,735734.365879112,1,1,61,0,0
19,42,666.360213886946,1,0,735736.024747496,735737.071835151,1,1,61,8,16
19,43,648.501105024479,1,0,735738.789537888,735739.836623234,1,1,66,8,4
19,44,589.980494580232,1,0,735741.519021202,735742.566142733,1,1,91,0,0
19,45,455.619110143743,1,0,735744.307337328,735745.354428448,1,1,85,4,4
19,46,477.677758201025,1,0,735746.872123178,735747.919202749,1,1,84,4,16
19,47,673.159779398702,1,0,735749.554548864,735750.601636518,1,1,68,16,0
19,48,476.669930387288,0,0,735752.472271542,735753.519362277,1,0,82,4,0
19,49,798.400668776594,1,0,735755.025289136,735756.072381025,1,1,99,4,0
19,50,748.336880700663,0,0,735757.919489545,735758.966570656,1,0,69,16,4
19,51,522.909901221283,0,0,735760.743100433,735761.801988296,1,0,87,8,4
19,52,547.717170557007,0,0,735763.4961141,735764.543202139,1,0,64,0,8
19,53,808.756118523888,1,0,735766.2609299,735767.308017939,1,1,92,8,4
19,54,607.489674002863,1,0,735769.308038727,735770.355128692,1,1,63,4,16
19,55,674.815111444332,0,0,735772.119954501,735773.166977097,1,0,96,16,4
19,56,719.526017317548,0,0,735774.967026064,735776.014114489,1,0,69,4,16
19,57,629.093298106454,0,0,735777.743577784,735778.790662359,1,0,82,0,0
19,58,633.260885486379,1,0,735780.508365482,735781.555448133,1,1,95,4,0
19,59,738.476490601897,0,0,735783.226080539,735784.273174353,1,0,100,8,16
19,60,663.735165144317,0,0,735786.155575324,735787.202696085,1,0,78,16,8
19,61,666.370607796125,0,0,735788.990955238,735790.038037503,1,0,84,0,4
19,62,697.583627537824,0,0,735791.743977759,735792.791063489,1,0,74,16,0
19,63,890.529910800979,0,0,735794.508760837,735795.555844642,1,0,100,4,8
19,64,671.905576600693,1,0,735797.473622371,735798.520638038,1,1,78,16,8
19,65,601.947006070986,1,0,735800.238329611,735801.285423041,1,1,98,16,16
19,66,590.006286976859,0,0,735803.038411685,735804.085534756,1,0,77,8,16
19,67,724.119371618144,1,0,735805.709075273,735806.756163698,1,1,79,4,4
19,68,791.976440232247,1,0,735808.497391015,735809.54447328,1,1,71,8,4
19,69,839.786666678265,1,0,735811.356295894,735812.403385473,1,1,88,16,0
19,70,736.28606274724,0,0,735814.28582879,735815.332884108,1,0,65,16,4
19,71,728.984508197755,0,0,735817.274103649,735818.321190149,1,0,95,8,8
19,72,809.69811801333,0,0,735820.062488684,735821.109505506,1,0,99,16,4
19,73,680.94946432393,1,0,735823.027209321,735824.074330083,1,1,80,16,8
19,74,623.974857153371,0,0,735825.780232227,735826.827314878,1,0,92,16,0
19,75,679.492387105711,0,0,735828.662670154,735829.709753189,1,0,73,4,4
19,76,486.376336077228,1,0,735831.509806006,735832.556883652,1,1,83,0,4
19,77,642.861811793409,1,0,735834.19223939,735835.239317806,1,1,63,4,8
19,78,605.208395281807,1,0,735837.062903671,735838.109983242,1,1,75,0,0
19,79,619.269479298964,1,0,735839.733559175,735840.780654914,1,1,68,0,8
19,80,745.086655253544,0,0,735842.521879922,735843.568960647,1,0,98,4,0
19,81,602.867832640186,0,0,735867.016689878,735868.063765599,2,0,74,8,8
19,82,589.28602503147,1,0,735869.793244293,735870.840325018,2,1,95,8,0
19,83,700.338408118114,0,0,735872.640381299,735873.687464335,2,0,61,4,0
19,84,513.864473439753,1,0,735875.428693962,735876.475818573,2,1,88,4,16
19,85,547.507366864011,0,0,735878.111123496,735879.158211536,2,0,84,0,4
19,86,652.351869503036,1,0,735880.817078766,735881.86417027,2,1,61,0,4
19,87,716.361638274975,1,0,735883.523041349,735884.570118225,2,1,93,16,0
19,88,682.483918732032,0,0,735886.323113799,735887.370208383,2,0,95,4,8
19,89,650.656886282377,1,0,735889.087903421,735890.134976833,2,1,77,0,4
19,90,688.384985318407,0,0,735891.829151526,735892.876243801,2,0,100,16,16
19,91,529.479644959792,1,0,735894.746961206,735895.793977643,2,1,87,16,0
19,92,616.251000552438,0,0,735897.488138478,735898.535224593,2,0,61,0,0
19,93,757.086273399182,1,0,735900.241145986,735901.288244035,2,1,81,16,0
19,94,498.276634258218,0,0,735903.253007403,735904.300096983,2,0,85,4,4
19,95,513.689316227101,1,0,735905.982522668,735907.029605318,2,1,97,4,16
19,96,550.215182243846,1,0,735908.66493026,735909.712015605,2,1,75,0,0
19,97,485.11943849735,0,0,735911.265003557,735912.312086592,2,0,77,0,8
19,98,512.845096876845,0,0,735913.947439251,735914.994516512,2,0,65,0,16
19,99,608.979087905027,1,0,735916.606392711,735917.653416078,2,1,84,8,16
19,100,521.054389420897,0,0,735919.371116121,735920.418200311,2,0,63,4,8
19,101,538.120478740893,1,0,735921.982972687,735923.030036474,2,1,77,8,16
19,102,530.611815163866,1,0,735924.71246139,735925.759531721,2,1,93,0,16
19,103,590.477094170637,0,0,735927.453692172,735928.500778287,2,0,82,16,4
19,104,708.571953233331,1,0,735930.218484489,735931.265565984,2,1,88,8,0
19,105,563.566398224793,0,0,735933.124444301,735934.171532725,2,0,70,0,0
19,106,946.546735242009,0,0,735935.924527144,735936.97160633,2,0,100,4,16
19,107,812.364742625505,0,0,735939.065787029,735940.112873529,2,0,62,0,0
19,108,769.895464414731,0,0,735942.112932813,735943.160034711,2,0,61,4,16
19,109,598.488516756333,1,0,735945.089487536,735946.136572881,2,1,77,4,0
19,110,836.553764529526,0,0,735947.854277158,735948.901357499,2,0,91,16,4
19,111,651.605045306496,0,0,735950.81905939,735951.866204404,2,0,73,8,16
19,112,668.498672079295,0,0,735953.560316349,735954.607406313,2,0,90,4,8
19,113,620.504434220493,0,0,735956.419221612,735957.466311962,2,0,79,4,8
19,114,650.80009191297,1,0,735959.278125721,735960.325212991,2,1,78,8,4
19,115,639.572705491446,0,0,735962.125269272,735963.172353847,2,0,72,0,16
19,116,677.603383781388,1,0,735964.890061204,735965.937130381,2,1,73,0,0
19,117,629.219180322252,0,0,735967.678365013,735968.725449973,2,0,66,0,4
19,118,596.800462924875,1,0,735970.454918657,735971.501995533,2,1,64,8,8
19,119,549.185796524398,1,0,735973.27852531,735974.325618355,2,1,64,4,8
19,120,766.992088756524,0,0,735976.031536282,735977.078625477,2,0,72,16,16
19,121,1063.17412294447,0,0,735978.984559111,735980.031650616,2,0,99,16,16
19,122,753.253601957113,0,0,735982.255262119,735983.302334761,2,0,67,16,0
19,123,485.138686490245,0,0,735985.20826647,735986.255356435,2,0,96,0,4
19,124,697.576313279569,1,0,735987.784813263,735988.831899378,2,1,79,0,16
19,125,638.62531655468,1,0,735990.737844946,735991.784923361,2,1,71,8,0
19,126,535.09545547422,0,0,735993.561449289,735994.608539638,2,0,76,16,8
19,127,452.219135011546,1,0,735996.279173585,735997.326260469,2,1,66,0,8
19,128,607.345313532278,1,0,735998.891010518,735999.938094323,2,1,71,8,4
19,129,516.361715272069,0,0,736001.644034579,736002.691117999,2,0,67,16,8
19,130,550.921200658195,1,0,736004.385283839,736005.432369569,2,1,82,16,8
19,131,660.586569458246,0,0,736007.161835559,736008.208923599,2,0,65,4,16
19,132,631.028881878592,1,0,736010.044270406,736011.091360371,2,1,88,8,8
19,133,742.653316934593,0,0,736012.738471662,736013.785579335,2,0,97,4,4
19,134,547.230194788426,1,0,736015.667963367,736016.715045248,2,1,87,4,4
19,135,791.741613997146,1,0,736018.444509313,736019.491599662,2,1,80,8,16
19,136,781.787678366527,0,0,736021.456379199,736022.503495341,2,0,93,16,0
19,137,568.452322739176,0,0,736024.291730626,736025.338822516,2,0,66,0,8
19,138,493.638239684515,1,0,736027.115343823,736028.162426859,2,1,66,16,16
19,139,587.6183740329,1,0,736029.868369424,736030.915453229,2,1,71,0,16
19,140,528.82482635323,1,0,736032.574329313,736033.621410038,2,1,86,8,8
19,141,586.654816870578,1,0,736035.233243507,736036.280355415,2,1,65,16,4
19,142,739.793826942332,1,0,736038.033302868,736039.080391293,2,1,90,4,0
19,143,635.407042922452,1,0,736040.927503662,736041.974584773,2,1,99,4,4
19,144,554.6453128336,1,0,736043.692282121,736044.739370931,2,1,63,4,0
19,145,621.921860380098,1,0,736046.410011036,736047.457129103,2,1,78,16,8
19,146,742.224470479414,0,0,736049.233613455,736050.28070265,2,0,74,16,16
19,147,646.769165643491,0,0,736052.116084103,736053.163189851,2,0,92,4,4
19,148,559.460404678248,1,0,736055.010246016,736056.057339061,2,1,65,8,4
19,149,836.232322151773,1,0,736057.75156149,736058.798617963,2,1,100,8,0
19,150,795.995432534255,0,0,736060.79864645,736061.845737569,2,0,70,8,4
19,151,747.060735011473,1,0,736063.704612421,736064.75170662,2,1,90,8,8
19,152,662.225733161904,0,0,736066.622347803,736067.669433148,2,0,94,8,4
19,153,728.466735687107,0,0,736069.375367629,736070.422449895,2,0,62,16,8
19,154,703.413861338049,1,0,736072.293097622,736073.340183352,2,1,95,8,0
19,155,544.486578088254,0,0,736075.151999806,736076.199087076,2,0,76,8,16
19,156,648.021058645099,0,0,736077.869729876,736078.916817146,2,0,61,0,8
19,157,535.7568183681,0,0,736080.716916928,736081.763952613,2,0,66,0,8
19,158,672.135783126578,0,0,736083.493415523,736084.540506258,2,0,93,4,0
19,159,756.542708491907,1,0,736086.422902224,736087.469999503,2,1,89,16,4
19,160,618.70628152974,1,0,736089.340644921,736090.38773373,2,1,93,16,4
19,161,833.628831082024,0,0,736102.658686963,736103.705743436,3,0,97,16,4
19,162,662.897875066847,0,0,736105.576399248,736106.623532713,3,0,65,16,4
19,163,671.821655123495,0,0,736108.376550999,736109.423565127,3,0,69,8,4
19,164,600.263571715914,1,0,736111.105961555,736112.153048055,3,1,71,0,0
19,165,604.568205191754,1,0,736113.929573598,736114.976655863,3,1,98,4,0
19,166,509.008960914798,0,0,736116.600249119,736117.647325225,3,0,93,0,16
19,167,585.91915643774,1,0,736119.259142911,736120.306227101,3,1,63,16,8
19,168,642.687039566226,0,0,736121.894499034,736122.941590154,3,0,85,4,4
19,169,443.410073290579,0,0,736124.682821321,736125.729903201,3,0,94,0,8
19,170,685.083560179919,1,0,736127.329947626,736128.37704221,3,1,89,8,4
19,171,658.215979812667,1,0,736130.141796031,736131.188880991,3,1,100,4,8
19,172,455.693407682702,1,0,736133.012463777,736134.059570294,3,1,96,4,0
19,173,908.729710266925,1,0,736135.671364497,736136.718454462,3,1,71,8,8
19,174,467.645675526001,0,0,736138.730300481,736139.777364653,3,0,85,0,16
19,175,636.981533141807,0,0,736141.295056304,736142.342192464,3,0,98,16,0
19,176,606.648919172585,0,0,736143.989325698,736145.03634252,3,0,61,8,0
19,177,596.362762385979,1,0,736146.671675931,736147.718763201,3,1,73,8,0
19,178,604.264471097849,0,0,736149.377662382,736150.424728479,3,0,61,0,0
19,179,509.146391996183,0,0,736152.177717508,736153.224804778,3,0,86,8,16
19,180,558.326694648713,1,0,736154.848379556,736155.895469136,3,1,71,4,0
19,181,613.015788607299,0,0,736157.58963613,736158.63672417,3,0,93,4,16
19,182,570.779411704279,1,0,736160.378000377,736161.42506532,3,1,68,16,4
19,183,513.874097610824,1,0,736163.142741495,736164.189825685,3,1,96,0,4
19,184,522.118036518805,1,0,736165.754574964,736166.801663389,3,1,73,0,16
19,185,671.666130772792,0,0,736168.484068671,736169.531155171,3,0,68,16,16
19,186,539.520581718534,0,0,736171.378266001,736172.425349806,3,0,83,0,8
19,187,714.764435193501,0,0,736174.048990412,736175.096018783,3,0,91,8,8
19,188,569.519434473477,0,0,736176.896066595,736177.9431581,3,0,74,16,4
19,189,690.687436959706,1,0,736179.60201917,736180.649117988,3,1,99,16,0
19,190,582.910301513039,0,0,736182.472698464,736183.519784194,3,0,89,16,8
19,191,664.664845797233,1,0,736185.225769875,736186.272869079,3,1,63,4,16
19,192,768.748665694147,0,0,736188.025853874,736189.072884169,3,0,65,0,0
19,193,604.794562328607,1,0,736190.931827544,736191.978852835,3,1,88,16,0
19,194,539.433580590412,1,0,736193.614193945,736194.661274671,3,1,61,8,8
19,195,525.655442732386,0,0,736196.284878706,736197.331942878,3,0,83,0,16
19,196,471.67390701361,1,0,736199.002637648,736200.049733772,3,1,73,16,8
19,197,636.283983942121,0,0,736201.685003279,736202.732096324,3,0,64,0,0
19,198,823.641404043883,0,0,736204.555695662,736205.602766764,3,0,71,4,0
19,199,674.366247025318,0,0,736207.544008633,736208.591095902,3,0,81,4,4
19,200,647.876698407345,0,0,736210.320541104,736211.367636074,3,0,88,4,0
19,201,806.588788400404,0,0,736213.120635497,736214.167713143,3,0,88,8,16
19,202,544.321814901195,1,0,736216.167769347,736217.214863161,3,1,93,8,16
19,203,522.303972626105,1,0,736218.909032466,736219.95612089,3,1,94,8,0
19,204,480.037953937426,1,0,736221.509102297,736222.556188797,3,1,93,4,16
19,205,611.308101681061,0,0,736224.132714417,736225.179791293,3,0,68,0,4
19,206,580.763374222443,1,0,736226.89749634,736227.944578221,3,1,94,8,0
19,207,847.401964478195,0,0,736229.544625725,736230.59171492,3,0,82,8,16
19,208,599.578341352753,0,0,736232.462417312,736233.509442988,3,0,66,16,8
19,209,604.071990586817,1,0,736235.238908978,736236.285995093,3,1,89,0,4
19,210,657.986158155836,1,0,736237.991925339,736239.039015689,3,1,75,8,0
19,211,702.361378120258,0,0,736240.756774246,736241.803794533,3,0,70,4,4
19,212,899.926422978751,0,0,736243.697975309,736244.745058344,3,0,90,16,0
19,213,512.091728276573,0,0,736246.756882805,736247.803967765,3,0,97,4,16
19,214,533.126380178146,1,0,736249.321664036,736250.368744761,3,1,73,0,8
19,215,637.079698266461,1,0,736252.074683477,736253.121769592,3,1,76,4,4
19,216,979.760781978257,0,0,736254.863063122,736255.910087259,3,0,66,4,16
19,217,583.252531825565,0,0,736258.039558099,736259.086639594,3,0,78,4,4
19,218,520.4261331819,1,0,736260.851399575,736261.898491464,3,1,86,16,16
19,219,569.215700263157,1,0,736263.59264999,736264.63973803,3,1,65,0,4
19,220,506.773492670618,1,0,736266.333991255,736267.381003073,3,1,77,16,4
19,221,597.326704533771,0,0,736268.910452202,736269.957541396,3,0,92,0,4
19,222,712.746469886042,0,0,736271.698772948,736272.745905643,3,0,66,4,8
19,223,685.58477924671,1,0,736274.545917269,736275.593003384,3,1,73,8,8
19,224,639.722070307471,1,0,736277.35775682,736278.404839471,3,1,99,0,16
19,225,472.943123313598,1,0,736280.063715939,736281.110806674,3,1,75,16,8
19,226,525.760152144358,1,0,736282.663791545,736283.710874966,3,1,96,8,8
19,227,699.024536414072,1,0,736285.287435232,736286.33449209,3,1,82,16,0
19,228,735.73787836358,0,0,736288.169830428,736289.216915003,3,0,70,0,8
19,229,512.094038072973,0,1,736291.040498174,736292.087583134,3,1,73,0,0
19,230,668.125259922817,1,0,736293.746449978,736294.793541482,3,1,100,4,8
19,231,550.275236018933,1,0,736296.617123498,736297.664204609,3,1,63,8,4
19,232,627.511108643375,1,0,736299.228967361,736300.276049241,3,1,79,16,16
19,233,637.505465070717,1,0,736301.981990267,736303.029081386,3,1,94,4,8
19,234,720.331740682013,0,0,736304.734997774,736305.782087354,3,0,93,0,8
19,235,785.036748973653,0,0,736307.67626736,736308.723350011,3,0,81,8,4
19,236,499.916567932814,0,0,736310.523406292,736311.570511655,3,0,75,16,16
19,237,592.20210427884,1,0,736313.147003783,736314.194095672,3,1,95,8,4
19,238,612.585787195712,1,0,736315.817673145,736316.864755796,3,1,81,4,8
19,239,616.798799950629,0,0,736318.641280953,736319.688425582,3,0,70,8,16
19,240,817.099762498401,0,0,736321.511955628,736322.559041358,3,0,94,16,16
19,241,562.044262536801,1,0,736341.194867519,736342.241955944,4,1,63,0,4
19,242,542.791979969479,0,0,736343.98319327,736345.030309027,4,0,63,0,16
19,243,609.010269865394,0,0,736346.653847234,736347.700934504,4,0,73,16,8
19,244,727.43196063675,0,0,736349.430399724,736350.477491228,4,0,88,8,8
19,245,598.132427898236,0,0,736352.312831876,736353.359921456,4,0,97,16,16
19,246,478.935040649958,1,0,736355.018797924,736356.065882884,4,1,87,4,8
19,247,654.555001063272,0,0,736357.748277388,736358.795363888,4,0,71,0,0
19,248,529.194773756899,0,0,736360.630715315,736361.67780066,4,0,67,4,0
19,249,654.348277021199,0,0,736363.25432243,736364.301403925,4,0,84,4,16
19,250,661.438873037696,0,0,736366.101458667,736367.148549786,4,0,95,8,8
19,251,458.290739334188,1,0,736368.913303222,736369.960390877,4,1,85,16,4
19,252,496.575876721181,0,0,736371.478070979,736372.525180192,4,0,77,0,8
19,253,762.034946586937,0,0,736374.101693108,736375.148777683,4,0,63,16,0
19,254,454.559697653167,0,0,736376.984114097,736378.031226774,4,0,85,0,0
19,255,1026.4935027808,0,0,736379.537141314,736380.584228199,4,0,81,4,8
19,256,537.505311076529,0,0,736382.690166376,736383.737247486,4,0,63,16,4
19,257,535.316423047334,1,0,736385.290244292,736386.337335026,4,1,65,16,16
19,258,536.803912138566,1,0,736388.019765331,736389.066869154,4,1,67,16,4
19,259,447.840204113163,0,0,736390.678623321,736391.725730224,4,0,97,0,8
19,260,837.834144709632,1,0,736393.184589831,736394.23168788,4,1,71,16,16
19,261,568.679449730553,1,0,736396.125844789,736397.172937448,4,1,98,0,8
19,262,433.966980897821,0,0,736398.796516076,736399.843596416,4,0,97,4,0
19,263,468.797478708439,0,0,736401.490753903,736402.537796518,4,0,79,0,8
19,264,433.346808771603,0,0,736404.12607307,736405.173159185,4,0,67,0,0
19,265,459.542632335797,1,0,736406.749678646,736407.796763991,4,1,85,0,0
19,266,487.896931823343,0,0,736409.373286915,736410.42037688,4,0,69,0,8
19,267,643.070075777359,1,0,736411.973360597,736413.020445557,4,1,84,16,8
19,268,871.743046096526,1,0,736414.844032192,736415.891118692,4,1,66,16,8
19,269,495.821353280917,0,0,736417.785290229,736418.832375574,4,0,62,4,4
19,270,576.150772045366,0,0,736420.50301414,736421.550104489,4,0,95,16,4
19,271,606.015658471733,1,0,736423.244268019,736424.291406104,4,1,84,8,0
19,272,700.20328683313,1,0,736425.914935842,736426.962011948,4,1,88,8,8
19,273,737.084856722504,1,0,736428.715011756,736429.762096716,4,1,88,8,8
19,274,453.027167939581,0,0,736431.620976957,736432.668068847,4,0,87,0,0
19,275,465.509912115522,1,0,736434.19752144,736435.244612944,4,1,65,0,16
19,276,471.544560161419,0,0,736436.797596276,736437.844682391,4,0,96,4,16
19,277,585.74284426868,1,0,736439.362378662,736440.409462082,4,1,63,16,0
19,278,595.624792156741,1,0,736442.009507661,736443.056593391,4,1,67,16,4
19,279,583.506606053561,1,0,736444.80958858,736445.85668047,4,1,61,0,16
19,280,551.390082924627,1,1,736447.468487376,736448.515573876,4,0,82,16,0
19,281,489.167303079739,1,0,736450.115844273,736451.162715195,4,1,75,8,16
19,282,469.970839680173,0,0,736452.798061309,736453.845147424,4,0,78,4,0
19,283,783.768687513657,0,0,736455.445184534,736456.492272189,4,0,84,8,16
19,284,633.328638621606,1,0,736458.480575535,736459.527658571,4,1,92,4,8
19,285,944.589593680575,0,0,736461.292418166,736462.339499662,4,0,97,8,0
19,286,984.557780553587,1,0,736464.363132415,736465.410178494,4,1,78,8,16
19,287,619.603240513243,0,0,736467.469100619,736468.516150933,4,0,96,16,16
19,288,677.422452019528,0,0,736470.269142272,736471.316230312,4,0,94,8,0
19,289,631.978965597227,0,0,736473.198638597,736474.245722017,4,0,90,4,16
19,290,598.752215038985,1,0,736476.034015431,736477.081085378,4,1,94,8,4
19,291,614.67535526026,1,0,736478.73996993,736479.78705951,4,1,74,8,16
19,292,629.956765566021,1,0,736481.516548212,736482.56360661,4,1,83,4,8
19,293,887.19691883307,1,0,736484.375429993,736485.422515723,4,1,77,4,16
19,294,622.684083180502,0,0,736487.41081368,736488.4578971,4,0,62,0,16
19,295,993.688669521362,1,0,736490.116774338,736491.163851984,4,1,77,0,16
19,296,640.654830727726,1,0,736493.222744467,736494.269821728,4,1,76,4,8
19,297,736.520118894987,1,0,736495.963991802,736497.011079072,4,1,81,4,0
19,298,576.295132399537,1,0,736498.905256383,736499.952335569,4,1,81,0,4
19,299,658.967038616538,0,0,736501.599442626,736502.646655008,4,0,95,16,0
19,300,728.989512659609,0,0,736504.411296421,736505.458382151,4,0,70,8,16
19,301,528.364798054099,0,0,736507.376082887,736508.423170542,4,0,97,4,4
19,302,836.569932987913,0,0,736510.152637686,736511.199716872,4,0,83,4,4
19,303,585.844859015197,0,0,736513.164528361,736514.211628719,4,0,76,8,4
19,304,625.438093906268,0,0,736515.846912855,736516.89399666,4,0,77,8,4
19,305,986.357087967917,1,0,736518.658757796,736519.70585084,4,1,79,4,4
19,306,662.307729828171,0,0,736521.85884857,736522.905941614,4,0,79,8,0
19,307,917.1676695114,1,0,736524.753051289,736525.800133554,4,1,89,16,16
19,308,643.114346312359,1,0,736527.753140599,736528.800217475,4,1,95,8,4
19,309,735.350992530584,1,0,736530.529685775,736531.576773815,4,1,99,8,4
19,310,717.03493501991,0,0,736533.518006829,736534.565092559,4,0,90,0,4
19,311,568.706397083588,1,0,736536.459290659,736537.506365225,4,1,86,16,8
19,312,657.570785260759,1,0,736539.153471512,736540.200565711,4,1,73,4,4
19,313,669.91879302077,0,0,736541.871233149,736542.918339282,4,0,68,16,0
19,314,645.421417313628,0,0,736544.612442758,736545.659529258,4,0,70,4,0
19,315,679.636747459881,1,0,736547.424305407,736548.471372659,4,1,72,8,0
19,316,524.449745076709,1,0,736550.212597666,736551.25969302,4,1,94,0,4
19,317,664.625194855034,1,0,736552.977380744,736554.024476868,4,1,74,4,16
19,318,718.121294747107,1,0,736555.765702646,736556.812807239,4,1,98,8,8
19,319,633.367519709282,1,0,736558.624606369,736559.671696334,4,1,85,0,4
19,320,1094.14269251283,1,0,736561.471749535,736562.518847969,4,1,81,16,8
19,321,691.730681108311,1,0,736597.731676716,736598.778708937,5,1,63,8,8
19,322,591.723982826807,0,0,736600.590506527,736601.637655006,5,0,75,16,16
19,323,650.670744944364,0,0,736603.284719717,736604.331800443,5,0,88,0,0
19,324,757.282988517545,0,0,736606.014197641,736607.06128722,5,0,63,8,4
19,325,1110.5978487758,1,0,736608.884861922,736609.931961125,5,1,69,0,16
19,326,740.703874733299,0,0,736612.096716717,736613.143815921,5,0,87,0,8
19,327,494.726524339058,0,0,736614.955620826,736616.002715795,5,0,68,0,0
19,328,1157.98923780676,0,0,736617.579281451,736618.626324065,5,0,73,0,8
19,329,619.702175492421,0,0,736620.873463613,736621.920539719,5,0,81,0,4
19,330,698.607238708064,0,0,736623.567643696,736624.614730581,5,0,87,4,0
19,331,552.229682914913,0,0,736626.355961362,736627.403046323,5,0,64,4,0
19,332,552.92877194006,0,0,736629.050152994,736630.097243729,5,0,81,0,8
19,333,493.120467173867,1,0,736631.814935303,736632.862021033,5,1,86,16,8
19,334,603.165407432243,0,0,736634.415014374,736635.462100104,5,0,99,8,0
19,335,679.003486759029,1,0,736637.10921101,736638.156293276,5,1,62,16,16
19,336,496.047710301355,1,0,736639.968110114,736641.015204699,5,1,64,0,4
19,337,616.147445980459,1,0,736642.638781017,736643.685864822,5,1,89,0,4
19,338,612.559994799085,1,0,736645.356495303,736646.403589118,5,1,74,8,8
19,339,786.009160336107,1,0,736648.191883302,736649.238958638,5,1,82,8,16
19,340,770.758546772413,0,0,736651.133148653,736652.180234383,5,0,71,8,16
19,341,582.080710679293,1,0,736654.156752149,736655.203840574,5,1,81,4,0
19,342,661.870029289275,1,0,736656.992133988,736658.039212404,5,1,69,8,16
19,343,703.784963698126,1,0,736659.74519385,736660.792234155,5,1,97,8,16
19,344,560.221087420359,0,0,736662.67464629,736663.72173048,5,0,93,0,8
19,345,542.822776827961,1,0,736665.463007842,736666.510053921,5,1,75,8,4
19,346,716.047510155477,1,0,736668.133620615,736669.18070673,5,1,91,16,0
19,347,472.629765048623,1,0,736671.016058157,736672.063143887,5,1,75,0,0
19,348,623.51521383971,0,0,736673.569066896,736674.616158401,5,0,65,16,4
19,349,652.422702289186,0,0,736676.416215067,736677.463305417,5,0,83,16,0
19,350,641.49789523799,0,0,736679.169231429,736680.216320623,5,0,83,4,16
19,351,704.261160455644,0,0,736681.969309653,736683.016402697,5,0,93,16,0
19,352,545.349275693297,1,0,736684.769393651,736685.816479766,5,1,63,8,8
19,353,666.336731286719,1,0,736687.487117177,736688.534193283,5,1,80,8,4
19,354,643.148607807234,1,0,736690.275435614,736691.322522114,5,1,98,4,4
19,355,622.598236775957,1,0,736693.05201736,736694.09905728,5,1,92,4,8
19,356,624.301689094864,0,0,736695.89912511,736696.94621084,5,0,63,8,0
19,357,599.026692216285,0,0,736698.640378605,736699.687469724,5,0,74,16,8
19,358,551.884372951463,0,0,736701.440459139,736702.487547948,5,0,74,8,4
19,359,745.842333650216,0,0,736704.134652695,736705.18173958,5,0,100,16,4
19,360,608.19145780988,0,0,736706.958266278,736708.005349698,5,0,69,0,0
19,361,618.274740292691,1,0,736709.723054745,736710.770140091,5,1,74,16,0
19,362,672.102291602641,1,0,736712.570186748,736713.617270553,5,1,80,0,4
19,363,732.576963957399,0,0,736715.440859498,736716.487949462,5,0,92,16,4
19,364,768.466489273123,1,0,736718.393887716,736719.440974216,5,1,88,8,8
19,365,640.858090016991,1,0,736721.417510846,736722.464587337,5,1,100,4,16
19,366,698.654203908518,0,0,736724.123468425,736725.170542606,5,0,81,8,0
19,367,553.834970109165,1,0,736726.888243804,736727.935389588,5,1,94,4,8
19,368,534.215819672681,1,0,736729.605973104,736730.653053829,5,1,80,4,4
19,369,724.545908276923,0,0,736732.382517894,736733.429609399,5,0,79,8,4
19,370,503.858953132294,0,0,736735.300262131,736736.347339777,5,0,77,0,16
19,371,539.487090078183,1,0,736737.935624029,736738.982710529,5,1,64,16,4
19,372,702.280921279453,0,0,736740.535698095,736741.582783825,5,0,62,4,8
19,373,489.316667895764,0,0,736743.382837027,736744.429922372,5,0,95,0,4
19,374,663.372147013433,0,0,736745.947612098,736746.994700908,5,0,94,16,8
19,375,662.828966975212,0,0,736748.72419423,736749.771283425,5,0,79,8,0
19,376,660.337499575689,1,0,736751.6066029,736752.653683241,5,1,72,4,16
19,377,577.656354289502,1,0,736754.371384438,736755.418471708,5,1,63,4,4
19,378,544.278699206188,1,0,736757.112632543,736758.159735212,5,1,86,0,16
19,379,564.55728772562,1,0,736759.830365308,736760.877451808,5,1,94,4,8
19,380,604.38650357537,0,0,736762.536324042,736763.583416316,5,0,73,0,16
19,381,757.033148780465,1,0,736765.218757426,736766.265839692,5,1,91,4,8
19,382,463.588187005371,1,0,736768.207079251,736769.254160746,5,1,75,4,4
19,383,889.606774551794,0,0,736770.760097999,736771.807175645,5,0,90,8,8
19,384,808.794229757041,1,0,736773.7248887,736774.771977124,5,1,89,4,16
19,385,635.13834006153,1,0,736776.701447657,736777.748522608,5,1,94,16,0
19,386,775.739171775058,1,0,736779.478009386,736780.525073173,5,1,91,16,16
19,387,745.700667961501,0,0,736782.336898096,736783.383976511,5,0,79,4,0
19,388,635.679595288821,1,0,736785.28991746,736786.33700165,5,1,82,4,4
19,389,554.321560775861,1,0,736788.172348073,736789.219439962,5,1,61,0,8
19,390,481.123928795569,0,0,736790.819484002,736791.866569732,5,0,77,16,16
19,391,642.629295471124,0,0,736793.454873617,736794.501946643,5,0,94,8,16
19,392,565.491202985868,0,0,736796.30199484,736797.34908442,5,0,77,0,16
19,393,714.90725572221,0,0,736799.07854887,736800.125712747,5,0,93,4,0
19,394,661.687172832899,1,0,736801.866861917,736802.913945722,5,1,93,8,0
19,395,724.398853257298,0,0,736804.655176889,736805.702269163,5,0,73,16,4
19,396,614.302712958306,0,0,736807.46702183,736808.514107175,5,0,77,16,8
19,397,645.020673051476,1,0,736810.302395585,736811.349552917,5,1,84,4,16
19,398,669.988470966928,1,0,736813.114259388,736814.161333955,5,1,97,16,8
19,399,684.280531597324,1,0,736815.984919435,736817.0320017,5,1,98,16,16
19,400,547.916965209879,0,0,736818.867347738,736819.914518159,5,0,65,0,0
19,401,511.399953393266,1,0,736840.891509428,736841.938602087,6,1,75,8,0
19,402,541.386487544514,0,0,736843.632767542,736844.679853272,6,0,72,0,16
19,403,512.729223701172,1,0,736846.409353908,736847.456402682,6,1,74,4,16
19,404,672.696671332233,1,0,736849.162334468,736850.209425203,6,1,80,8,8
19,405,664.505086955614,1,0,736851.9153951,736852.962436945,6,1,69,4,0
19,406,594.818299054168,1,0,736854.680138528,736855.727258904,6,1,98,16,0
19,407,590.705376002006,0,0,736857.480252938,736858.527325964,6,0,76,0,0
19,408,688.650993397459,0,0,736860.186176255,736861.233271224,6,0,74,16,8
19,409,578.565247240476,0,0,736863.08036935,736864.127483567,6,0,92,4,0
19,410,500.063238083385,0,0,736865.821638243,736866.868720124,6,0,87,4,16
19,411,618.455286952667,0,0,736868.398176566,736869.445266146,6,0,88,8,16
19,412,470.169479609467,0,0,736871.186496928,736872.233587662,6,0,86,16,8
19,413,754.682192229666,1,0,736873.763084526,736874.810123291,6,1,63,4,8
19,414,498.643117025495,1,0,736876.774930545,736877.822035908,6,1,73,0,16
19,415,603.432955336757,1,0,736879.469090225,736880.5161748,6,1,70,0,8
19,416,647.179919062182,1,0,736882.210330631,736883.257419441,6,1,84,16,4
19,417,588.534966111183,0,0,736885.04571555,736886.092843625,6,0,84,4,4
19,418,655.306829838082,0,0,736887.716443041,736888.763467947,6,0,94,8,16
19,419,549.805968650617,1,0,736890.598820914,736891.64590087,6,1,73,16,16
19,420,775.575563311577,1,0,736893.35184228,736894.398926085,6,1,87,4,4
19,421,731.408222462051,1,0,736896.24603114,736897.29312303,6,1,64,16,0
19,422,559.314119396731,1,0,736899.187298417,736900.234374908,6,1,89,16,16
19,423,479.447423713282,0,0,736901.905019248,736902.952110367,6,0,85,0,0
19,424,586.107017355971,0,0,736904.540391539,736905.587479194,6,0,92,0,0
19,425,664.778409292921,0,0,736907.328708436,736908.375794166,6,0,99,16,4
19,426,570.980361429974,0,0,736910.246437659,736911.293525699,6,0,63,8,4
19,427,480.7582157664,0,0,736912.99945864,736914.046551685,6,0,65,4,4
19,428,979.164092452265,0,0,736915.623066525,736916.670149946,6,0,70,8,0
19,429,486.40713293571,0,0,736918.681974021,736919.729065526,6,0,80,0,8
19,430,715.746470610611,0,0,736921.364412795,736922.411489671,6,0,93,8,4
19,431,577.290641376749,1,0,736924.188010209,736925.235104794,6,1,77,8,8
19,432,606.831390643492,0,0,736926.870445519,736927.917542798,6,0,78,0,4
19,433,724.239864386618,1,0,736929.552877748,736930.599963478,6,1,69,8,16
19,434,731.412456952967,1,0,736932.458838715,736933.505929449,6,1,100,16,4
19,435,694.787271087989,0,0,736935.435404986,736936.482481477,6,0,82,4,16
19,436,633.248951751739,0,0,736938.3178279,736939.364915939,6,0,75,16,4
19,437,630.643151002005,0,0,736941.035553735,736942.082641775,6,0,69,16,4
19,438,574.918896891177,0,0,736943.812100065,736944.859249314,6,0,65,16,8
19,439,555.700490949675,0,0,736946.506303246,736947.553387436,6,0,75,16,8
19,440,446.644900250249,0,0,736949.200499113,736950.247582533,6,0,86,0,16
19,441,567.754388437606,0,0,736951.765321149,736952.812386476,6,0,94,8,0
19,442,510.448329965584,0,0,736954.506533838,736955.553612639,6,0,83,8,8
19,443,608.109461143613,1,0,736957.200725085,736958.24781505,6,1,63,8,0
19,444,539.663402247243,0,0,736959.97727488,736961.02435753,6,0,79,0,8
19,445,484.733322751708,1,0,736962.74208991,736963.789145613,6,1,75,0,8
19,446,477.03140869271,1,0,736965.306844578,736966.353927999,6,1,94,4,8
19,447,805.967076448724,1,0,736968.012797153,736969.059888272,6,1,88,16,16
19,448,769.791139988229,1,0,736971.012880689,736972.059977198,6,1,65,16,8
19,449,730.821541859768,1,0,736973.965910448,736975.013001952,6,1,93,8,4
19,450,436.796828988008,1,0,736976.871930313,736977.918974082,6,1,85,0,8
19,451,795.730194542557,1,0,736979.377891819,736980.42491634,6,1,90,8,16
19,452,522.958021378145,1,0,736982.34262593,736983.389699726,6,1,86,4,8
19,453,552.561519201845,1,0,736985.025046995,736986.07214081,6,1,68,0,4
19,454,642.424111254513,1,0,736987.76630126,736988.813388145,6,1,92,4,0
19,455,679.965889197774,0,0,736990.507560529,736991.554654728,6,0,65,4,8
19,456,598.924292600714,1,0,736993.35470485,736994.401796354,6,1,98,16,0
19,457,565.301802242175,1,0,736996.084195092,736997.131280437,6,1,72,8,4
19,458,786.740201176144,0,0,736998.907852945,736999.954894405,6,0,90,0,4
19,459,439.943114877678,1,0,737001.778517226,737002.825564075,6,1,86,16,16
19,460,734.213817864656,0,0,737004.437372906,737005.484458637,6,0,65,8,4
19,461,902.374389814213,0,0,737007.355100975,737008.402192479,6,0,86,4,16
19,462,829.146730713546,0,0,737010.449310931,737011.496398971,6,0,99,8,0
19,463,706.468526506796,1,0,737013.331738079,737014.378834588,6,1,94,16,16
19,464,998.201181995682,0,0,737016.261246338,737017.308332837,6,0,82,16,0
19,465,576.285893330351,1,0,737019.378979333,737020.426082002,6,1,79,4,4
19,466,488.216064521112,0,0,737022.026113722,737023.073200992,6,0,84,4,0
19,467,906.944261281751,0,0,737024.673241567,737025.720336536,6,0,92,0,16
19,468,593.196843401529,0,0,737027.732160227,737028.779240568,6,0,71,8,8
19,469,571.603998076171,1,0,737030.414584373,737031.461672412,6,1,78,0,16
19,470,474.700085236691,1,0,737033.073485093,737034.120571978,6,1,86,0,0
19,471,612.677022931166,1,0,737035.732449333,737036.779487713,6,1,66,0,4
19,472,507.916056667455,0,0,737038.603059719,737039.65014083,6,0,66,4,8
19,473,517.159739276394,0,0,737041.214897423,737042.261987002,6,0,66,8,8
19,474,508.130864938721,1,1,737043.873798529,737044.920883874,6,0,93,4,16
19,475,504.85292240046,0,0,737046.615049713,737047.662141218,6,0,66,4,4
19,476,581.152954720892,1,0,737049.226917444,737050.273980076,6,1,87,8,16
19,477,693.258206243627,1,0,737051.93285308,737052.97993881,6,1,100,0,0
19,478,1029.13395001087,1,0,737054.744689167,737055.791772587,6,1,81,16,0
19,479,551.434738561511,1,0,737057.909492109,737058.956574759,6,1,83,4,0
19,480,501.973029458895,1,0,737060.544861321,737061.591952826,6,1,82,0,4
19,481,620.820487034507,1,0,737079.01598309,737080.06306882,7,1,80,16,0
19,482,676.969738095067,0,0,737081.686644753,737082.733737412,7,0,79,4,0
19,483,616.687931120396,1,0,737084.427909411,737085.474990137,7,1,86,4,8
19,484,484.14510244038,0,0,737087.251519914,737088.298604874,7,0,77,8,16
19,485,656.405508401804,1,0,737089.81629383,737090.863372631,7,1,69,8,0
19,486,565.28216926381,1,0,737092.722254027,737093.769343991,7,1,66,4,0
19,487,672.467619529925,0,0,737095.392926084,737096.440023748,7,0,74,0,4
19,488,431.694171391428,0,0,737098.310655692,737099.357747966,7,0,76,0,4
19,489,694.970512529835,0,0,737100.863665586,737101.9107594,7,0,100,8,4
19,490,531.13844175823,0,0,737103.628456749,737104.675545558,7,0,77,4,0
19,491,547.592443181202,0,0,737106.357941987,737107.405031181,7,0,76,16,8
19,492,555.670078960247,1,0,737109.122765101,737110.169838127,7,1,79,4,16
19,493,552.157695172355,0,0,737111.758103131,737112.805184627,7,0,98,16,16
19,494,696.227409993298,1,0,737114.558177121,737115.605265931,7,1,92,8,4
19,495,644.101386191323,0,0,737117.511201105,737118.558292609,7,0,75,4,4
19,496,629.780453513376,0,0,737120.29952647,737121.346634913,7,0,97,16,4
19,497,565.401892061345,1,0,737122.981945996,737124.029035191,7,1,82,0,16
19,498,674.103703582659,1,0,737125.723199876,737126.77029369,7,1,64,16,4
19,499,733.95512404386,0,0,737128.523284259,737129.570420419,7,0,71,16,16
19,500,498.471039580181,1,0,737131.358656474,737132.405747594,7,1,99,4,4
19,501,906.836472218856,0,0,737133.923444634,737134.970527284,7,0,89,16,0
19,502,605.64725077711,1,0,737136.923516237,737137.970615825,7,1,82,16,4
19,503,532.133565866388,1,0,737139.700078735,737140.747157536,7,1,76,8,8
19,504,663.207383593544,1,0,737142.417797257,737143.464886836,7,1,92,8,8
19,505,482.273037196137,0,0,737145.323793255,737146.370850113,7,0,67,4,16
19,506,661.621729494073,1,0,737148.053256935,737149.100358833,7,1,76,16,16
19,507,742.53975355532,1,0,737150.947462733,737151.994543459,7,1,88,8,16
19,508,731.697713024914,0,0,737153.865186567,737154.912300014,7,0,89,0,16
19,509,500.93247985933,0,0,737156.78291656,737157.830011914,7,0,76,0,0
19,510,511.082745622844,0,0,737159.347702025,737160.39478737,7,0,97,8,4
19,511,527.578707667999,0,1,737162.077242697,737163.124279152,7,1,74,0,8
19,512,723.768287221901,1,0,737164.783150231,737165.830232497,7,1,62,4,4
19,513,773.126056767069,0,0,737167.606746875,737168.65383222,7,0,71,16,8
19,514,619.307590532117,1,0,737170.524488802,737171.571573762,7,1,99,0,16
19,515,636.450287071057,1,0,737173.242215792,737174.289303062,7,1,87,4,4
19,516,924.638991826214,0,0,737175.995233694,737177.042321349,7,0,90,8,0
19,517,762.030711979605,1,0,737178.983558213,737180.030636629,7,1,91,8,0
19,518,741.227036691271,0,0,737181.948347374,737182.995435798,7,0,86,16,8
19,519,745.351508376189,1,0,737184.748424828,737185.795513637,7,1,74,4,16
19,520,724.776884890161,0,0,737187.736746267,737188.783843931,7,0,69,8,8
19,521,625.101253041066,0,0,737190.54866589,737191.595677323,7,0,89,0,0
19,522,603.724755812436,0,0,737193.336910414,737194.383996529,7,0,70,0,16
19,523,643.487373483367,1,0,737196.184052426,737197.231138926,7,1,89,8,16
19,524,737.023647991009,0,0,737198.913543053,737199.960621469,7,0,94,4,8
19,525,705.050330376253,1,0,737201.8783249,737202.925419484,7,1,93,16,0
19,526,690.995790646411,1,0,737204.831390459,737205.878443468,7,1,74,4,4
19,527,664.355337270536,0,0,737207.596141586,737208.643224621,7,0,64,0,8
19,528,643.509701127186,0,0,737210.313876275,737211.360968165,7,0,75,0,0
19,529,997.212217189372,0,0,737213.102185088,737214.149264659,7,0,93,0,4
19,530,689.357781666331,1,0,737216.219924628,737217.267009588,7,1,88,16,4
19,531,631.491989945062,1,0,737219.078849909,737220.125907537,7,1,95,16,4
19,532,667.780719813891,1,0,737221.855377762,737222.902513537,7,1,91,8,8
19,533,555.332083255053,1,0,737224.631920627,737225.679015212,7,1,87,8,0
19,534,853.502055862919,1,0,737227.337889755,737228.3849751,7,1,98,0,8
19,535,825.519243604504,0,0,737230.408561658,737231.455650853,7,0,82,4,16
19,536,641.16451900918,1,0,737233.396864619,737234.443967673,7,1,63,0,4
19,537,666.175432736054,1,0,737236.244024339,737237.291105834,7,1,73,4,8
19,538,565.755671239458,1,0,737239.138225518,737240.185342815,7,1,87,16,8
19,539,582.170791574754,1,0,737241.808888336,737242.855969447,7,1,93,0,8
19,540,743.33585286513,0,0,737244.526601468,737245.573688738,7,0,69,4,0
19,541,558.881038334221,1,0,737247.397287692,737248.444378426,7,1,98,8,8
19,542,750.148506951518,0,0,737250.079701828,737251.126798722,7,0,79,0,8
19,543,558.377894456498,0,0,737252.985675883,737254.032764693,7,0,97,0,0
19,544,549.503389280289,0,0,737255.644563515,737256.691670033,7,0,68,16,16
19,545,539.174501900561,1,0,737258.385833563,737259.432923913,7,1,76,16,16
19,546,722.735821851529,0,0,737261.127137103,737262.174235536,7,0,91,16,0
19,547,557.299618725665,1,0,737264.056584152,737265.103674887,7,1,98,8,0
19,548,725.072149885818,1,0,737266.844882571,737267.89198293,7,1,99,4,0
19,549,598.77685259562,1,0,737269.739106848,737270.786183724,7,1,94,8,4
19,550,708.65818450693,0,0,737272.433291935,737273.48038575,7,0,71,16,0
19,551,612.941491068341,0,0,737275.36279134,737276.409882844,7,0,64,4,16
19,552,483.798252535053,1,0,737278.115813091,737279.162902286,7,1,75,0,0
19,553,554.780434234999,0,0,737280.715929503,737281.763038716,7,0,63,8,16
19,554,800.623433315195,0,0,737283.504202129,737284.551293634,7,0,81,0,4
19,555,646.212897030637,1,0,737286.398402539,737287.445488269,7,1,67,16,8
19,556,611.227644840255,0,0,737289.245544935,737290.292629895,7,0,72,4,8
19,557,767.125285346992,0,0,737292.104448658,737293.151546707,7,0,67,8,4
19,558,597.110356553458,1,0,737295.010414244,737296.057499974,7,1,73,4,8
19,559,568.247523508035,0,0,737297.728141235,737298.77522966,7,0,94,8,16
19,560,505.167435505427,0,0,737300.422337101,737301.469418982,7,0,98,0,16
19,561,489.743204670958,1,0,737334.22330343,737335.270395705,8,1,93,0,16
19,562,649.490454583429,0,0,737336.858673797,737337.905763377,8,0,71,0,4
19,563,498.83906217292,0,0,737339.635223977,737340.682344739,8,0,87,0,16
19,564,568.16398689989,0,0,737342.352943653,737343.400034388,8,0,76,8,8
19,565,574.461948359385,1,0,737345.023614171,737346.070707985,8,1,71,8,0
19,566,588.574617169797,0,0,737347.788398019,737348.835482209,8,0,73,0,0
19,567,740.680007031187,0,0,737350.60024527,737351.647321761,8,0,100,8,4
19,568,461.095564765856,0,0,737353.576806152,737354.623889572,8,0,88,0,4
19,569,958.720355643891,1,0,737356.165176635,737357.212199231,8,1,69,8,0
19,570,615.233548684046,1,0,737359.341706258,737360.388758881,8,1,78,16,8
19,571,511.629390181042,0,0,737362.106457,737363.153545039,8,0,65,0,8
19,572,659.209564095363,0,0,737364.706539535,737365.753614101,8,0,94,4,0
19,573,559.802249888889,0,0,737367.54191021,737368.5890021,8,0,96,16,16
19,574,477.812879486009,0,0,737370.342055033,737371.389102652,8,0,93,8,8
19,575,541.918118600734,1,1,737373.000892235,737374.048014536,8,0,90,4,4
19,576,688.993993564509,1,0,737375.612726859,737376.659816054,8,1,62,0,16
19,577,680.005540139973,1,0,737378.471629043,737379.518724397,8,1,91,4,0
19,578,580.088537652045,1,0,737381.377591549,737382.424686903,8,1,77,8,16
19,579,652.776866336353,1,0,737384.118905097,737385.165945402,8,1,64,8,8
19,580,576.4895377215,0,0,737387.001294904,737388.048379864,8,0,84,4,16
19,581,676.599020604044,1,0,737389.71901766,737390.766102235,8,1,68,8,0
19,582,670.734140323475,0,0,737392.636753042,737393.683834923,8,0,70,16,0
19,583,578.967146459036,0,0,737395.554481111,737396.601565301,8,0,75,0,0
19,584,710.991432890296,0,0,737398.260439844,737399.30752365,8,0,62,8,0
19,585,570.659303921275,1,0,737401.036982325,737402.08407229,8,1,84,16,8
19,586,643.819209770299,1,0,737403.660597909,737404.707717516,8,1,63,8,8
19,587,548.104056273587,0,0,737406.378317585,737407.425406395,8,0,77,4,8
19,588,1599.03054183815,1,0,737409.131337412,737410.178429301,8,1,89,4,0
19,589,548.725383239798,0,0,737412.872622088,737413.919706278,8,0,89,0,16
19,590,700.130529236048,0,0,737415.59033368,737416.637430574,8,0,70,4,4
19,591,737.144525628537,0,0,737418.508079071,737419.555165571,8,0,82,8,4
19,592,563.444750499912,1,0,737421.366983565,737422.414068525,8,1,85,16,4
19,593,702.423741691746,0,0,737424.131772417,737425.178853143,8,0,100,4,16
19,594,716.87594614923,1,0,737427.061267202,737428.108357552,8,1,67,4,8
19,595,589.476580615155,1,0,737429.884876935,737430.931959586,8,1,65,0,0
19,596,762.603148818016,0,0,737432.555566701,737433.602625483,8,0,69,16,4
19,597,599.638395244256,0,0,737435.402677915,737436.449768649,8,0,66,16,16
19,598,720.794078777544,0,0,737438.120409525,737439.16749564,8,0,92,16,0
19,599,500.836239662021,0,0,737440.979354824,737442.026456723,8,0,76,0,4
19,600,644.348531146534,1,0,737443.602912664,737444.64999416,8,1,72,4,4
19,601,721.781118656509,0,0,737446.332423694,737447.379495566,8,0,97,16,16
19,602,598.740281304345,0,0,737449.13248344,737450.179561856,8,0,83,0,16
19,603,927.546601975337,1,0,737451.979627761,737453.026711182,8,1,80,8,0
19,604,612.146931700408,1,0,737454.979712453,737456.026798953,8,1,90,4,0
19,605,729.00375619065,1,0,737457.768027425,737458.815116235,8,1,71,4,0
19,606,528.248539776541,0,0,737460.591637543,737461.638728662,8,0,67,16,0
19,607,1093.4216605965,1,0,737463.203473706,737464.250560976,8,1,66,16,4
19,608,627.936875447631,0,0,737466.391803153,737467.438892732,8,0,90,16,4
19,609,699.262057314627,0,0,737469.156589311,737470.203673886,8,0,92,0,4
19,610,720.820641028695,1,0,737471.944901973,737472.992035438,8,1,93,4,8
19,611,949.667998589575,0,0,737474.839143958,737475.886188497,8,0,88,16,8
19,612,480.142278247513,1,0,737477.862722432,737478.909811242,8,1,76,4,16
19,613,655.493535916321,1,0,737480.592209595,737481.639299174,8,1,77,16,4
19,614,555.681242840365,1,0,737483.357040408,737484.404083023,8,1,87,16,8
19,615,629.752736305818,0,0,737486.015899168,737487.0630207,8,0,70,0,8
19,616,555.365189909935,1,0,737488.698324083,737489.745412123,8,1,74,4,4
19,617,503.815837553702,0,0,737491.427853592,737492.474913914,8,0,85,4,4
19,618,745.373451150954,0,0,737494.157311113,737495.204392993,8,0,78,8,16
19,619,732.752121053636,0,0,737497.086812442,737498.133910876,8,0,89,0,0
19,620,578.242649906315,0,0,737499.957496741,737501.004557833,8,0,97,8,4
19,621,768.288637395017,1,0,737502.628134151,737503.675228736,8,1,80,16,0
19,622,595.619017840363,1,0,737505.651783843,737506.698831847,8,1,69,8,16
19,623,660.809076856822,0,0,737508.357721019,737509.404814833,8,0,79,8,16
19,624,873.095798771828,0,0,737511.087207797,737512.134293142,8,0,83,4,8
19,625,576.749386265874,1,0,737514.110829001,737515.157907032,8,1,66,4,16
19,626,582.599253160879,1,0,737516.757952612,737517.816810448,8,1,92,16,16
19,627,763.327260501683,1,0,737519.452146553,737520.499236518,8,1,91,8,16
19,628,651.832942152396,1,0,737522.381675985,737523.428737077,8,1,84,0,8
19,629,768.787546781823,1,0,737525.287614624,737526.334699584,8,1,93,8,4
19,630,638.889014720917,1,0,737528.111220892,737529.158356667,8,1,68,16,0
19,631,549.665457918309,1,0,737530.993656509,737532.040743009,8,1,92,0,0
19,632,494.275350007229,1,0,737533.734906924,737534.782001893,8,1,75,4,8
19,633,519.409066298977,1,0,737536.452640458,737537.499731193,8,1,76,16,8
19,634,520.833806716837,1,0,737539.229182169,737540.276277523,8,1,85,16,16
19,635,470.833537285216,1,0,737541.982205845,737543.029349704,8,1,76,0,8
19,636,702.788684749976,0,0,737544.535226903,737545.582312248,8,0,93,0,4
19,637,671.822039992549,0,0,737547.288293695,737548.335339774,8,0,68,8,4
19,638,692.621095804498,0,0,737550.076555927,737551.123647431,8,0,87,4,16
19,639,563.683041371405,1,0,737552.841333231,737553.888434744,8,1,62,0,8
19,640,597.805596073158,1,0,737555.653223982,737556.700280455,8,1,95,8,8
19,641,1920.89948104694,1,0,737571.135991205,737572.18307347,9,1,72,4,0
19,642,666.93149600178,1,0,737575.253757307,737576.300842267,9,1,92,4,8
19,643,653.808946721256,0,0,737578.042061115,737579.089151465,9,0,93,16,8
19,644,566.887456458062,0,0,737580.912736175,737581.959827294,9,0,99,16,16
19,645,544.961619889364,1,0,737583.618696449,737584.665788723,9,1,92,4,8
19,646,468.110708403401,0,0,737586.3717182,737587.41879546,9,0,69,0,4
19,647,459.342067595571,1,0,737589.042375628,737590.089474062,9,1,96,16,16
19,648,503.189121023752,1,0,737591.642462013,737592.689541584,9,1,78,0,16
19,649,706.468526506796,0,0,737594.219004186,737595.266095691,9,0,81,8,4
19,650,590.394712518901,1,0,737597.066138498,737598.113226923,9,1,73,0,16
19,651,868.056659935974,0,0,737599.85445424,737600.901549209,9,0,91,8,8
19,652,467.484761844389,1,0,737602.783944406,737603.831036295,9,1,96,0,0
19,653,459.223114652559,1,0,737605.46638395,737606.513471604,9,1,96,16,16
19,654,595.878866384737,1,0,737608.066452626,737609.11355029,9,1,81,0,0
19,655,679.149386938661,0,0,737610.772418675,737611.819502095,9,0,79,4,0
19,656,459.335908177309,0,0,737613.596028022,737614.643115677,9,0,87,0,16
19,657,463.458455167711,0,0,737616.254926818,737617.302013318,9,0,86,4,4
19,658,497.112127370201,0,0,737618.843238403,737619.890320283,9,0,88,0,4
19,659,672.84950078465,1,0,737621.431561921,737622.478683837,9,1,80,8,4
19,660,691.528576659039,1,0,737624.325747701,737625.372838436,9,1,79,0,8
19,661,625.400752644055,1,0,737627.219958505,737628.26703615,9,1,78,8,16
19,662,574.034641613252,0,0,737630.067091662,737631.114178162,9,0,67,8,4
19,663,787.739559775218,0,0,737632.796586524,737633.843680723,9,0,90,16,16
19,664,744.20239997562,1,0,737635.784904498,737636.831987919,9,1,67,4,16
19,665,660.326720797457,0,0,737638.737927712,737639.785019217,9,0,74,4,4
19,666,525.932229706086,1,0,737641.632122347,737642.679215391,9,1,79,0,16
19,667,672.224709182046,1,0,737644.243956971,737645.291056944,9,1,92,16,0
19,668,656.034791027196,1,0,737646.996987191,737648.044079465,9,1,63,4,8
19,669,529.206707607955,0,0,737649.761768345,737650.808855615,9,0,78,0,16
19,670,556.473107542843,1,0,737652.479501494,737653.526588764,9,1,88,4,16
19,671,633.367904694751,1,0,737655.279576254,737656.326665063,9,1,100,4,16
19,672,615.678948466666,1,0,737658.044356637,737659.091456611,9,1,97,4,0
19,673,567.088021081872,1,0,737660.820921061,737661.867999862,9,1,91,0,0
19,674,683.772383141331,0,0,737663.562164931,737664.609246812,9,0,86,8,0
19,675,611.160661675967,1,0,737666.491669725,737667.538751606,9,1,95,16,8
19,676,572.445522760972,0,0,737669.209395946,737670.256469742,9,0,68,8,8
19,677,553.324511856772,0,0,737671.962414232,737673.009498807,9,0,66,8,16
19,678,919.795798021369,0,0,737674.69189947,737675.739037555,9,0,77,16,0
19,679,807.293651858345,1,0,737677.762577917,737678.809664032,9,1,78,8,8
19,680,560.651088831946,0,0,737680.797981237,737681.845055033,9,0,88,16,0
19,681,560.214928118512,1,0,737683.480394219,737684.527478409,9,1,86,8,0
19,682,742.069331230596,0,0,737686.174604714,737687.22167697,9,0,72,4,8
19,683,502.265214803629,1,0,737689.033493424,737690.080578769,9,1,68,0,4
19,684,642.218927037902,0,0,737691.645331897,737692.692417627,9,0,100,16,4
19,685,666.223167791031,1,0,737694.339530074,737695.386611954,9,1,70,0,8
19,686,619.346856488846,1,0,737697.257334364,737698.304343487,9,1,64,16,0
19,687,661.441952688619,0,0,737700.069096538,737701.116191123,9,0,93,0,0
19,688,1015.41933079716,1,0,737702.869183617,737703.916261262,9,1,82,8,4
19,689,891.485768952407,1,0,737706.033980784,737707.08106228,9,1,97,16,4
19,690,552.116119419225,0,0,737709.163477032,737710.210565457,9,0,68,16,8
19,691,840.75368870981,0,0,737711.810665701,737712.85771024,9,0,96,8,8
19,692,648.558849119581,0,0,737714.845992413,737715.893080068,9,0,69,4,4
19,693,715.766103588976,0,0,737717.563738652,737718.610804364,9,0,81,0,8
19,694,736.127458862029,0,0,737720.399095468,737721.446177349,9,0,73,4,0
19,695,488.512869458646,0,0,737723.222704816,737724.26979709,9,0,87,0,8
19,696,612.443351652473,1,0,737725.822778882,737726.869865767,9,1,96,16,4
19,697,484.015755471773,1,0,737728.599327523,737729.6464914,9,1,77,0,8
19,698,943.107878905721,0,0,737731.164111448,737732.211195253,9,0,82,8,0
19,699,645.476081757806,0,0,737734.187722644,737735.234813378,9,0,72,0,0
19,700,703.58747872524,1,0,737736.999562195,737738.046656394,9,1,83,4,4
19,701,697.269499418326,0,0,737739.787890256,737740.83497714,9,0,91,16,4
19,702,646.859631408006,1,0,737742.729153682,737743.776237102,9,1,80,0,4
19,703,579.191963654011,0,0,737745.493930601,737746.541020951,9,0,65,16,0
19,704,716.008244082332,0,0,737748.235185635,737749.282303702,9,0,68,4,16
19,705,715.205215499736,0,0,737751.199974796,737752.247063991,9,0,79,0,4
19,706,919.370031217113,1,0,737754.117709409,737755.164794369,9,1,65,16,4
19,707,601.101246778853,1,0,737757.258980072,737758.306057333,9,1,98,4,16
19,708,626.43360288348,1,0,737759.929639811,737760.97673016,9,1,63,8,0
19,709,598.270628834143,1,0,737762.635603164,737763.682686199,9,1,100,16,16
19,710,524.719217675738,1,0,737765.306268677,737766.353357487,9,1,64,8,0
19,711,608.780063106678,1,0,737767.965161698,737769.012245119,9,1,74,8,8
19,712,812.842864193954,0,0,737770.729950551,737771.777082477,9,0,67,4,0
19,713,837.0904000476,1,0,737773.788866132,737774.835955326,9,1,75,4,8
19,714,1026.21517598163,0,0,737776.88309957,737777.930145264,9,0,73,4,4
19,715,668.445547460578,0,0,737780.071425552,737781.118493574,9,0,100,8,16
19,716,541.448466130532,0,0,737782.930303483,737783.977385364,9,0,96,16,8
19,717,737.569907447323,0,0,737785.683312531,737786.730401726,9,0,62,8,4
19,718,564.824065659195,1,0,737788.506939587,737789.554031861,9,1,64,8,16
19,719,653.96139130462,0,0,737791.165837613,737792.212924498,9,0,63,16,8
19,720,671.208412153646,0,0,737793.883554209,737794.930648793,9,0,83,8,16
