sub_id,Trial,RT,Resp,Error,Fix_onset,Disp_onset,block,tid,tloc,fish_setsize,bird_setsize
1,1,597.31586324051,1,0,2290768.40428173,2290769.45133954,1,1,62,4,8
1,2,655.323543585837,1,0,2290771.25133115,2290772.29838126,1,1,89,8,4
1,3,941.319841891527,0,0,2290774.14542913,2290775.19249233,1,0,75,0,0
1,4,372.169038280845,0,0,2290777.14540681,2290778.19244152,1,0,65,4,16
1,5,588.571825996041,1,0,2290779.61596719,2290780.66301537,1,1,72,8,0
1,6,651.380373165011,0,0,2290782.3924091,2290783.43946152,1,0,81,16,16
1,7,595.466118305922,1,0,2290785.11004146,2290786.15708195,1,1,91,8,0
1,8,399.126033298671,1,0,2290787.88648761,2290788.93353233,1,1,61,0,16
1,9,566.760239191353,0,0,2290790.47476412,2290791.52176072,1,0,78,8,4
1,10,600.274299271405,0,0,2290793.14526437,2290794.1923218,1,0,87,16,16
1,11,376.519498880953,1,0,2290795.90995492,2290796.9570058,1,1,83,0,8
1,12,378.134416416287,0,0,2290798.53344895,2290799.58051022,1,0,74,8,0
1,13,414.505282882601,1,0,2290801.14520817,2290802.19225058,1,1,83,16,0
1,14,487.64506727457,0,0,2290803.80401018,2290804.85105066,1,0,89,0,16
1,15,529.163651634008,0,0,2290806.39225935,2290807.43925826,1,0,63,8,0
1,16,446.974170394242,0,0,2290809.02749397,2290810.07454639,1,0,70,0,4
1,17,639.4781046547,1,0,2290811.55689047,2290812.60393249,1,1,69,0,8
1,18,483.124838210642,1,0,2290814.42745224,2290815.4745035,1,1,86,16,8
1,19,502.496918197721,1,0,2290817.0039077,2290818.05095011,1,1,72,8,8
1,20,622.827324084938,0,0,2290819.56858986,2290820.61570195,1,0,71,16,4
1,21,607.05310292542,1,0,2290822.33326732,2290823.38031397,1,1,61,16,16
1,22,576.994465664029,0,0,2290825.18030712,2290826.22736108,1,0,88,16,16
1,23,672.346197534353,0,0,2290827.89793486,2290828.94497573,1,0,81,16,8
1,24,397.171963937581,1,0,2290830.68616471,2290831.73319557,1,1,75,4,16
1,25,647.119224071503,1,0,2290833.27436538,2290834.32140702,1,1,91,8,16
1,26,583.489936776459,1,0,2290836.05081191,2290837.09785702,1,1,79,8,16
1,27,548.781338147819,0,0,2290838.70965819,2290839.75667366,1,0,88,8,0
1,28,581.907356157899,1,0,2290841.47429793,2290842.52134766,1,1,62,4,0
1,29,615.18312478438,0,0,2290844.18015429,2290845.22720709,1,0,61,16,8
1,30,544.72922347486,1,0,2290846.9684261,2290848.01541923,1,1,71,16,8
1,31,403.313269838691,1,0,2290849.63893713,2290850.68598146,1,1,62,4,8
1,32,647.515350487083,0,0,2290852.29774722,2290853.34478848,1,0,87,8,16
1,33,761.461923830211,0,0,2290855.05065446,2290856.0977038,1,0,70,8,8
1,34,559.855167753994,0,0,2290857.92122547,2290858.9682698,1,0,95,0,4
1,35,533.483700361103,0,0,2290860.63885475,2290861.68590062,1,0,74,4,0
1,36,657.817330677062,0,0,2290863.41533978,2290864.46235062,1,0,90,4,4
1,37,619.058926589787,1,0,2290866.22705041,2290867.27409937,1,1,80,8,8
1,38,434.784719720483,1,0,2290869.00349194,2290870.05053705,1,1,84,0,8
1,39,649.787783622742,0,0,2290871.55640465,2290872.60347516,1,0,80,16,0
1,40,863.53394575417,1,0,2290874.3446241,2290875.39166767,1,1,63,8,4
1,41,393.313485197723,0,0,2290877.33283463,2290878.37987896,1,0,66,0,4
1,42,497.855426277965,0,0,2290879.95634174,2290881.00338993,1,0,72,0,16
1,43,573.712660465389,1,0,2290882.66221465,2290883.70924898,1,1,69,0,8
1,44,495.407064910978,0,0,2290885.33277072,2290886.3798166,1,0,88,4,0
1,45,460.408974904567,0,0,2290887.99160045,2290889.03862361,1,0,84,0,16
1,46,419.371593277901,1,0,2290890.57979381,2290891.62683891,1,1,96,4,0
1,47,414.188458584249,0,0,2290893.07389041,2290894.1209282,1,0,94,0,0
1,48,485.337987076491,0,0,2290895.73274093,2290896.77973753,1,0,82,0,0
1,49,445.030109956861,1,0,2290898.42679203,2290899.4738406,1,1,82,4,16
1,50,421.202859841287,1,0,2290901.08558557,2290902.13263991,1,1,93,0,8
1,51,613.210192415863,1,0,2290903.73262929,2290904.77967208,1,1,70,4,4
1,52,508.30407673493,0,0,2290906.59143007,2290907.63850713,1,0,89,0,4
1,53,465.651008300483,1,0,2290909.29728989,2290910.34433692,1,1,97,16,4
1,54,372.55746498704,1,0,2290911.83844622,2290912.88549479,1,1,67,0,16
1,55,371.752894017845,0,0,2290914.26201809,2290915.30901161,1,0,84,8,16
1,56,400.69667994976,1,0,2290916.7443333,2290917.79133722,1,1,93,4,8
1,57,373.457507696003,0,0,2290919.33250587,2290920.37954982,1,0,74,0,0
1,58,447.175505571067,1,0,2290921.93254721,2290922.9795519,1,1,94,16,0
1,59,627.822211943567,0,0,2290924.4619441,2290925.50895802,1,0,91,4,8
1,60,569.371053948998,1,0,2290927.285383,2290928.33242888,1,1,97,4,4
1,61,520.850772503763,1,0,2290929.9559587,2290931.00305001,1,1,99,0,0
1,62,649.997203610837,1,0,2290932.708926,2290933.7559199,1,1,83,16,4
1,63,536.994557827711,0,0,2290935.46178819,2290936.50888719,1,0,61,16,8
1,64,440.959902014583,1,0,2290938.16765995,2290939.21469543,1,1,83,4,16
1,65,578.62824620679,0,0,2290940.75586331,2290941.80298002,1,0,100,8,4
1,66,412.629361264408,0,0,2290943.59114866,2290944.63820916,1,0,86,0,4
1,67,423.289355821908,1,0,2290946.07347542,2290947.12052591,1,1,82,8,8
1,68,438.93076479435,1,0,2290948.75581019,2290949.80291997,1,1,66,4,8
1,69,926.332099363208,1,0,2290951.33225718,2290952.37930537,1,1,80,16,16
1,70,546.167828142643,0,0,2290954.42635317,2290955.4733975,1,0,92,16,0
1,71,705.194273497909,1,0,2290957.026336,2290958.07337687,1,1,70,4,16
1,72,528.258990030736,0,0,2290959.93219305,2290960.97924008,1,0,73,16,4
1,73,504.661177285016,0,0,2290962.60275951,2290963.64981771,1,0,88,16,0
1,74,604.191677179188,0,0,2290965.32038802,2290966.36743313,1,0,81,8,8
1,75,615.414102096111,0,0,2290968.02625092,2290969.07330142,1,0,100,4,4
1,76,611.006667371839,1,0,2290970.76742335,2290971.81445498,1,1,91,8,4
1,77,383.038837928325,0,0,2290973.4615037,2290974.50854804,1,0,76,8,16
1,78,437.364352867007,0,0,2290976.02618625,2290977.07323944,1,0,100,4,4
1,79,384.863944724202,1,0,2290978.69675733,2290979.74380667,1,1,97,4,0
1,80,630.066542886198,1,0,2290981.30849807,2290982.35554818,1,1,61,16,4
1,81,977.744218427688,0,0,2291013.00238248,2291014.04943067,2,0,75,16,4
1,82,540.43881688267,0,0,2291016.17885157,2291017.22589629,2,0,71,8,4
1,83,619.067395571619,0,0,2291018.81409158,2291019.86114861,2,0,99,4,8
1,84,405.918310396373,1,0,2291021.64937115,2291022.69649633,2,1,75,8,16
1,85,458.180041983724,0,0,2291024.1669905,2291025.21403137,2,0,83,16,8
1,86,367.469801567495,1,0,2291026.73167035,2291027.77871738,2,1,64,4,8
1,87,391.201196238399,1,0,2291029.22582084,2291030.27282052,2,1,62,0,0
1,88,380.24747511372,0,0,2291031.86106623,2291032.90810287,2,0,74,0,8
1,89,371.979251969606,1,0,2291034.33162854,2291035.37867826,2,1,84,0,0
1,90,508.776040747762,0,0,2291036.79042909,2291037.83747727,2,0,84,8,4
1,91,405.934093985707,1,1,2291039.55510848,2291040.60216244,2,0,82,0,0
1,92,488.014630973339,0,0,2291042.20215528,2291043.24926544,2,0,89,0,8
1,93,477.817746344954,1,0,2291044.74335588,2291045.79034902,2,1,78,8,16
1,94,498.428635299206,1,0,2291047.31981058,2291048.36681334,2,1,81,0,4
1,95,501.613814383745,1,0,2291049.93149742,2291050.97855562,2,1,98,16,0
1,96,398.738376330584,0,0,2291052.63736148,2291053.68445008,2,0,73,8,8
1,97,386.936197523028,1,0,2291055.15498814,2291056.20204479,2,1,97,4,4
1,98,497.337651439011,0,0,2291057.67262442,2291058.71967145,2,0,92,0,8
1,99,619.451588019729,1,0,2291060.31966622,2291061.36670362,2,1,90,16,16
1,100,465.203296393156,1,0,2291063.10793841,2291064.1549277,2,1,73,4,4
1,101,398.209822829813,1,0,2291065.66079992,2291066.70786696,2,1,81,0,16
1,102,398.291434627026,0,0,2291068.1902122,2291069.23723382,2,0,72,8,8
1,103,522.575019393116,0,0,2291070.67255474,2291071.71957136,2,0,71,16,0
1,104,479.76411646232,0,0,2291073.28433821,2291074.33133173,2,0,94,16,8
1,105,387.39276304841,0,0,2291075.94307671,2291076.99015299,2,0,76,0,4
1,106,383.204756304622,1,0,2291078.47247898,2291079.51956951,2,1,87,4,0
1,107,527.271946426481,1,0,2291080.91952162,2291081.9665625,2,1,79,0,8
1,108,512.017809785903,0,0,2291083.60184253,2291084.64889611,2,0,62,8,16
1,109,616.617879830301,1,0,2291086.2842335,2291087.33122625,2,1,91,0,0
1,110,370.857856236398,1,0,2291088.97827151,2291090.02532355,2,1,84,16,16
1,111,370.350475423038,0,0,2291091.48413565,2291092.53118345,2,0,76,0,16
1,112,745.250770356506,1,0,2291094.01353407,2291095.06058149,2,1,77,8,4
1,113,370.803576428443,1,0,2291096.97821685,2291098.02525772,2,1,66,0,0
1,114,414.92681670934,1,0,2291099.54291094,2291100.5900111,2,1,77,16,4
1,115,590.045846998692,0,0,2291102.04877199,2291103.09587754,2,0,93,8,0
1,116,370.577988214791,1,0,2291104.83698837,2291105.88402539,2,1,96,0,4
1,117,550.559864379466,0,0,2291107.2722604,2291108.31930936,2,0,61,4,16
1,118,473.327929154038,0,0,2291110.01342205,2291111.06045637,2,0,83,0,16
1,119,441.616262774915,1,0,2291112.71927071,2291113.76631966,2,1,66,16,0
1,120,477.671845350415,1,0,2291115.23689159,2291116.28394209,2,1,94,4,0
1,121,502.575836144388,0,0,2291117.90745382,2291118.95450855,2,0,61,8,4
1,122,535.573276225477,1,0,2291120.53097749,2291121.57802837,2,1,79,0,16
1,123,380.272882524878,0,0,2291123.17801698,2291124.22509557,2,0,66,0,4
1,124,511.183211114258,1,0,2291125.70749663,2291126.75447244,2,1,93,4,8
1,125,807.755967136472,1,0,2291128.3424882,2291129.38973362,2,1,77,4,0
1,126,405.504860915244,0,0,2291131.33089634,2291132.37795261,2,0,65,16,4
1,127,456.68561803177,0,0,2291133.78971152,2291134.83681321,2,0,86,16,4
1,128,395.559356082231,0,0,2291136.31909493,2291137.36614851,2,0,97,8,4
1,129,384.178711567074,0,0,2291138.96614135,2291140.01318299,2,0,97,16,16
1,130,523.730291984975,0,0,2291141.58964923,2291142.63668625,2,0,93,4,0
1,131,568.129165563732,0,0,2291144.20118259,2291145.24844316,2,0,69,16,16
1,132,410.877011716366,1,0,2291146.83669349,2291147.88370356,2,1,73,0,8
1,133,631.415065843612,1,0,2291149.46017905,2291150.50721915,2,1,79,16,0
1,134,441.590470261872,1,0,2291152.28372805,2291153.33073581,2,1,66,4,8
1,135,463.438628707081,0,0,2291154.81307758,2291155.86012923,2,0,87,4,4
1,136,597.603814676404,0,0,2291157.53069647,2291158.5777639,2,0,62,4,16
1,137,374.594301450998,1,0,2291160.27185696,2291161.31891246,2,1,76,4,0
1,138,549.687154591084,0,0,2291162.82480547,2291163.87182632,2,0,71,8,0
1,139,1585.64072195441,0,0,2291165.62476127,2291166.67180715,2,0,71,4,8
1,140,503.938602749258,1,0,2291169.34237592,2291170.38947261,2,1,71,4,4
1,141,474.041649606079,1,0,2291171.95412051,2291173.00117562,2,1,63,16,8
1,142,583.504950627685,0,0,2291174.61292984,2291175.65998033,2,0,77,8,0
1,143,712.490466423333,0,0,2291177.38938407,2291178.43676525,2,0,76,4,4
1,144,495.4455611296,1,0,2291180.27171144,2291181.31874539,2,1,85,16,16
1,145,650.777522008866,1,0,2291182.93054117,2291183.97755664,2,1,98,16,8
1,146,375.362301710993,1,0,2291185.67166086,2291186.71872175,2,1,86,4,16
1,147,436.299931723624,1,0,2291188.21281604,2291189.25990965,2,1,66,8,16
1,148,462.955115828663,0,0,2291190.74221216,2291191.78933272,2,0,88,4,16
1,149,654.985546600074,1,0,2291193.38925087,2291194.43635334,2,1,81,8,8
1,150,549.345307983458,1,0,2291196.25981996,2291197.30686968,2,1,70,4,16
1,151,619.831161107868,0,0,2291199.03630229,2291200.08331467,2,0,98,16,4
1,152,445.50014892593,0,0,2291201.718654,2291202.76565021,2,0,96,16,8
1,153,447.426116093993,1,0,2291204.36565229,2291205.41269008,2,1,78,8,8
1,154,375.595204066485,1,0,2291206.94208774,2291207.98938769,2,1,67,8,16
1,155,493.663101457059,1,0,2291209.4715801,2291210.51834773,2,1,63,8,0
1,156,648.132445290685,0,0,2291212.21263934,2291213.25968791,2,0,64,0,16
1,157,685.863769147545,0,0,2291214.94221709,2291215.98909011,2,0,85,0,4
1,158,605.192579794675,0,0,2291217.75379106,2291218.80083,2,0,65,8,8
1,159,828.292943537235,1,0,2291220.45969669,2291221.50671138,2,1,82,16,0
1,160,487.633133307099,0,0,2291223.51844504,2291224.56550285,2,0,93,8,0
1,161,584.222520235926,1,0,2291236.9065969,2291237.95363392,3,1,69,4,16
1,162,423.519948497415,0,0,2291239.62421501,2291240.67127051,3,0,68,0,8
1,163,502.228599507362,0,0,2291242.25949004,2291243.306539,3,0,87,16,16
1,164,373.797429259866,1,0,2291244.84771997,2291245.89475353,3,1,96,16,0
1,165,395.707566756755,0,1,2291247.377103,2291248.42414579,3,1,100,0,0
1,166,719.437498599291,0,0,2291249.91831246,2291250.96530521,3,0,98,8,8
1,167,531.812963075936,0,0,2291252.8829987,2291253.92999876,3,0,92,8,0
1,168,501.503715291619,0,0,2291255.67116233,2291256.71820397,3,0,66,4,8
1,169,543.830720707774,0,0,2291258.3770595,2291259.42407111,3,0,61,16,0
1,170,590.556307230145,1,0,2291261.11818342,2291262.16522236,3,1,90,0,16
1,171,409.142755903304,1,0,2291263.89462533,2291264.9416689,3,1,63,0,16
1,172,561.068184208125,1,0,2291266.43579437,2291267.48284025,3,1,91,4,16
1,173,476.700970437378,1,0,2291269.22401883,2291270.27104854,3,1,64,4,8
1,174,614.422054030001,1,0,2291271.95338485,2291273.00043957,3,1,61,16,8
1,175,482.891166117042,1,0,2291274.63572693,2291275.68277896,3,1,61,8,0
1,176,605.715358629823,1,0,2291277.22395416,2291278.2709908,3,1,75,4,0
1,177,628.986723255366,1,0,2291280.03568943,2291281.08280537,3,1,100,8,16
1,178,613.59592480585,0,0,2291282.91802143,2291283.96506961,3,0,80,0,4
1,179,455.827151425183,0,0,2291285.72978172,2291286.77682105,3,0,74,4,4
1,180,637.147156987339,1,0,2291288.24739722,2291289.29444271,3,1,82,8,0
1,181,400.666652712971,1,0,2291290.9767921,2291292.02390342,3,1,65,16,8
1,182,409.317528828979,1,0,2291293.50617898,2291294.55322486,3,1,95,16,16
1,183,489.829344209284,1,0,2291296.03557433,2291297.0826483,3,1,79,0,8
1,184,520.90697735548,0,0,2291298.72970704,2291299.77672404,3,0,80,8,8
1,185,582.245738245547,0,0,2291301.44732554,2291302.49434985,3,0,100,0,4
1,186,565.705441869795,1,0,2291304.28259125,2291305.32967716,3,1,97,16,8
1,187,403.229732997715,0,0,2291307.09432075,2291308.14136085,3,0,65,4,8
1,188,388.191560283303,1,0,2291309.60018026,2291310.64722729,3,1,66,0,16
1,189,525.342129636556,0,0,2291312.05899005,2291313.10603477,3,0,76,16,16
1,190,585.010923445225,1,0,2291314.78838263,2291315.83542658,3,1,94,16,4
1,191,454.193370882422,0,0,2291317.49424168,2291318.54129525,3,0,77,8,8
1,192,528.40258134529,0,1,2291320.10598011,2291321.1530333,3,1,89,4,0
1,193,424.662516918033,0,0,2291322.76479213,2291323.81183762,3,0,67,0,0
1,194,445.367336738855,0,0,2291325.44712844,2291326.49418355,3,0,69,0,0
1,195,555.234463419765,1,0,2291327.98832173,2291329.03533796,3,1,65,4,4
1,196,618.47609328106,0,0,2291330.65885355,2291331.70590558,3,0,88,16,0
1,197,418.198612518609,0,0,2291333.40001096,2291334.44705953,3,0,68,4,4
1,198,515.980998054147,0,0,2291335.91764147,2291336.97647181,3,0,75,16,4
1,199,522.352896165103,0,0,2291338.55291188,2291339.59996507,3,0,62,4,0
1,200,476.432266645134,0,0,2291341.25878325,2291342.30582335,3,0,88,4,0
1,201,574.666982516646,0,0,2291343.82347234,2291344.87055132,3,0,63,8,16
1,202,537.27558022365,1,0,2291346.49403996,2291347.54108468,3,1,70,16,16
1,203,563.485748134553,0,0,2291349.15284428,2291350.199889,3,0,85,0,4
1,204,466.410538647324,0,0,2291351.84694235,2291352.89398476,3,0,71,0,0
1,205,391.717431135476,0,0,2291354.52927827,2291355.57636495,3,0,67,0,0
1,206,650.109997019172,1,0,2291357.03514355,2291358.08219135,3,1,90,8,8
1,207,404.47778115049,1,0,2291359.75277168,2291360.79981447,3,1,66,0,4
1,208,472.454064525664,1,0,2291362.30568708,2291363.35274026,3,1,74,16,4
1,209,621.471486520022,0,0,2291364.90567645,2291365.9527154,3,0,90,16,0
1,210,450.11546369642,0,0,2291367.63506364,2291368.68211683,3,0,69,16,16
1,211,609.672387130558,1,0,2291370.22329087,2291371.27038833,3,1,95,8,16
1,212,531.026484910399,1,0,2291373.03503153,2291374.08207933,3,1,73,4,0
1,213,378.526308108121,0,0,2291375.76442103,2291376.81146575,3,0,66,0,8
1,214,618.779828771949,1,0,2291378.36446122,2291379.41145243,3,1,100,8,4
1,215,678.582974243909,0,0,2291381.11733727,2291382.16437506,3,0,82,16,4
1,216,769.708974286914,0,0,2291383.96436397,2291385.01140331,3,0,71,16,8
1,217,444.92155034095,1,0,2291386.88198163,2291387.92904944,3,1,61,0,16
1,218,649.461335502565,0,0,2291389.44667841,2291390.49372891,3,0,80,4,8
1,219,631.45587220788,0,0,2291392.30548343,2291393.35252315,3,0,61,8,0
1,220,613.46734687686,0,0,2291395.05841607,2291396.10544193,3,0,61,8,4
1,221,619.210217148066,0,0,2291397.84661859,2291398.89366793,3,0,100,8,4
1,222,512.792739085853,0,0,2291400.56424441,2291401.61129067,3,0,84,4,16
1,223,598.254401236773,1,0,2291403.14068832,2291404.18773843,3,1,99,4,8
1,224,457.480180077255,0,0,2291405.81126788,2291406.85831606,3,0,74,4,16
1,225,589.165053330362,1,0,2291408.43477692,2291409.48182472,3,1,91,0,4
1,226,465.041997376829,0,0,2291411.23475967,2291412.28180555,3,0,85,4,4
1,227,384.7561548464,1,0,2291413.85827063,2291414.90531343,3,1,95,0,16
1,228,374.131191987544,1,0,2291416.38767676,2291417.43472379,3,1,95,16,4
1,229,591.573378071189,1,0,2291419.01117425,2291420.05822359,3,1,61,16,8
1,230,385.2689252235,1,0,2291421.74056567,2291422.78761501,3,1,71,4,16
1,231,439.520142506808,0,0,2291424.35231604,2291425.39936653,3,0,78,0,8
1,232,698.978669475764,1,0,2291426.9287742,2291427.9758116,3,1,70,8,16
1,233,592.963092494756,1,0,2291429.88168636,2291430.92873955,3,1,88,8,4
1,234,379.073339514434,0,0,2291432.68166373,2291433.72874271,3,0,87,8,8
1,235,561.793453525752,1,0,2291435.22283507,2291436.26987402,3,1,79,8,16
1,236,554.55038510263,0,0,2291437.99928161,2291439.04631208,3,0,85,8,4
1,237,370.403985492885,1,0,2291440.64631994,2291441.69336389,3,1,96,16,0
1,238,395.268324296921,1,0,2291443.24630007,2291444.29334518,3,1,84,8,0
1,239,421.733337454498,1,0,2291445.85804428,2291446.90510132,3,1,67,0,8
1,240,519.968438893557,0,0,2291448.42274145,2291449.46978925,3,0,78,4,4
1,241,576.701893936843,0,0,2291466.25790823,2291467.30495603,4,0,75,4,4
1,242,373.783186078072,1,0,2291468.98731043,2291470.03434514,4,1,77,0,16
1,243,399.71271622926,1,0,2291471.50492747,2291472.55197219,4,1,94,0,4
1,244,460.363548714668,0,0,2291474.14028873,2291475.18725299,4,0,64,8,0
1,245,370.836683083326,0,0,2291476.82253958,2291477.86962587,4,0,67,8,0
1,246,481.069523841143,1,0,2291479.37546075,2291480.42251663,4,1,61,0,8
1,247,514.408810995519,0,0,2291481.99897325,2291483.04601528,4,0,89,0,0
1,248,444.543902296573,0,0,2291484.65777642,2291485.70483846,4,0,97,16,8
1,249,372.833483386785,0,0,2291487.25776195,2291488.30480859,4,0,66,0,16
1,250,471.417360473424,0,0,2291489.74009756,2291490.78714035,4,0,80,8,0
1,251,379.948744084686,0,0,2291492.42242886,2291493.46952632,4,0,99,0,16
1,252,564.643330406398,1,0,2291494.9048969,2291495.95182344,4,1,62,16,8
1,253,418.685975018889,0,0,2291497.71651553,2291498.76361953,4,0,98,4,4
1,254,403.944993391633,0,1,2291500.37531331,2291501.42236919,4,1,70,0,8
1,255,541.58331034705,1,0,2291502.85765046,2291503.90469788,4,1,91,0,4
1,256,395.672920159996,1,0,2291505.6105858,2291506.65761782,4,1,65,16,16
1,257,602.394287008792,1,0,2291508.13996844,2291509.18702202,4,1,96,16,4
1,258,547.710372135043,1,0,2291510.91642845,2291511.9634724,4,1,84,16,4
1,259,436.257200781256,1,0,2291513.6811498,2291514.72815718,4,1,78,8,8
1,260,669.678793288767,0,0,2291516.35167815,2291517.39872133,4,0,71,16,4
1,261,426.95843288675,1,0,2291519.2222557,2291520.26936125,4,1,84,8,4
1,262,600.098756607622,1,0,2291521.88105271,2291522.92810706,4,1,87,16,16
1,263,468.109378125519,1,0,2291524.72808981,2291525.77513453,4,1,80,0,16
1,264,561.230253428221,0,0,2291527.43399313,2291528.48101014,4,0,96,4,8
1,265,439.123630989343,1,0,2291530.18686495,2291531.23392353,4,1,98,8,4
1,266,597.931032534689,0,0,2291532.86921127,2291533.91629333,4,0,63,4,16
1,267,387.167945038527,0,0,2291535.52801444,2291536.57505954,4,0,75,0,8
1,268,398.414237890393,0,0,2291537.99858059,2291539.04563263,4,0,86,4,0
1,269,562.174951191992,1,0,2291540.53975001,2291541.58679166,4,1,92,4,4
1,270,566.162392497063,0,0,2291543.17507124,2291544.22207362,4,0,81,8,8
1,271,554.584646597505,0,0,2291545.90441146,2291546.95145965,4,0,92,8,16
1,272,436.497417278588,1,0,2291548.69263438,2291549.73967256,4,1,65,0,0
1,273,512.977520935237,0,0,2291551.2220305,2291552.26907522,4,0,79,8,8
1,274,500.565561465919,0,0,2291553.8925962,2291554.93963822,4,0,94,8,0
1,275,558.552069589496,0,0,2291556.49257903,2291557.53962606,4,0,69,8,4
1,276,408.325480762869,1,0,2291559.24549781,2291560.29254946,4,1,87,8,16
1,277,379.522590432316,1,0,2291561.90430868,2291562.95135109,4,1,74,0,4
1,278,418.317181058228,0,0,2291564.49252205,2291565.53955946,4,0,84,8,16
1,279,591.654605232179,1,0,2291567.10426626,2291568.15131367,4,1,89,4,0
1,280,411.561090033501,1,0,2291569.84542675,2291570.89247493,4,1,74,16,8
1,281,573.567144572735,0,0,2291572.44541766,2291573.49245545,4,0,91,0,8
1,282,447.287529706955,1,0,2291575.08068423,2291576.12773126,4,1,92,4,4
1,283,455.474910791963,1,1,2291577.73948547,2291578.78653519,4,0,68,0,16
1,284,454.438976943493,1,0,2291580.39829056,2291581.4453399,4,1,68,16,0
1,285,432.747113518417,1,0,2291582.9159869,2291583.96298966,4,1,83,16,8
1,286,492.220345884562,0,0,2291585.58648985,2291586.63353918,4,0,77,4,0
1,287,641.462585888803,1,0,2291588.24529378,2291589.29234967,4,1,98,4,16
1,288,528.976945206523,1,0,2291591.11592908,2291592.16293569,4,1,91,4,16
1,289,650.445299223065,0,0,2291593.7393796,2291594.78642355,4,0,69,4,4
1,290,747.346505988389,0,0,2291596.63349799,2291597.68052385,4,0,71,16,0
1,291,411.027146968991,0,0,2291599.6216885,2291600.66873553,4,0,67,0,0
1,292,779.318021610379,0,0,2291602.28050014,2291603.3275387,4,0,91,16,4
1,293,448.933244217187,1,0,2291605.31583699,2291606.36286401,4,1,75,8,16
1,294,516.138447914273,0,0,2291607.83340476,2291608.88044563,4,0,86,4,16
1,295,521.017076913267,0,0,2291610.52750051,2291611.57454639,4,0,62,0,4
1,296,423.395605292171,0,0,2291613.18634564,2291614.23335494,4,0,61,0,0
1,297,443.044858518988,1,0,2291615.77452552,2291616.82156832,4,1,74,8,0
1,298,659.43532763049,1,0,2291618.38625702,2291619.43331983,4,1,100,16,4
1,299,591.436331626028,1,0,2291621.18625055,2291622.23329412,4,1,66,16,0
1,300,709.212896414101,1,0,2291623.97445654,2291625.0215155,4,1,61,8,16
1,301,456.122802570462,0,0,2291626.77444006,2291627.82149479,4,0,69,8,4
1,302,548.008333425969,1,0,2291629.3744302,2291630.42147723,4,1,95,0,4
1,303,589.522683061659,1,0,2291632.13911768,2291633.18616047,4,1,79,16,16
1,304,542.113788425922,0,0,2291634.82144744,2291635.86849755,4,0,88,8,4
1,305,586.768276523799,0,0,2291637.60967151,2291638.65673895,4,0,93,4,0
1,306,463.659982196987,0,0,2291640.30377997,2291641.35081006,4,0,87,4,0
1,307,557.211245410144,0,0,2291642.927279,2291643.97432295,4,0,99,16,0
1,308,452.54226680845,1,0,2291645.55079112,2291646.59782121,4,1,65,16,16
1,309,537.240163888782,1,0,2291648.12724659,2291649.17428553,4,1,78,4,8
1,310,584.928156808019,0,0,2291650.91545989,2291651.96256774,4,0,74,4,8
1,311,454.079807270318,0,0,2291653.57426305,2291654.62130931,4,0,96,8,8
1,312,389.997804071754,1,0,2291656.25661668,2291657.30364023,4,1,97,4,8
1,313,401.875820010901,1,0,2291658.71540568,2291659.76251816,4,1,76,8,8
1,314,458.868740126491,0,0,2291661.31538697,2291662.36249906,4,0,64,16,16
1,315,430.865416768938,1,0,2291664.00950159,2291665.05653476,4,1,64,16,8
1,316,474.441240541637,1,0,2291666.63299677,2291667.68003957,4,1,73,4,16
1,317,446.360924746841,0,0,2291669.29179301,2291670.33884659,4,0,87,0,0
1,318,486.58719053492,1,0,2291671.79767254,2291672.84470956,4,1,98,16,0
1,319,397.081497590989,0,0,2291674.51529374,2291675.56234654,4,0,87,0,8
1,320,620.389741845429,1,0,2291677.03292309,2291678.07996974,4,1,61,4,8
1,321,505.317538511008,1,0,2291709.63269381,2291710.67976278,5,1,97,0,16
1,322,540.066943038255,0,0,2291712.36209716,2291713.40914304,5,0,83,4,16
1,323,498.615726828575,1,0,2291715.09150552,2291716.13853253,5,1,78,8,0
1,324,453.244823496789,1,0,2291717.77382489,2291718.82086499,5,1,62,8,16
1,325,611.914408393204,0,0,2291720.31497506,2291721.36203056,5,0,68,16,4
1,326,372.062403708696,0,0,2291723.02084566,2291724.06789654,5,0,75,4,8
1,327,624.660130124539,1,0,2291725.55026218,2291726.59728881,5,1,81,16,4
1,328,416.016645729542,0,0,2291728.36198668,2291729.40909954,5,0,85,16,8
1,329,479.165114462376,0,0,2291730.86785197,2291731.91492055,5,0,72,16,0
1,330,404.958599247038,0,0,2291733.46783865,2291734.5148799,5,0,86,8,4
1,331,586.891849990934,0,0,2291736.10311868,2291737.15018535,5,0,67,16,8
1,332,430.436953436583,0,0,2291738.83257593,2291739.87954789,5,0,96,0,0
1,333,392.945846077055,0,0,2291741.46778398,2291742.51482986,5,0,96,8,8
1,334,455.913383048028,0,0,2291744.11482116,2291745.16186511,5,0,96,8,0
1,335,410.619856789708,1,0,2291746.79715207,2291747.84419949,5,1,83,4,4
1,336,398.302213288844,1,0,2291749.43243442,2291750.47947799,5,1,74,16,4
1,337,479.380308650434,1,0,2291751.98534597,2291753.03239646,5,1,63,8,8
1,338,446.909496560693,1,0,2291754.51476172,2291755.56181722,5,1,62,16,4
1,339,467.644343618304,1,0,2291757.19708455,2291758.24412773,5,1,71,0,0
1,340,473.579694516957,0,0,2291759.73824166,2291760.78528792,5,0,94,16,16
1,341,413.428928237408,1,0,2291762.27939607,2291763.32644502,5,1,94,4,4
1,342,423.394065815955,0,0,2291764.92643401,2291765.97348758,5,0,73,4,4
1,343,470.909210387617,1,0,2291767.50289294,2291768.54994959,5,1,67,4,4
1,344,567.221809178591,0,0,2291770.06758626,2291771.11462906,5,0,100,16,16
1,345,563.688623718917,0,0,2291772.74992411,2291773.79696113,5,0,62,0,8
1,346,438.328298740089,0,0,2291775.42048519,2291776.4675326,5,0,81,0,0
1,347,410.273390822113,0,0,2291777.9263497,2291778.97339904,5,0,82,16,8
1,348,555.282583460212,0,0,2291780.43222077,2291781.47926279,5,0,90,8,8
1,349,568.577261641622,1,0,2291783.19691055,2291784.24394911,5,1,98,0,16
1,350,560.802174732089,0,0,2291785.94988785,2291786.99688984,5,0,82,8,8
1,351,558.302228804678,0,0,2291788.57333529,2291789.62038656,5,0,91,4,16
1,352,531.497294083238,1,0,2291791.23214347,2291792.27918819,5,1,99,0,0
1,353,657.410040032119,0,0,2291793.87918641,2291794.92623036,5,0,93,16,8
1,354,504.342428408563,1,0,2291796.62034113,2291797.66738855,5,1,91,8,16
1,355,460.778538137674,1,0,2291799.30276944,2291800.34978799,5,1,76,8,4
1,356,385.81942114979,1,0,2291801.97325045,2291803.02029748,5,1,67,0,16
1,357,539.277385454625,1,0,2291804.4791115,2291805.52615853,5,1,99,16,16
1,358,493.657411076128,0,0,2291807.14968528,2291808.19674501,5,0,86,4,0
1,359,438.488828018308,0,1,2291809.73790173,2291810.78494299,5,1,98,8,16
1,360,506.071294657886,0,0,2291812.42023496,2291813.46728122,5,0,69,8,16
1,361,539.195772726089,0,0,2291815.06731833,2291816.11433687,5,0,93,4,8
1,362,499.819119460881,1,0,2291817.80843032,2291818.85547696,5,1,76,16,0
1,363,524.310045409948,0,0,2291820.420193,2291821.46722425,5,0,84,4,0
1,364,560.357543174177,1,0,2291823.02015966,2291824.06720785,5,1,100,0,0
1,365,710.491741076112,1,0,2291825.69072805,2291826.73777893,5,1,99,8,16
1,366,618.801001925021,1,0,2291828.45540551,2291829.50249643,5,1,89,8,4
1,367,564.678362105042,0,0,2291831.14950589,2291832.19661028,5,0,63,4,8
1,368,394.889521412551,1,0,2291833.91420645,2291834.96125078,5,1,86,0,8
1,369,526.39115229249,0,0,2291836.47888938,2291837.52593872,5,0,61,4,16
1,370,480.534811038524,0,0,2291839.24357877,2291840.29062503,5,0,77,8,4
1,371,674.828435759991,1,0,2291841.84361819,2291842.8906044,5,1,91,8,8
1,372,644.039909821004,0,0,2291844.6670671,2291845.71411837,5,0,81,4,4
1,373,423.943792004138,0,0,2291847.50234321,2291848.54939448,5,0,65,4,16
1,374,618.532297667116,1,0,2291849.98468037,2291851.03172239,5,1,76,16,4
1,375,391.861407086253,1,0,2291852.84348731,2291853.89053126,5,1,74,0,8
1,376,527.58492063731,1,0,2291855.49052833,2291856.53757382,5,1,76,16,8
1,377,507.039475254714,0,0,2291858.1140366,2291859.16107978,5,0,85,8,4
1,378,548.693566117436,0,0,2291860.74931433,2291861.79637021,5,0,61,4,8
1,379,622.400015592575,0,0,2291863.37283068,2291864.41987194,5,0,96,0,4
1,380,494.561687577516,0,0,2291866.0786959,2291867.12573715,5,0,94,8,0
1,381,392.290640156716,1,0,2291868.77278549,2291869.81983521,5,1,74,0,16
1,382,491.077007725835,0,0,2291871.25511687,2291872.3022382,5,0,77,16,0
1,383,402.659988496453,0,0,2291873.93752247,2291874.98450598,5,0,86,0,4
1,384,485.438847914338,1,0,2291876.58449997,2291877.63154739,5,1,96,4,8
1,385,488.266396336257,1,0,2291879.31391218,2291880.36094959,5,1,93,0,8
1,386,525.964614003897,1,0,2291881.90211516,2291882.94918067,5,1,89,0,8
1,387,530.293516349047,1,0,2291884.57268086,2291885.61972712,5,1,87,8,0
1,388,497.118222992867,1,0,2291887.21973112,2291888.26677199,5,1,98,0,4
1,389,643.997178412974,1,0,2291889.94913948,2291890.99616842,5,1,70,4,16
1,390,777.014791499823,1,0,2291892.71380655,2291893.76084973,5,1,79,16,0
1,391,586.71438228339,0,0,2291895.64323947,2291896.69024184,5,0,100,4,0
1,392,734.862558543682,1,0,2291898.44327188,2291899.49022152,5,1,89,0,16
1,393,423.742071725428,1,0,2291901.30197835,2291902.34906503,5,1,98,16,0
1,394,590.838099829853,0,0,2291903.90195964,2291904.9490571,5,0,93,4,0
1,395,486.64108524099,0,0,2291906.64316479,2291907.69016716,5,0,92,0,4
1,396,467.740968801081,1,0,2291909.30192214,2291910.34902846,5,1,77,4,0
1,397,677.655600011349,1,0,2291911.83131787,2291912.8783649,5,1,71,16,16
1,398,632.477947510779,1,0,2291914.58424474,2291915.631291,5,1,92,0,4
1,399,746.226265095174,0,0,2291917.31363386,2291918.3607036,5,0,76,8,0
1,400,558.159023057669,0,0,2291920.21950053,2291921.26654525,5,0,63,16,16
1,401,583.965750411153,0,0,2291943.45463289,2291944.501683,6,0,69,4,0
1,402,531.642040237784,1,1,2291946.28996944,2291947.33695257,6,0,73,4,16
1,403,567.131727933884,0,0,2291948.91341882,2291949.96045815,6,0,100,16,0
1,404,417.221192736179,0,0,2291951.64282178,2291952.71339541,6,0,68,8,8
1,405,455.531884916127,0,0,2291954.18397273,2291955.23101553,6,0,87,16,8
1,406,383.07579420507,1,0,2291956.86631404,2291957.91335491,6,1,67,0,4
1,407,489.169903565198,0,0,2291959.3133536,2291960.3604014,6,0,100,4,4
1,408,406.749059446156,0,0,2291961.98392507,2291963.03096248,6,0,77,16,4
1,409,414.782840758562,0,0,2291964.64273555,2291965.68977488,6,0,99,0,16
1,410,682.634704280645,1,0,2291967.2780564,2291968.32504761,6,1,81,16,4
1,411,458.704360760748,1,0,2291970.03092514,2291971.07797371,6,1,77,4,8
1,412,495.513699483126,0,0,2291972.72503436,2291973.77206869,6,0,63,4,4
1,413,591.299285180867,1,0,2291975.37206345,2291976.41912319,6,1,91,4,16
1,414,409.163476433605,1,0,2291978.19561476,2291979.25418918,6,1,64,16,0
1,415,559.927155729383,0,0,2291980.70144964,2291981.7484882,6,0,62,4,0
1,416,524.749287869781,0,0,2291983.34847989,2291984.39557157,6,0,93,0,16
1,417,500.156346708536,1,0,2291986.06611301,2291987.11315542,6,1,61,8,0
1,418,407.003904692829,0,0,2291988.64256886,2291989.68961782,6,0,80,0,0
1,419,493.751341477036,1,0,2291991.13666816,2291992.1837125,6,1,92,8,16
1,420,565.29699685052,0,0,2291993.77194319,2291994.81898483,6,0,71,0,4
1,421,551.918012090027,1,0,2291996.45427488,2291997.50132653,6,1,77,16,4
1,422,653.356385417283,1,0,2291999.12484558,2292000.17190377,6,1,91,8,4
1,423,454.780438449234,0,0,2292002.03070263,2292003.07775043,6,0,74,8,16
1,424,567.988654132932,1,0,2292004.68961435,2292005.73659094,6,1,91,16,8
1,425,404.620986897498,0,0,2292007.33655067,2292008.38359847,6,0,62,4,0
1,426,439.552479423583,1,0,2292009.98358938,2292011.03064334,6,1,67,4,16
1,427,684.5125509426,0,0,2292012.47769869,2292013.52475034,6,0,61,16,0
1,428,660.403507761657,0,0,2292015.26570212,2292016.31295401,6,0,73,8,4
1,429,559.265020303428,1,0,2292018.00706593,2292019.05411527,6,1,91,8,4
1,430,528.650882188231,1,0,2292020.68940917,2292021.73645004,6,1,89,16,0
1,431,411.59188747406,1,0,2292023.38354727,2292024.43057005,6,1,83,0,0
1,432,466.060608159751,0,0,2292025.85406608,2292026.90112658,6,0,94,4,8
1,433,581.336071714759,0,0,2292028.55993706,2292029.60698178,6,0,93,4,4
1,434,472.512963693589,1,0,2292031.32463069,2292032.37167079,6,1,79,0,16
1,435,411.409029737115,0,0,2292033.97166825,2292035.01870835,6,0,98,0,8
1,436,595.429932232946,1,0,2292036.47752507,2292037.52458249,6,1,100,16,8
1,437,640.733081847429,0,0,2292039.24201592,2292040.28927497,6,0,81,8,8
1,438,559.89135382697,0,0,2292041.94808738,2292042.99519677,6,0,81,16,8
1,439,653.687452897429,1,0,2292044.73630722,2292045.78334732,6,1,90,8,4
1,440,497.812310233712,1,0,2292047.64219468,2292048.68921784,6,1,88,8,8
1,441,478.918238542974,1,0,2292050.23037418,2292051.27722345,6,1,74,8,0
1,442,833.252029959112,1,0,2292052.86565614,2292053.91270355,6,1,91,16,4
1,443,600.60421237722,0,0,2292055.7832838,2292056.83033006,6,0,99,0,8
1,444,511.497725266963,0,0,2292058.63032051,2292059.67736716,6,0,64,0,4
1,445,401.79728763178,1,0,2292061.28913369,2292062.33618534,6,1,66,4,16
1,446,536.110299173743,0,0,2292063.80675458,2292064.85379853,6,0,81,0,0
1,447,577.603860758245,0,0,2292066.48914516,2292067.53620644,6,0,100,8,0
1,448,572.848035022616,1,0,2292069.19495994,2292070.24200197,6,1,80,4,0
1,449,561.566325835884,1,0,2292071.87728855,2292072.92434058,6,1,81,0,16
1,450,479.441132862121,1,0,2292074.66550531,2292075.71256774,6,1,78,4,4
1,451,498.899444472045,1,0,2292077.39489943,2292078.44195416,6,1,69,0,16
1,452,455.882971175015,0,0,2292080.0890075,2292081.13610496,6,0,66,16,8
1,453,527.697329875082,0,0,2292082.67721356,2292083.72426213,6,0,71,4,16
1,454,395.15668572858,1,0,2292085.30072568,2292086.34777579,6,1,77,0,8
1,455,440.225008875132,0,0,2292087.86541939,2292088.91245795,6,0,63,0,4
1,456,470.539261121303,1,0,2292090.37131778,2292091.41833363,6,1,82,8,16
1,457,475.665036123246,1,0,2292093.08891934,2292094.13596599,6,1,63,4,8
1,458,388.626182917506,1,0,2292095.77124795,2292096.8182919,6,1,61,0,0
1,459,390.354137867689,0,0,2292098.34771266,2292099.39454425,6,0,63,8,16
1,460,588.914442807436,0,0,2292100.94768509,2292101.99473289,6,0,98,8,4
1,461,448.141761589795,0,0,2292103.70060234,2292104.7476536,6,0,87,4,8
1,462,405.773564707488,0,0,2292106.24182604,2292107.28880878,6,0,76,16,16
1,463,528.669360093772,1,0,2292108.72409236,2292109.77115171,6,1,70,16,4
1,464,480.461283121258,1,0,2292111.37113954,2292112.41819042,6,1,62,16,16
1,465,446.469099726528,1,0,2292114.0181848,2292115.06522606,6,1,67,8,8
1,466,604.261740110815,1,0,2292116.60639702,2292117.65344482,6,1,99,4,8
1,467,481.103400234133,1,0,2292119.34755328,2292120.3946084,6,1,61,0,4
1,468,448.827379383147,1,0,2292122.08874572,2292123.13576619,6,1,88,4,0
1,469,507.768978830427,0,0,2292124.73575095,2292125.78289306,6,0,95,0,0
1,470,456.364559009671,0,0,2292127.41809303,2292128.46513313,6,0,87,8,0
1,471,492.830126546323,0,1,2292129.98282485,2292131.02982145,6,1,99,16,0
1,472,476.729457266629,0,0,2292132.68868275,2292133.73569051,6,0,68,16,16
1,473,597.055243328214,0,0,2292135.39452332,2292136.44155918,6,0,82,8,8
1,474,593.928962945938,1,0,2292138.04154394,2292139.08863717,6,1,91,16,16
1,475,507.029850967228,0,0,2292140.85329192,2292141.90033933,6,0,96,8,16
1,476,554.238565731794,0,0,2292143.55915366,2292144.60620223,6,0,82,0,8
1,477,474.688001442701,1,0,2292146.27678179,2292147.32382959,6,1,92,16,16
1,478,417.34168631956,1,0,2292148.86500247,2292149.91205297,6,1,85,0,8
1,479,444.635908585042,1,0,2292151.42969503,2292152.47674167,6,1,88,4,4
1,480,521.981407888234,0,0,2292154.10028074,2292155.14731083,6,0,69,8,0
1,481,468.678352888674,1,0,2292160.82962827,2292161.8766753,7,1,68,8,8
1,482,501.334331929684,1,0,2292163.41784665,2292164.46489214,7,1,80,8,8
1,483,486.636080779135,1,0,2292165.97077283,2292167.01781216,7,1,97,16,8
1,484,533.188434317708,0,0,2292168.60605017,2292169.65308989,7,0,73,16,0
1,485,445.395438931882,0,0,2292171.26484949,2292172.31189459,7,0,89,0,4
1,486,484.67970173806,0,0,2292173.92366113,2292174.97073241,7,0,63,0,4
1,487,586.780210956931,1,0,2292176.62952056,2292177.67656528,7,1,61,4,4
1,488,579.507499933243,0,0,2292179.46479513,2292180.51183177,7,0,82,4,16
1,489,476.272507105023,0,0,2292182.15889127,2292183.20593715,7,0,81,16,8
1,490,459.841924719512,0,0,2292184.78243072,2292185.82947852,7,0,91,8,16
1,491,454.79737687856,0,0,2292187.44121426,2292188.48832519,7,0,62,8,16
1,492,553.905957844108,1,0,2292190.13532657,2292191.18236513,7,1,64,4,8
1,493,514.133563265204,0,0,2292192.79411433,2292193.84116175,7,0,71,8,0
1,494,566.586235538125,1,0,2292195.4176534,2292196.46467579,7,1,71,0,8
1,495,473.028428386897,1,0,2292198.08826298,2292199.13527575,7,1,84,4,4
1,496,425.057488493621,0,0,2292200.64112295,2292201.68817344,7,0,95,4,0
1,497,483.772729989141,1,0,2292203.28816204,2292204.33524411,7,1,63,16,4
1,498,455.146923195571,1,0,2292206.00578208,2292207.0528345,7,1,93,4,16
1,499,413.672224152833,1,0,2292208.58225179,2292209.62930421,7,1,64,0,4
1,500,390.71306400001,1,0,2292211.22931322,2292212.27633022,7,1,97,4,8
1,501,570.717267692089,0,0,2292213.78220552,2292214.82930221,7,0,61,16,0
1,502,757.54108093679,0,0,2292216.46453451,2292217.5115904,7,0,98,4,8
1,503,444.576624315232,0,0,2292219.2762848,2292220.32333452,7,0,63,0,16
1,504,506.32267491892,0,0,2292221.91156638,2292222.95860917,7,0,72,16,4
1,505,558.135540224612,0,0,2292224.65271878,2292225.69976966,7,0,81,0,8
1,506,1188.58429882675,0,0,2292227.32328756,2292228.37034036,7,0,95,0,8
1,507,481.703942175955,1,0,2292230.58209203,2292231.62919642,7,1,96,4,4
1,508,608.512110542506,1,0,2292233.26441872,2292234.31146382,7,1,89,8,0
1,509,466.405534185469,0,0,2292236.01734751,2292237.06439647,7,0,95,0,4
1,510,830.345563590527,0,0,2292238.71143672,2292239.75848799,7,0,98,16,16
1,511,550.891316961497,0,0,2292241.78202305,2292242.82907008,7,0,72,8,0
1,512,520.696788094938,1,0,2292244.42912721,2292245.47610533,7,1,93,8,8
1,513,405.05637973547,0,0,2292247.09963015,2292248.14670105,7,0,75,4,0
1,514,843.020836822689,1,0,2292249.64080997,2292250.687852,7,1,81,4,0
1,515,425.296934787184,0,0,2292252.71134818,2292253.7584006,7,0,67,0,8
1,516,574.347848538309,0,0,2292255.31133563,2292256.35838189,7,0,61,0,16
1,517,577.918375376612,1,0,2292258.08778409,2292259.13483766,7,1,85,16,16
1,518,497.733008116484,1,0,2292260.82895151,2292261.87599238,7,1,61,0,4
1,519,480.067081749439,0,0,2292263.44070187,2292264.4877439,7,0,89,0,8
1,520,491.823064628989,0,0,2292266.0877275,2292267.13478492,7,0,84,4,0
1,521,463.772776536644,1,0,2292268.68771033,2292269.73483166,7,1,82,0,0
1,522,629.207306541502,1,0,2292271.25240442,2292272.29945107,7,1,98,0,0
1,523,399.592222645879,1,0,2292274.02886174,2292275.07594149,7,1,96,16,16
1,524,480.393914971501,1,0,2292276.60529757,2292277.6523573,7,1,97,8,4
1,525,588.034803513438,1,0,2292279.24056991,2292280.28763426,7,1,92,16,8
1,526,422.575250733644,1,0,2292281.89939155,2292282.95820381,7,1,93,8,8
1,527,493.079967331141,1,0,2292284.54645606,2292285.59346767,7,1,94,8,0
1,528,578.893100377172,0,0,2292287.28758499,2292288.33464126,7,0,92,8,0
1,529,373.422090895474,1,0,2292289.95815068,2292291.00519848,7,1,93,8,4
1,530,489.253825508058,1,0,2292292.45225614,2292293.49930201,7,1,98,0,16
1,531,410.958238877356,1,0,2292295.0875277,2292296.13457666,7,1,89,8,16
1,532,491.353410296142,1,0,2292297.69929039,2292298.74632933,7,1,89,4,0
1,533,433.264117687941,0,0,2292300.35808932,2292301.40513173,7,0,63,0,0
1,534,491.388441994786,1,0,2292302.89924681,2292303.94629191,7,1,84,8,16
1,535,579.969455488026,0,0,2292305.53452261,2292306.58161314,7,0,93,4,4
1,536,376.009038649499,0,0,2292308.35803273,2292309.40507629,7,0,85,4,16
1,537,453.811488114297,1,0,2292310.87570289,2292311.92273067,7,1,93,16,4
1,538,547.333494294435,0,0,2292313.55799454,2292314.60504465,7,0,71,16,4
1,539,419.478612486273,1,0,2292316.21681118,2292317.26384743,7,1,74,16,4
1,540,539.013685658574,0,0,2292318.79326472,2292319.84030328,7,0,82,8,8
1,541,470.603165216744,0,0,2292321.41677068,2292322.46381001,7,0,64,16,8
1,542,565.159564837813,0,0,2292324.08732906,2292325.13438918,7,0,98,8,16
1,543,403.00837950781,0,0,2292326.78150027,2292327.82848879,7,0,91,4,8
1,544,471.616771072149,0,0,2292329.31082786,2292330.35787913,7,0,71,16,0
1,545,535.754208918661,0,0,2292332.02856339,2292333.07551457,7,0,98,4,16
1,546,502.961568068713,0,0,2292334.64020173,2292335.68726531,7,0,85,16,16
1,547,468.240650370717,1,0,2292337.20489197,2292338.25195941,7,1,85,8,4
1,548,483.474384061992,0,0,2292339.91075988,2292340.95782077,7,0,71,0,16
1,549,458.679338451475,1,0,2292342.62859049,2292343.67545775,7,1,68,16,8
1,550,518.970616161823,0,1,2292345.18131033,2292346.22839547,7,1,82,8,4
1,551,615.785975940526,0,0,2292347.82837753,2292348.87540531,7,0,90,0,0
1,552,530.603411141783,0,0,2292350.56950723,2292351.61657081,7,0,77,4,8
1,553,407.013914082199,1,0,2292353.22835736,2292354.27536666,7,1,77,8,4
1,554,444.352191407233,1,0,2292355.75769496,2292356.80476894,7,1,73,0,0
1,555,397.714376449585,1,0,2292358.42831455,2292359.47533348,7,1,75,16,0
1,556,519.842940848321,1,0,2292361.02830585,2292362.07531593,7,1,69,0,16
1,557,563.381423708051,0,0,2292363.69882574,2292364.74587508,7,0,74,4,16
1,558,386.488101445138,1,0,2292366.46351975,2292367.51056601,7,1,64,4,4
1,559,705.332859884948,1,0,2292368.95761019,2292370.00465645,7,1,69,16,0
1,560,547.968682367355,0,0,2292371.82824087,2292372.87524016,7,0,87,16,16
1,561,651.73607878387,1,0,2292380.26341781,2292381.31046831,8,1,71,8,8
1,562,478.066431824118,1,0,2292383.08694949,2292384.13399537,8,1,82,4,0
1,563,559.226524084806,0,0,2292385.65161933,2292386.69866713,8,0,82,16,0
1,564,410.648729186505,0,0,2292388.32219888,2292389.36923591,8,0,74,0,8
1,565,517.059277743101,1,0,2292390.99276227,2292392.03980622,8,1,92,4,16
1,566,541.82237200439,1,0,2292393.62810313,2292394.67508587,8,1,71,16,16
1,567,605.35387834534,1,0,2292396.29862994,2292397.34566158,8,1,71,8,16
1,568,585.307344794273,0,0,2292399.00446282,2292400.05151793,8,0,89,16,0
1,569,457.475945819169,1,0,2292401.75741894,2292402.80444172,8,1,93,0,8
1,570,474.044729024172,1,0,2292404.28678619,2292405.33383822,8,1,92,16,0
1,571,585.104084108025,0,0,2292406.98088464,2292408.02793629,8,0,79,4,8
1,572,465.54398862645,1,0,2292409.65144956,2292410.6985016,8,1,78,4,16
1,573,400.577726773918,1,0,2292412.20438036,2292413.25143124,8,1,77,4,8
1,574,380.683252587914,1,0,2292414.76913258,2292415.81611378,8,1,75,4,16
1,575,406.002232339233,0,0,2292417.33375315,2292418.3808021,8,0,63,4,16
1,576,511.291000526398,0,1,2292419.89844147,2292420.9454885,8,1,90,0,4
1,577,517.29833940044,1,0,2292422.49844893,2292423.5454898,8,1,87,8,0
1,578,502.370650880039,1,0,2292425.09840597,2292426.14546032,8,1,83,16,0
1,579,686.289922799915,1,0,2292427.79250866,2292428.83955684,8,1,91,16,8
1,580,494.075865019113,1,0,2292430.68660395,2292431.7336529,8,1,87,0,0
1,581,413.092470727861,1,0,2292433.23952204,2292434.28657946,8,1,96,4,8
1,582,477.306515909731,0,0,2292435.83951219,2292436.88655614,8,0,96,0,0
1,583,460.388571489602,0,0,2292438.55719805,2292439.60418618,8,0,69,0,0
1,584,497.199835255742,0,0,2292441.14535984,2292442.19240187,8,0,74,4,4
1,585,440.081802662462,0,0,2292443.79238855,2292444.83946099,8,0,96,0,4
1,586,528.008764609694,0,0,2292446.4394392,2292447.48648969,8,0,61,16,8
1,587,499.607775360346,0,0,2292449.21596465,2292450.2629547,8,0,79,0,4
1,588,510.33475343138,1,0,2292451.94528678,2292452.99233111,8,1,92,8,8
1,589,515.070946887136,1,0,2292454.58060492,2292455.62760845,8,1,66,0,16
1,590,416.072849649936,1,0,2292457.1805431,2292458.2275959,8,1,75,4,8
1,591,498.703883495182,0,0,2292459.72169481,2292460.76881114,8,0,95,4,4
1,592,459.403837565333,0,0,2292462.34523234,2292463.39228014,8,0,85,0,8
1,593,481.487593147904,0,0,2292464.9569573,2292466.00400664,8,0,92,0,16
1,594,526.762255933136,0,0,2292467.67459158,2292468.72162937,8,0,82,8,0
1,595,405.165324453264,1,0,2292470.33339821,2292471.38044178,8,1,76,0,0
1,596,380.883818026632,1,0,2292472.92161544,2292473.96872675,8,1,85,4,0
1,597,485.254065599293,0,0,2292475.45103273,2292476.49807745,8,0,99,0,8
1,598,657.06973336637,1,0,2292478.18039835,2292479.2274527,8,1,64,8,0
1,599,393.100986257195,1,0,2292481.03920375,2292482.08625001,8,1,75,4,4
1,600,440.848262514919,0,0,2292483.62722211,2292484.67447494,8,0,86,8,4
1,601,618.418734055012,1,0,2292486.15681786,2292487.20386374,8,1,71,4,16
1,602,408.132614567876,0,0,2292488.98032529,2292490.03914062,8,0,84,0,4
1,603,626.92640395835,1,0,2292491.52151588,2292492.56854059,8,1,68,8,8
1,604,486.268441658467,0,0,2292494.29794125,2292495.34498096,8,0,66,16,16
1,605,553.727720398456,1,0,2292497.01556744,2292498.06261755,8,1,70,8,8
1,606,530.259639956057,0,0,2292499.69790298,2292500.7449477,8,0,84,16,8
1,607,473.532344214618,0,0,2292502.46259161,2292503.50963286,8,0,80,4,8
1,608,387.979445978999,0,0,2292505.07433543,2292506.12142326,8,0,77,0,8
1,609,500.613296870142,1,0,2292507.65078473,2292508.69783369,8,1,73,8,16
1,610,560.752515215427,1,0,2292510.21551925,2292511.26252932,8,1,88,8,4
1,611,595.745985861868,0,0,2292512.86251061,2292513.90956072,8,0,91,16,4
1,612,539.663502480835,0,0,2292515.70955464,2292516.75659358,8,0,91,4,0
1,613,479.04770122841,0,0,2292518.3330733,2292519.38011417,8,0,96,16,8
1,614,531.921137589961,0,0,2292520.96834025,2292522.01544926,8,0,73,16,16
1,615,532.649486791343,1,0,2292523.55655594,2292524.60360912,8,1,84,8,0
1,616,437.605724204332,0,0,2292526.20360119,2292527.25065015,8,0,87,8,0
1,617,507.229261565953,0,1,2292528.73279751,2292529.78004665,8,1,82,4,0
1,618,549.14743732661,0,0,2292531.43892566,2292532.48590878,8,0,92,16,0
1,619,501.971059944481,1,0,2292534.22707389,2292535.27412362,8,1,87,4,4
1,620,713.413221295923,0,0,2292536.79177954,2292537.83882156,8,0,99,8,8
1,621,399.270778987557,1,0,2292539.59175074,2292540.63879739,8,1,67,0,0
1,622,659.31483451277,0,0,2292542.09760949,2292543.14466036,8,0,83,16,16
1,623,579.807385802269,0,0,2292544.99171017,2292546.0387545,8,0,61,8,4
1,624,476.568157784641,0,0,2292547.66227355,2292548.70934214,8,0,63,0,16
1,625,449.358627665788,1,0,2292550.25049463,2292551.29754281,8,1,69,16,4
1,626,703.973172232509,1,0,2292552.82695471,2292553.87399366,8,1,93,4,0
1,627,539.66119280085,0,0,2292555.7561327,2292556.80338384,8,0,70,16,8
1,628,663.701481185853,0,0,2292558.415155,2292559.46222628,8,0,93,16,4
1,629,691.91884342581,1,0,2292561.22689219,2292562.27394269,8,1,90,8,16
1,630,626.36050907895,1,0,2292564.05040039,2292565.09744819,8,1,69,16,4
1,631,837.698731105775,1,0,2292566.90920463,2292567.95625397,8,1,93,8,4
1,632,481.512230820954,0,0,2292569.81507554,2292570.86240128,8,0,95,8,4
1,633,725.079893134534,0,0,2292572.37976886,2292573.42680819,8,0,91,8,16
1,634,639.443072956055,0,0,2292575.19150491,2292576.23854924,8,0,71,0,16
1,635,617.367401719093,1,0,2292578.08559712,2292579.1326453,8,1,88,8,16
1,636,527.720812708139,0,0,2292580.76798,2292581.81499008,8,0,79,16,16
1,637,600.919496733695,1,0,2292583.36796245,2292584.41496944,8,1,100,0,16
1,638,518.385473638773,1,0,2292586.19141829,2292587.23847725,8,1,74,0,4
1,639,464.73171794787,0,0,2292588.90909838,2292589.95610076,8,0,70,4,4
1,640,524.445552378893,0,0,2292591.4972594,2292592.54430874,8,0,98,16,4
