sub_id,Trial,RT,Resp,Error,Fix_onset,Disp_onset,block,tid,tloc,fish_setsize,bird_setsize
7,1,738.114958527149,0,0,124049.900908303,124050.948000193,1,0,97,8,0
7,2,522.566077343072,0,0,124052.736285907,124053.783375102,1,0,78,0,16
7,3,483.387830390711,0,0,124055.383421836,124056.430509106,1,0,76,4,16
7,4,650.694943789858,0,0,124057.995263005,124059.042347965,1,0,88,0,0
7,5,410.709125746507,0,0,124060.713035035,124061.760075725,1,0,87,8,8
7,6,614.357323778677,1,0,124063.289523699,124064.336615203,1,1,67,4,0
7,7,561.386310582748,1,0,124066.101370179,124067.148460914,1,1,74,0,0
7,8,709.567023572163,0,0,124068.713211732,124069.760300542,1,0,69,0,0
7,9,638.707644407987,1,0,124071.525058598,124072.572142403,1,1,96,16,0
7,10,607.713667515782,1,0,124074.383969251,124075.431050361,1,1,92,8,16
7,11,598.84724667063,1,0,124077.089925675,124078.13700871,1,1,81,4,16
7,12,456.146837896085,0,0,124079.913530403,124080.960613438,1,0,75,4,8
7,13,450.355870183557,0,0,124082.537129819,124083.584220553,1,0,75,8,16
7,14,499.674373786547,1,0,124085.160793138,124086.207828823,1,1,66,8,4
7,15,686.059767438564,0,0,124087.878464309,124088.92554465,1,0,93,16,4
7,16,481.820269356831,1,0,124090.678540223,124091.725631343,1,1,76,0,8
7,17,698.37736331101,1,0,124093.396294546,124094.443354869,1,1,61,4,4
7,18,571.766012973967,1,0,124096.231685239,124097.278728623,1,1,85,16,8
7,19,662.17640445393,1,0,124098.961132751,124100.008218866,1,1,82,16,4
7,20,742.080826341407,0,0,124101.702379701,124102.749466971,1,0,95,8,0
7,21,680.570609096321,1,0,124104.678937118,124105.726029393,1,1,80,16,4
7,22,478.773303359048,1,0,124107.596705607,124108.643753996,1,1,92,8,8
7,23,589.227457210654,1,0,124110.173214289,124111.220294244,1,1,82,0,0
7,24,505.801412436995,1,0,124112.96153465,124114.008613066,1,1,83,16,8
7,25,692.373127196333,0,0,124115.596895778,124116.643982663,1,0,89,4,4
7,26,478.427608410129,1,0,124118.455799117,124119.502883692,1,1,85,0,4
7,27,795.836389981559,0,0,124121.079454352,124122.126499276,1,0,77,8,16
7,28,564.812463140697,1,0,124124.079537888,124125.126578193,1,1,99,16,0
7,29,616.936177262687,1,0,124126.797222533,124127.844366007,1,1,64,0,4
7,30,586.04383005877,1,0,124129.609055925,124130.656147044,1,1,84,16,16
7,31,451.188540726434,1,0,124132.420910875,124133.46799468,1,1,78,0,8
7,32,526.778320170706,0,0,124135.056306264,124136.103370051,1,0,96,0,4
7,33,583.491923855036,1,0,124137.797527807,124138.844617002,1,1,83,4,0
7,34,810.806366891484,0,0,124140.562325514,124141.609400465,1,0,94,4,4
7,35,792.158088006545,0,0,124143.597699192,124144.644780687,1,0,63,4,4
7,36,800.822019387851,0,0,124146.633078644,124147.680174768,1,0,100,16,16
7,37,656.922457259498,1,0,124149.691988065,124150.739078029,1,1,91,0,16
7,38,500.061644503148,1,0,124152.40971313,124153.45680348,1,1,74,8,8
7,39,604.394149151631,1,0,124155.021550064,124156.068634639,1,1,86,4,0
7,40,718.724089951138,0,0,124157.798108713,124158.845195983,1,0,81,4,0
7,41,551.621775797685,0,0,124160.739368675,124161.786451325,1,0,97,16,4
7,42,510.054846105049,1,0,124163.421789741,124164.46892975,1,1,85,8,8
7,43,507.077173053403,1,0,124165.986574821,124167.033657086,1,1,63,8,16
7,44,469.460712760338,1,0,124168.610177701,124169.65727036,1,1,64,4,8
7,45,615.934508838109,0,0,124171.339667944,124172.386757523,1,0,62,0,16
7,46,807.026820169995,0,0,124174.139750017,124175.186896186,1,0,96,16,4
7,47,586.855327754165,0,0,124177.045711754,124178.092799023,1,0,77,8,16
7,48,751.301796233747,1,0,124179.775203536,124180.822287341,1,1,100,4,16
7,49,605.246452716528,1,0,124182.728230599,124183.775316329,1,1,88,0,4
7,50,533.42813582276,1,0,124185.481246191,124186.528332306,1,1,65,8,4
7,51,790.099701756844,0,0,124188.269563858,124189.316646508,1,0,79,4,4
7,52,609.342437353916,1,0,124191.246116271,124192.2932097,1,1,98,8,0
7,53,602.291877337848,0,0,124194.046199114,124195.093285229,1,0,100,0,0
7,54,724.590894984431,1,0,124196.869806152,124197.916893037,1,1,82,8,4
7,55,792.492234118981,0,0,124199.811069579,124200.858152229,1,0,72,16,16
7,56,815.425128501374,1,0,124202.764095487,124203.811184297,1,1,69,4,8
7,57,599.366559006739,0,0,124205.77594805,124206.823034165,1,0,89,16,0
7,58,587.053197697969,1,0,124208.564263022,124209.611342208,1,1,63,4,8
7,59,845.165287551936,1,0,124211.317276689,124212.364370888,1,1,78,4,16
7,60,662.732288066763,0,0,124214.399725703,124215.446807583,1,0,90,0,4
7,61,595.083868305665,0,0,124217.129206321,124218.176292821,1,0,68,0,8
7,62,647.801962157246,0,0,124219.964592395,124221.011671196,1,0,67,16,0
7,63,578.25837956625,0,0,124222.799963455,124223.84704803,1,0,68,16,0
7,64,755.012049994548,0,0,124225.600043219,124226.647135878,1,0,100,4,8
7,65,595.232078281697,0,0,124228.553071437,124229.600156782,1,0,75,16,8
7,66,657.297794197802,0,0,124231.211970618,124232.259048649,1,0,63,16,16
7,67,766.828811654705,1,0,124234.094412395,124235.141487346,1,1,91,8,8
7,68,623.823513815296,0,0,124237.012134689,124238.059278163,1,0,71,0,8
7,69,512.627540199901,0,0,124239.753398192,124240.800474683,1,0,92,8,0
7,70,728.294604399707,1,0,124242.388759705,124243.43584428,1,1,96,16,16
7,71,527.281849106657,0,0,124245.200606571,124246.247686911,1,0,86,16,8
7,72,464.192906947574,1,0,124247.941858525,124248.988948105,1,1,74,8,4
7,73,630.975318548735,0,0,124250.588992914,124251.636083264,1,0,89,0,16
7,74,684.580747431028,0,0,124253.471425452,124254.518515032,1,0,98,16,8
7,75,739.844973082654,0,0,124256.342099742,124257.389216654,1,0,97,8,4
7,76,633.655031808303,0,0,124259.342198677,124260.389275553,1,0,81,8,0
7,77,520.844146958552,0,0,124262.154043233,124263.201117414,1,0,81,0,16
7,78,694.885767399683,1,0,124264.871755979,124265.918847484,1,1,88,4,16
7,79,555.849802040029,1,0,124267.824782658,124268.871870313,1,1,75,0,8
7,80,869.089071449707,1,0,124270.530736772,124271.577827122,1,1,92,4,0
7,81,631.121988684754,0,0,124296.237364183,124297.284445294,2,0,68,16,0
7,82,733.023464854341,0,0,124299.084500805,124300.13158769,2,0,84,4,8
7,83,622.708281924133,1,0,124301.91987687,124302.966964139,2,1,91,0,8
7,84,745.620157424128,1,0,124304.625840223,124305.672927878,2,1,100,4,4
7,85,662.571759370621,1,0,124307.484745871,124308.531827367,2,1,84,16,0
7,86,453.95910476509,1,0,124310.261296436,124311.308374852,2,1,87,0,0
7,87,654.310497135157,0,0,124312.873138759,124313.920222949,2,0,85,4,4
7,88,506.658720507403,1,0,124315.755634045,124316.802658182,2,1,95,0,4
7,89,618.969156086678,1,0,124318.520361304,124319.567490535,2,1,96,8,4
7,90,506.3865530974,1,0,124321.343969497,124322.391049838,2,1,95,0,0
7,91,576.670415626722,1,0,124324.061689943,124325.108774133,2,1,79,0,4
7,92,830.395105396747,0,0,124326.767657146,124327.814739796,2,0,71,16,16
7,93,563.629863056121,1,0,124329.732499047,124330.779527032,2,1,89,4,0
7,94,546.104900262435,1,0,124332.403103351,124333.450191005,2,1,62,4,0
7,95,768.321305295103,1,0,124335.1208365,124336.167919536,2,1,81,16,4
7,96,846.060706753633,0,0,124338.120918112,124339.168006922,2,0,88,8,0
7,97,811.932377691846,0,0,124341.109272273,124342.156332211,2,0,77,16,16
7,98,811.442707359674,1,0,124344.050502978,124345.097591018,2,1,85,16,16
7,99,705.008315868326,0,0,124346.93293744,124347.980027405,2,0,63,16,16
7,100,749.10058946989,0,0,124349.744776606,124350.791864646,2,0,66,16,4
7,101,954.271308102761,0,0,124352.556628092,124353.603716901,2,0,97,4,0
7,102,473.640618860372,1,0,124355.580347461,124356.627333101,2,1,94,0,8
7,103,598.802206222899,0,0,124358.297970897,124359.345085499,2,0,72,0,0
7,104,670.5277475412,0,0,124361.086292413,124362.133368519,2,0,80,8,8
7,105,628.843789716484,0,0,124363.862838359,124364.909922934,2,0,76,0,16
7,106,729.110721644247,1,0,124366.674680605,124367.721766335,2,1,84,4,16
7,107,496.87378280214,0,0,124369.474769608,124370.521847639,2,0,94,0,0
7,108,652.036532745115,0,0,124372.133663784,124373.180752209,2,0,87,16,8
7,109,494.416961926618,0,0,124374.957280061,124376.004357322,2,0,75,0,8
7,110,777.560753311263,0,0,124377.522050513,124378.569138553,2,0,70,8,16
7,111,789.197738224175,1,0,124380.463317789,124381.510408524,2,1,64,4,16
7,112,468.18841676577,0,0,124383.404580446,124384.451663096,2,0,86,4,16
7,113,563.771143730264,0,0,124386.098773233,124387.145870512,2,0,99,0,16
7,114,578.057045000605,0,0,124388.92238566,124389.969473315,2,0,90,0,8
7,115,752.392390641035,1,0,124391.734231371,124392.78132172,2,1,63,16,8
7,116,575.472417098354,0,0,124394.699026691,124395.746110881,2,0,78,0,4
7,117,585.621527876356,1,0,124397.510873942,124398.557951587,2,1,92,0,4
7,118,653.232606448,1,0,124400.193300397,124401.240379967,2,1,83,8,4
7,119,455.441589423572,0,0,124403.063971607,124404.111056182,2,0,75,8,0
7,120,726.370184551342,0,0,124405.711110231,124406.758189416,2,0,87,8,0
7,121,965.977970947279,1,0,124408.652370962,124409.699450148,2,1,69,8,4
7,122,520.575829170411,1,0,124411.781878759,124412.828957175,2,1,95,0,16
7,123,458.021212820313,0,0,124414.417242197,124415.464324077,2,0,74,4,8
7,124,655.003426858457,1,0,124417.017312799,124418.064402378,2,1,67,8,16
7,125,543.16649325483,1,0,124419.887990168,124420.935074743,2,1,65,4,4
7,126,861.353280924959,0,0,124422.652775941,124423.699857052,2,0,62,16,0
7,127,993.075372985913,0,0,124425.688151544,124426.735239199,2,0,93,16,4
7,128,668.789263843792,1,0,124428.923542083,124429.970629353,2,1,72,0,16
7,129,794.373538330547,0,0,124431.817741722,124432.864832842,2,0,78,16,16
7,130,740.811995026888,0,0,124434.688465672,124435.735500587,2,0,99,8,0
7,131,705.035648090416,1,0,124437.559089917,124438.606177187,2,1,96,8,16
7,132,492.433258114033,0,0,124440.382702344,124441.429788074,2,0,95,0,16
7,133,807.697807133081,0,0,124443.100420481,124444.14751237,2,0,61,16,0
7,134,740.524814129458,1,0,124446.100512486,124447.147593597,2,1,90,0,0
7,135,970.875444283593,1,0,124449.018250178,124450.065327054,2,1,100,4,16
7,136,693.177310648025,1,0,124452.100689183,124453.147772989,2,1,77,16,8
7,137,608.53093964397,1,0,124454.912533354,124455.95961331,2,1,80,8,8
7,138,724.125862165238,1,0,124457.653782614,124458.700872579,2,1,72,8,0
7,139,707.294599022134,0,0,124460.465632559,124461.51271598,2,0,91,4,8
7,140,650.214512512321,0,0,124463.324538593,124464.371621628,2,0,66,4,0
7,141,455.144784515142,0,0,124466.077562269,124467.124648769,2,0,94,4,0
7,142,589.668622458703,1,0,124468.701172848,124469.748249339,2,1,72,0,8
7,143,689.496313934796,1,0,124471.407128117,124472.454216542,2,1,70,4,8
7,144,566.09361320443,1,0,124474.336625597,124475.383725571,2,1,76,8,8
7,145,576.701597456122,0,0,124477.066114685,124478.1132008,2,0,94,8,8
7,146,612.16381622944,1,0,124479.807374338,124480.854460838,2,1,72,4,4
7,147,716.290366763133,0,0,124482.513336922,124483.560410333,2,0,100,8,16
7,148,517.914209078299,1,0,124485.348712601,124486.395834903,2,1,72,0,4
7,149,801.967663224787,1,0,124488.007609473,124489.054698282,2,1,93,16,4
7,150,693.329755202285,0,0,124490.937106952,124491.984190372,2,0,63,16,4
7,151,653.204504298628,0,0,124493.831303512,124494.878389627,2,0,74,4,16
7,152,611.806187502225,1,0,124496.666687275,124497.713835754,2,1,67,8,4
7,153,656.932466241415,1,0,124499.384414651,124500.431500766,2,1,62,8,16
7,154,463.506906526163,1,0,124502.219784941,124503.266869901,2,1,75,16,8
7,155,571.605099277804,0,0,124504.866925874,124505.914009295,2,0,76,16,0
7,156,589.430331630865,0,0,124507.572879219,124508.619967643,2,0,71,8,4
7,157,542.019694534247,0,0,124510.396497805,124511.44359085,2,0,93,4,8
7,158,439.263990003383,1,0,124513.078926185,124514.12601461,2,1,82,4,4
7,159,596.694160005427,1,0,124515.702547544,124516.749617491,2,1,63,16,8
7,160,430.959612160223,0,0,124518.373202663,124519.420285313,2,0,63,8,8
7,161,671.219522395404,1,0,124524.291015807,124525.338106157,3,1,70,16,16
7,162,528.937566210516,1,0,124527.032271997,124528.079366581,3,1,77,8,0
7,163,630.724708957132,1,1,124529.785290283,124530.832393721,3,0,100,16,0
7,164,666.837896729703,1,0,124532.632492348,124533.679523414,3,1,79,16,16
7,165,582.288150908425,1,0,124535.51487869,124536.561959031,3,1,69,0,4
7,166,698.052071296843,1,0,124538.209067628,124539.256156822,3,1,96,4,4
7,167,619.215531114605,1,0,124541.126796081,124542.173891435,3,1,78,8,4
7,168,590.029715851415,0,0,124543.915117982,124544.962250292,3,0,67,4,16
7,169,564.91640258173,1,0,124546.726960998,124547.774050963,3,1,68,4,0
7,170,537.264271799359,0,0,124549.538807094,124550.585898983,3,0,76,16,8
7,171,676.985852624057,0,0,124552.185947257,124553.233032217,3,0,100,0,0
7,172,550.199730016175,0,0,124555.103680715,124556.150767215,3,0,88,0,0
7,173,708.717029774562,0,0,124557.739113061,124558.786143741,3,0,74,16,0
7,174,624.900249633356,1,0,124560.597949031,124561.64504554,3,1,62,4,16
7,175,611.752677927143,0,0,124563.445097202,124564.492187936,3,0,96,4,16
7,176,994.461232447065,1,0,124566.139296918,124567.186380723,3,1,95,16,4
7,177,860.651882059756,1,0,124569.245264737,124570.292352777,3,1,68,8,16
7,178,605.232979083667,0,0,124572.186528548,124573.233616973,3,0,69,0,16
7,179,838.205193373142,1,0,124574.892484972,124575.939573397,3,1,91,8,0
7,180,752.525972100557,0,0,124577.869052014,124578.916130814,3,0,97,16,8
7,181,607.886130033876,0,0,124580.833896994,124581.880938068,3,0,77,4,4
7,182,671.528646038496,0,0,124583.575092359,124584.622180014,3,0,97,16,16
7,183,586.934244754957,0,0,124586.49283852,124587.539917706,3,0,89,0,4
7,184,577.446881870856,1,0,124589.328201496,124590.375296465,3,1,96,8,8
7,185,625.085415842477,1,0,124592.1635868,124593.210669835,3,1,75,0,16
7,186,936.099610902602,1,0,124594.928369878,124595.975459073,3,1,61,4,8
7,187,688.247500584112,0,0,124597.940215512,124598.987303552,3,0,97,8,16
7,188,615.672350424575,0,0,124600.716821126,124601.763856427,3,0,64,8,4
7,189,577.869953966001,0,0,124603.575678655,124604.622787097,3,0,95,8,8
7,190,720.10609980498,1,0,124606.340465968,124607.387548233,3,1,93,4,8
7,191,928.380373705295,1,0,124609.269966527,124610.317045713,3,1,77,4,16
7,192,588.313559885137,0,0,124612.422993129,124613.470079244,3,0,96,0,0
7,193,781.619781701011,1,0,124615.187785831,124616.234866171,3,1,92,4,0
7,194,652.851495076902,0,0,124618.105533147,124619.152601939,3,0,77,16,8
7,195,686.545203207061,0,0,124620.905628309,124621.952682088,3,0,88,4,4
7,196,575.915507157333,0,0,124623.670381361,124624.71747248,3,0,98,8,0
7,197,825.202366992016,1,0,124626.446931156,124627.494023045,3,1,73,16,8
7,198,722.814685112098,1,0,124629.435254135,124630.482404924,3,1,81,16,0
7,199,749.974065896822,0,0,124632.388287743,124633.435374628,3,0,67,8,8
7,200,706.262133724522,1,0,124635.317782143,124636.364872493,3,1,81,0,4
7,201,787.831896726857,0,0,124638.094333093,124639.14144346,3,0,70,16,16
7,202,543.651929023326,1,0,124641.141474257,124642.188569611,3,1,62,4,8
7,203,637.490397857619,0,0,124643.835674743,124644.882765863,3,0,97,4,0
7,204,965.482911138679,0,0,124646.553398654,124647.600490928,3,0,80,8,16
7,205,813.436035212362,0,0,124649.600543668,124650.647633633,3,0,81,4,16
7,206,839.72309443925,1,0,124652.671237514,124653.71831208,3,1,97,4,8
7,207,682.562012138078,0,0,124655.612487467,124656.659575892,3,0,61,0,4
7,208,866.158363642171,1,0,124658.400800899,124659.447890094,3,1,80,4,4
7,209,770.639540205593,0,0,124661.377365246,124662.4244529,3,0,94,16,4
7,210,865.371888387017,1,0,124664.330390769,124665.377476884,3,1,92,16,4
7,211,642.656188996625,1,0,124667.448131464,124668.495214885,3,1,93,0,8
7,212,647.571370544028,1,0,124670.154139858,124671.201175158,3,1,84,4,4
7,213,755.156025377801,0,0,124672.989468957,124674.036556997,3,0,99,0,8
7,214,525.953733798815,0,0,124675.930732769,124676.977818499,3,0,67,0,16
7,215,739.317576561007,0,0,124678.554339884,124679.601419839,3,0,74,0,8
7,216,558.981074485928,1,0,124681.483837748,124682.530926943,3,1,77,0,4
7,217,723.841376006021,1,0,124684.283922132,124685.331005937,3,1,69,8,16
7,218,690.260076487903,0,0,124687.213417302,124688.260495332,3,0,88,4,8
7,219,718.157042458188,0,0,124690.060551614,124691.107642733,3,0,61,16,4
7,220,593.660667640506,0,0,124692.94299416,124693.990074116,3,0,85,16,4
7,221,572.779230220476,1,0,124695.766606203,124696.813778164,3,1,93,8,4
7,222,438.482519253739,1,0,124698.449036507,124699.496128397,3,1,84,0,0
7,223,566.426604433218,0,0,124701.107937613,124702.155023343,3,0,95,0,8
7,224,639.114548146608,0,0,124703.837425931,124704.884511661,3,0,79,0,0
7,225,624.076048203278,0,0,124706.590452686,124707.637531102,3,0,63,8,8
7,226,504.639600258088,0,0,124709.331756226,124710.378795761,3,0,65,8,4
7,227,723.22659335623,1,0,124712.014135716,124713.061219906,3,1,84,8,4
7,228,1299.70409275847,1,0,124714.837748913,124715.884836953,3,1,61,8,16
7,229,880.818062010803,1,0,124718.24966792,124719.296698601,3,1,92,8,0
7,230,1466.00453324209,1,0,124721.226169133,124722.273260253,3,1,87,16,16
7,231,838.082390822819,1,0,124724.826271302,124725.873361267,3,1,92,8,0
7,232,699.880635875161,1,0,124727.885189192,124728.932269918,3,1,70,0,16
7,233,673.43651255942,0,0,124730.755861942,124731.802951137,3,0,68,4,0
7,234,764.309627120383,1,0,124733.614765281,124734.661851781,3,1,93,16,8
7,235,468.585311522475,0,0,124736.473674394,124737.520759739,3,0,77,16,0
7,236,457.185462582856,1,0,124739.061983668,124740.109071323,3,1,87,0,8
7,237,484.946152369957,0,0,124741.662066974,124742.709150394,3,0,87,4,0
7,238,620.985581612331,1,0,124744.320966155,124745.368046111,3,1,84,16,0
7,239,710.182191178319,0,0,124747.026928353,124748.074008694,3,0,64,8,8
7,240,798.028357705334,1,0,124749.885833617,124750.932916652,3,1,71,0,16
7,241,583.877654717071,0,0,124760.697916849,124761.745005273,4,0,75,0,8
7,242,669.711245340295,0,0,124763.439218078,124764.486263002,4,0,61,4,16
7,243,484.373715415131,1,0,124766.180423453,124767.227506103,4,1,85,0,4
7,244,801.503400303773,0,0,124768.839319939,124769.886417218,4,0,95,4,0
7,245,633.573805040214,0,0,124771.804136432,124772.851210228,4,0,77,4,8
7,246,759.564598309225,1,0,124774.498307661,124775.54540571,4,1,86,8,8
7,247,738.513393109315,0,0,124777.404281716,124778.451363981,4,0,97,8,16
7,248,667.112758863368,0,0,124780.345544373,124781.392632797,4,0,93,16,0
7,249,589.963117599837,0,0,124783.086801717,124784.133896301,4,0,97,16,4
7,250,816.620817247895,0,0,124785.875114764,124786.922206268,4,0,80,16,0
7,251,675.463716994273,1,0,124788.781085739,124789.828170699,4,1,78,0,16
7,252,532.611633621855,1,0,124791.639992158,124792.687083662,4,1,90,0,4
7,253,456.75084166578,0,0,124794.298890954,124795.345976299,4,0,78,0,4
7,254,605.037418921711,1,0,124796.969563011,124798.016642197,4,1,89,0,0
7,255,570.420574411401,0,0,124799.699052483,124800.746139368,4,0,96,8,8
7,256,738.833680632524,1,0,124802.475606128,124803.522698787,4,1,97,16,16
7,257,654.517221162678,0,0,124805.369808077,124806.416894577,4,0,99,0,4
7,258,793.707940843888,1,0,124808.275773663,124809.322857468,4,1,73,8,0
7,259,943.010045113624,0,0,124811.146448723,124812.193594122,4,0,71,4,8
7,260,595.89729081199,1,0,124814.252417697,124815.29956502,4,1,78,0,8
7,261,423.035190760856,0,0,124816.958373736,124818.005467165,4,0,75,8,16
7,262,629.888188806945,1,0,124819.452576608,124820.499655409,4,1,86,8,0
7,263,782.781208909,1,0,124822.217354682,124823.264442722,4,1,92,16,0
7,264,784.246755298227,1,0,124825.240974347,124826.288059307,4,1,92,16,16
7,265,940.592875238508,1,0,124828.217579115,124829.26461557,4,1,81,4,16
7,266,813.272041850723,1,0,124831.405861981,124832.452949636,4,1,81,8,8
7,267,775.434998897254,0,0,124834.311824872,124835.358914837,4,0,77,4,16
7,268,698.8458607957,1,0,124837.288385369,124838.335475719,4,1,91,16,16
7,269,566.840052517364,1,0,124840.053179611,124841.100320391,4,1,86,4,4
7,270,491.053942983854,1,0,124842.770898132,124843.817987327,4,1,85,0,0
7,271,739.758741823607,0,0,124845.500413012,124846.547477185,4,0,68,8,16
7,272,524.480103238602,0,0,124848.453418903,124849.500506943,4,0,71,8,8
7,273,727.612068629242,0,0,124851.159379947,124852.206460287,4,0,78,4,8
7,274,675.576510548126,1,0,124854.112405085,124855.159488121,4,1,94,0,0
7,275,570.015980440076,1,0,124856.994845707,124858.041926048,4,1,96,0,8
7,276,634.100431634579,1,0,124859.700799436,124860.747888246,4,1,68,4,16
7,277,540.979914992931,0,0,124862.395002617,124863.44210644,4,0,63,16,8
7,278,765.442952193553,0,0,124865.030374139,124866.07745371,4,0,74,8,4
7,279,491.946667447337,1,0,124867.959874313,124869.006955424,4,1,66,0,16
7,280,654.950302254292,1,0,124870.665828043,124871.712920317,4,1,89,16,4
7,281,570.903315456235,1,0,124873.560028067,124874.607123421,4,1,66,8,4
7,282,812.215324011049,1,0,124876.383647809,124877.430729304,4,1,92,4,8
7,283,807.1072770108,1,0,124879.3837325,124880.43081669,4,1,61,8,0
7,284,566.862765219412,0,0,124882.383820656,124883.43091447,4,0,75,4,8
7,285,755.689966244972,0,0,124885.136843947,124886.183931987,4,0,83,8,8
7,286,726.765154497116,1,0,124887.99575152,124889.042854188,4,1,93,4,16
7,287,711.273555512889,0,0,124890.925247075,124891.97233165,4,0,79,8,0
7,288,723.158455250086,1,0,124893.866505497,124894.913598156,4,1,99,16,8
7,289,612.732018606039,1,0,124896.713649048,124897.760769425,4,1,62,8,16
7,290,715.308716302388,1,0,124899.53726417,124900.58435221,4,1,81,4,4
7,291,491.717615674133,1,0,124902.372647164,124903.419734434,4,1,78,0,0
7,292,546.954894074588,0,0,124904.937416461,124905.984509505,4,0,77,8,4
7,293,734.591025873669,0,0,124907.71397126,124908.761056605,4,0,71,0,16
7,294,805.595535304747,0,0,124910.619938001,124911.667022192,4,0,90,16,8
7,295,1058.2419494458,0,0,124913.620031932,124914.667110348,4,0,81,0,8
7,296,708.607315886184,0,0,124916.890704528,124917.937799497,4,0,100,4,4
7,297,499.162760665058,0,0,124919.773161703,124920.82023165,4,0,65,16,0
7,298,797.981777432142,1,0,124922.37322961,124923.420308411,4,1,94,4,0
7,299,661.124691105215,1,0,124925.385082173,124926.432168673,4,1,83,16,8
7,300,786.950336128939,0,0,124928.185160397,124929.232246897,4,0,68,16,0
7,301,570.384773047408,1,0,124931.10289655,124932.14997381,4,1,64,4,0
7,302,653.700334005407,1,0,124933.72650251,124934.773584005,4,1,83,16,16
7,303,601.371820652275,1,0,124936.620698684,124937.667790959,4,1,93,0,16
7,304,878.705396244186,0,0,124939.432549784,124940.47963359,4,0,80,0,4
7,305,776.9825419673,1,0,124942.514989174,124943.562075674,4,1,61,16,4
7,306,1000.47701738367,1,0,124945.444488194,124946.491576618,4,1,82,8,0
7,307,645.848670246778,0,0,124948.621053618,124949.668139733,4,0,67,8,4
7,308,747.412150696618,0,0,124951.35054617,124952.397626896,4,0,100,16,4
7,309,651.173450256465,0,0,124954.197683562,124955.244766597,4,0,61,4,0
7,310,815.966768568615,0,0,124956.985998919,124958.033158562,4,0,71,16,16
7,311,736.504281856469,0,0,124960.021475766,124961.06847334,4,0,91,0,8
7,312,767.753102918505,1,0,124962.880295953,124963.927383223,4,1,88,8,16
7,313,1188.74256036361,1,0,124965.750961389,124966.798087155,4,1,64,16,4
7,314,664.527746004751,0,0,124969.139302693,124970.186383803,4,0,75,0,16
7,315,691.302165811067,0,0,124972.033504642,124973.080594221,4,0,71,16,8
7,316,731.319242666359,0,0,124974.939465993,124975.986557882,4,0,96,4,0
7,317,730.299096132512,0,0,124977.786617243,124978.833693734,4,0,99,8,4
7,318,481.845291840727,1,0,124980.621992923,124981.669077113,4,1,85,0,0
7,319,638.615253788885,0,0,124983.31618417,124984.363273365,4,0,84,4,4
7,320,544.514241570141,1,0,124986.069207076,124987.116294731,4,1,74,4,4
7,321,712.1705145546,1,0,124992.610571901,124993.657658786,5,1,81,8,4
7,322,585.73239663383,1,0,124995.410661674,124996.457828246,5,1,98,0,4
7,323,564.878676421358,0,0,124998.210783014,124999.257890687,5,0,61,0,16
7,324,676.309476213646,0,0,125000.893173283,125001.940261707,5,0,99,16,4
7,325,599.199100979604,1,0,125003.646193879,125004.693273834,5,1,71,4,8
7,326,491.23294983292,1,0,125006.49333358,125007.54042316,5,1,86,4,4
7,327,767.744633776601,1,0,125009.175796992,125010.222847305,5,1,71,16,8
7,328,625.096579722594,1,0,125012.058201042,125013.105290237,5,1,89,4,8
7,329,920.911746099591,0,0,125014.893621377,125015.940670921,5,0,81,4,16
7,330,565.558132511796,0,0,125018.034847385,125019.081930036,5,0,67,8,4
7,331,604.354498165776,0,0,125020.776102035,125021.82318815,5,0,79,4,0
7,332,736.359921502299,0,0,125023.43500391,125024.482087331,5,0,74,16,8
7,333,690.847526915604,0,0,125026.411568642,125027.458651677,5,0,80,16,0
7,334,490.39835446456,0,0,125029.293997715,125030.341087295,5,0,64,0,0
7,335,625.03537091834,1,0,125032.035256214,125033.082338864,5,1,66,0,8
7,336,528.832856813096,0,0,125034.788274115,125035.835404886,5,0,74,4,0
7,337,440.425032255007,1,0,125037.470709425,125038.51779246,5,1,67,4,4
7,338,595.462669894914,0,0,125040.129608991,125041.176704345,5,0,97,8,0
7,339,686.547128017992,1,0,125042.882630742,125043.929719551,5,1,92,4,16
7,340,537.661551497877,1,0,125045.753305802,125046.800416554,5,1,67,0,0
7,341,502.186629004427,0,0,125048.435738416,125049.482824146,5,0,78,0,4
7,342,727.356839503045,1,0,125051.188760937,125052.235844742,5,1,71,8,0
7,343,599.561349241412,1,0,125054.106490545,125055.153576275,5,1,96,16,0
7,344,654.318581320695,1,0,125056.847746734,125057.894830539,5,1,84,4,4
7,345,672.256607227609,0,0,125059.553702773,125060.600792353,5,0,71,4,0
7,346,624.571492968244,0,0,125062.483258767,125063.530292142,5,0,94,8,16
7,347,675.689304116531,0,0,125065.342117835,125066.389197791,5,0,61,8,0
7,348,738.418692722917,0,0,125068.08336979,125069.130460524,5,0,92,8,8
7,349,548.305722069927,1,0,125071.024631291,125072.071725491,5,1,74,4,16
7,350,676.833793040714,1,0,125073.754148481,125074.801207264,5,1,82,8,16
7,351,647.142909001559,0,0,125076.636561001,125077.683645961,5,0,85,0,4
7,352,514.834906352917,1,0,125079.519003547,125080.566081963,5,1,100,4,16
7,353,456.370500236517,1,0,125082.213193639,125083.260282064,5,1,64,0,16
7,354,458.055474358844,1,0,125084.801504454,125085.848595573,5,1,96,16,0
7,355,543.138006134541,0,0,125087.401579675,125088.44866425,5,0,88,0,8
7,356,465.301209565951,1,0,125090.013424308,125091.060515427,5,1,78,8,16
7,357,413.759556395235,1,0,125092.601732428,125093.648824702,5,1,66,4,4
7,358,445.93959802296,1,0,125095.166516738,125096.213595923,5,1,78,16,4
7,359,497.895854146918,0,0,125097.754827937,125098.801912127,5,0,64,16,4
7,360,533.234500442632,1,0,125100.331375499,125101.37846046,5,1,83,4,0
7,361,637.630908604478,0,0,125102.954968371,125104.00206565,5,0,79,8,4
7,362,475.4934359662,0,0,125105.813882103,125106.860973608,5,0,97,0,4
7,363,853.887348042917,0,0,125108.37869875,125109.425800649,5,0,93,16,16
7,364,621.412888271152,0,0,125111.366986313,125112.414071273,5,0,68,16,16
7,365,653.293430266785,0,0,125114.06118064,125115.108273299,5,0,89,16,8
7,366,449.602501568734,1,0,125116.931859164,125117.978948744,5,1,80,0,16
7,367,646.707133186283,0,0,125119.449577763,125120.496663493,5,0,83,4,8
7,368,455.518581613433,1,0,125122.284960756,125123.332043022,5,1,66,4,0
7,369,621.769362129271,0,0,125124.814443762,125125.861526027,5,0,93,16,0
7,370,592.914228327572,0,0,125127.520397106,125128.567490535,5,0,74,16,0
7,371,635.324222530471,1,0,125130.3557801,125131.402865445,5,1,63,4,16
7,372,681.63656599063,0,0,125133.167625425,125134.214714235,5,0,98,0,8
7,373,671.692254443769,0,0,125135.979478835,125137.026561871,5,0,71,8,8
7,374,681.527237087721,0,0,125138.826610068,125139.873706192,5,0,89,8,0
7,375,497.666417402797,0,0,125141.59140662,125142.638488885,5,0,99,0,8
7,376,663.300490457914,1,0,125144.179722054,125145.226802009,5,1,73,0,16
7,377,539.704539318336,1,0,125146.897437495,125147.94452592,5,1,87,0,0
7,378,646.836095111212,1,0,125149.509279433,125150.556393265,5,1,68,8,16
7,379,696.070677237003,1,0,125152.285831538,125153.332915728,5,1,61,16,16
7,380,666.645801218692,0,0,125155.109445505,125156.156528156,5,0,93,0,0
7,381,748.355690011522,0,0,125157.897766637,125158.944844283,5,0,81,16,8
7,382,717.24314513267,1,0,125160.709606573,125161.756698462,5,1,83,8,8
7,383,493.773307214724,0,0,125163.533233629,125164.580309735,5,0,64,4,4
7,384,574.242081871489,1,0,125166.262715787,125167.309799208,5,1,96,0,16
7,385,1168.6803198827,1,0,125169.039260193,125170.086355162,5,1,73,0,0
7,386,710.95326798968,0,0,125172.415834394,125173.46291743,5,0,80,16,16
7,387,506.234108557692,1,0,125175.227680875,125176.27476699,5,1,64,8,4
7,388,421.22433440818,1,0,125177.933638839,125178.980731883,5,1,66,8,0
7,389,621.199234941741,0,0,125180.592544949,125181.639624905,5,0,70,8,8
7,390,610.12968250725,0,0,125183.439683496,125184.486773076,5,0,88,0,8
7,391,590.393503953237,1,0,125186.110349009,125187.157438973,5,1,78,8,8
7,392,479.745714750607,0,0,125188.781023761,125189.828101406,5,0,65,4,8
7,393,661.672490561614,0,0,125191.381090513,125192.428182787,5,0,92,16,8
7,394,734.597570219194,1,0,125194.181176051,125195.228257932,5,1,100,16,16
7,395,747.521864570444,1,0,125196.993023302,125198.040111727,5,1,98,4,8
7,396,857.907110403175,1,0,125199.957821317,125201.004901272,5,1,92,16,4
7,397,671.366962429602,1,0,125202.899075889,125203.946162004,5,1,68,8,16
7,398,526.356402959209,1,0,125205.805050329,125206.852131055,5,1,87,0,4
7,399,542.579427783494,0,0,125208.569827248,125209.616919907,5,0,97,16,4
7,400,627.375548603595,0,0,125211.205209549,125212.252285655,5,0,90,8,4
7,401,661.317556543509,0,0,125217.217144494,125218.264232533,6,0,94,4,0
7,402,958.588260327815,0,0,125220.09958704,125221.146700872,6,0,99,8,0
7,403,536.296094971476,1,0,125223.229090217,125224.276172098,6,1,84,16,4
7,404,698.592556494987,0,0,125225.958582384,125227.0056608,6,0,84,16,8
7,405,630.840197249199,0,0,125228.723365078,125229.770492769,6,0,77,16,8
7,406,669.507600992802,0,0,125231.405795383,125232.452884192,6,0,70,16,0
7,407,723.192716788617,1,0,125234.252937009,125235.300018504,6,1,72,4,8
7,408,709.593585866969,0,0,125237.22950251,125238.276578616,6,0,99,8,8
7,409,493.513073597569,0,0,125240.076638362,125241.123724862,6,0,84,0,8
7,410,579.971070896136,0,0,125242.759069437,125243.806149778,6,0,96,16,8
7,411,655.077724339208,1,0,125245.570913993,125246.618003957,6,1,95,8,4
7,412,518.354989369982,0,0,125248.441588283,125249.488676323,6,0,98,0,8
7,413,579.68081033323,0,0,125251.100490544,125252.147572424,6,0,94,8,8
7,414,780.842160558677,1,0,125253.81825141,125254.865356003,6,1,69,8,16
7,415,525.853643950541,1,0,125256.783007079,125257.830094349,6,1,65,4,0
7,416,511.480356537504,1,0,125259.465433535,125260.512526579,6,1,84,8,4
7,417,894.530371428118,0,0,125262.077294336,125263.124362743,6,0,81,16,4
7,418,663.563033827813,0,0,125265.171485429,125266.218570004,6,0,65,16,0
7,419,514.966947972425,1,0,125268.006868423,125269.053947608,6,1,78,8,0
7,420,695.510174075025,1,0,125270.583415215,125271.63050518,6,1,70,16,16
7,421,652.554305226658,1,0,125273.336433117,125274.383516922,6,1,96,8,4
7,422,459.657296916703,1,0,125276.148278442,125277.195367252,6,1,67,0,8
7,423,645.522223348962,0,0,125278.701296421,125279.748396779,6,0,93,8,0
7,424,638.693400862394,0,0,125281.57197302,125282.619087623,6,0,80,0,4
7,425,575.413518075948,1,0,125284.360281833,125285.407372183,6,1,74,0,0
7,426,564.457144166227,1,0,125287.066247496,125288.113329377,6,1,78,4,4
7,427,627.5087450922,0,0,125289.819267322,125290.866358827,6,0,74,4,4
7,428,627.555325365392,1,0,125292.536995853,125293.584078118,6,1,74,16,4
7,429,525.605729082599,1,0,125295.384131704,125296.431228598,6,1,96,0,4
7,430,1044.41107202729,0,0,125298.13715923,125299.18424034,6,0,75,0,16
7,431,602.823893379536,0,0,125301.266663177,125302.313777779,6,0,64,4,4
7,432,715.727553819306,0,0,125304.113867552,125305.160886299,6,0,98,8,8
7,433,511.56081337831,1,0,125306.913886492,125307.960970297,6,1,65,16,0
7,434,660.762827799772,0,0,125309.678698827,125310.725809195,6,0,79,16,16
7,435,1210.7284507947,0,0,125312.478798224,125313.525838144,6,0,95,16,0
7,436,622.237859613961,0,0,125315.855322381,125316.902413116,6,0,69,8,16
7,437,533.262602592004,0,0,125318.620113159,125319.667195424,6,0,84,0,8
7,438,531.562230040436,0,0,125321.290780596,125322.337864016,6,0,63,0,0
7,439,476.226401646272,1,0,125324.032036015,125325.079117511,6,1,67,16,16
7,440,486.928701327997,1,1,125326.667402918,125327.714525989,6,0,89,4,4
7,441,726.474124021479,1,0,125329.349832838,125330.396925112,6,1,94,16,8
7,442,551.546708418755,1,0,125332.314627003,125333.361711578,6,1,97,4,4
7,443,556.180098530604,1,0,125335.0441184,125336.09120952,6,1,67,4,16
7,444,576.272750942735,1,0,125337.808907638,125338.855991828,6,1,69,4,16
7,445,500.636006254354,1,0,125340.585512867,125341.632548937,6,1,65,8,16
7,446,540.957972203614,1,0,125343.209061853,125344.256153743,6,1,86,8,16
7,447,704.527114663506,0,0,125345.891494853,125346.938584432,6,0,81,16,16
7,448,703.887694515288,0,0,125348.80923524,125349.85632097,6,0,90,0,16
7,449,479.395015310729,0,0,125351.644611304,125352.69169049,6,0,97,0,16
7,450,744.905669867876,1,0,125354.315274507,125355.362354463,6,1,100,8,8
7,451,671.280346214189,1,0,125357.19770358,125358.244799704,6,1,78,4,8
7,452,675.407897637342,1,0,125360.115441272,125361.162525848,6,1,96,0,0
7,453,700.324880803237,0,0,125362.856694767,125363.903789351,6,0,67,4,16
7,454,797.003591622342,1,0,125365.750899795,125366.79798668,6,1,83,8,4
7,455,489.240391892963,1,0,125368.715698965,125369.762782001,6,1,98,0,4
7,456,551.18869470607,0,0,125371.374593912,125372.421683876,6,0,65,8,16
7,457,534.587253278005,0,0,125374.139385459,125375.186469264,6,0,88,0,0
7,458,583.737143984763,1,0,125376.751227012,125377.798308893,6,1,89,4,8
7,459,449.036224003066,1,0,125379.586598457,125380.633690347,6,1,66,0,4
7,460,574.903829750838,0,0,125382.233729767,125383.280817037,6,0,86,4,8
7,461,494.810392046929,1,0,125385.022079,125386.069138168,6,1,94,0,16
7,462,737.035527999979,1,0,125387.59860231,125388.645691505,6,1,70,4,0
7,463,532.206269723247,0,0,125390.516329993,125391.563420728,6,0,95,16,0
7,464,726.217740011634,0,0,125393.116408294,125394.163497104,6,0,81,16,4
7,465,620.889726327732,0,0,125395.951839023,125396.998877018,6,0,71,4,16
7,466,632.512467665947,1,0,125398.693046707,125399.740131283,6,1,69,8,0
7,467,493.944614834618,1,0,125401.469593038,125402.516678383,6,1,93,0,4
7,468,538.401831436204,0,0,125404.140253546,125405.1873489,6,0,71,0,8
7,469,581.528622948099,1,0,125406.905042014,125407.952132748,6,1,95,8,4
7,470,597.643473738572,0,0,125409.563945815,125410.611030775,6,0,76,4,8
7,471,614.446249761386,1,0,125412.316982194,125413.364049446,6,1,64,16,8
7,472,601.026510659722,0,0,125415.105289852,125416.152374427,6,0,93,0,0
7,473,1189.56098737544,0,0,125417.881840032,125418.928919987,6,0,100,16,4
7,474,527.33920828905,1,0,125421.223107924,125422.270195194,6,1,84,16,16
7,475,482.795760442968,0,0,125423.846717734,125424.893802694,6,0,76,4,0
7,476,562.420315720374,1,0,125426.540916295,125427.588005105,6,1,84,0,16
7,477,473.919715572265,1,0,125429.329232422,125430.376317382,6,1,76,4,16
7,478,486.686945834663,1,0,125431.870485608,125432.917565949,6,1,88,4,0
7,479,962.030966198654,1,0,125434.494086949,125435.541178068,6,1,71,8,8
7,480,727.227492621751,0,0,125437.705952139,125438.753034019,6,0,92,8,0
7,481,615.844427971751,1,0,125444.553208483,125445.600296523,7,1,90,0,0
7,482,667.148175270995,0,0,125447.365059584,125448.412143389,7,0,71,8,0
7,483,748.664043741883,1,0,125450.247488656,125451.294579776,7,1,89,16,16
7,484,633.436758944299,0,0,125453.141686756,125454.188780185,7,0,83,16,16
7,485,461.376147606643,0,0,125455.953535546,125457.00062936,7,0,77,0,8
7,486,776.741171444883,1,0,125458.577211954,125459.624234166,7,1,92,16,8
7,487,684.570353478193,0,0,125461.412526425,125462.45961023,7,0,90,16,0
7,488,535.430702730082,1,0,125464.259659967,125465.306754551,7,1,85,4,0
7,489,519.271966390079,0,0,125466.859739038,125467.906825923,7,0,93,4,4
7,490,556.993521051481,0,0,125469.459810795,125470.506909229,7,0,98,0,16
7,491,661.695973176393,0,0,125472.095186551,125473.142273051,7,0,72,4,0
7,492,926.09486047877,1,0,125474.871744046,125475.918830931,7,1,83,16,16
7,493,869.40589430742,0,0,125478.036546218,125479.083624249,7,0,89,4,0
7,494,789.608106599189,1,0,125481.060151639,125482.107246993,7,1,61,16,4
7,495,610.319853236433,1,0,125484.095538791,125485.142629525,7,1,92,4,8
7,496,425.035832871799,1,0,125486.789734272,125487.836824622,7,1,94,0,4
7,497,604.499243505416,0,0,125489.36628222,125490.413372569,7,0,95,16,4
7,498,885.109221824678,0,0,125492.213421536,125493.260505726,7,0,86,0,16
7,499,684.476807960891,1,0,125495.284103833,125496.331192258,7,1,68,4,16
7,500,723.789406270953,0,0,125498.107708946,125499.154832018,7,0,76,4,8
7,501,902.23536506528,0,0,125501.025450103,125502.072537373,7,0,81,4,0
7,502,812.177982792491,1,0,125503.990238879,125505.037329614,7,1,71,8,4
7,503,602.088232990354,0,0,125506.884446218,125507.931531178,7,0,68,8,0
7,504,631.192051587277,0,0,125509.637467969,125510.684554469,7,0,80,16,8
7,505,594.494878037949,0,0,125512.472840568,125513.519925144,7,0,72,16,4
7,506,579.415572225116,0,0,125515.167041055,125516.21412794,7,0,90,8,16
7,507,492.390912404517,0,0,125517.872995939,125518.920087828,7,0,76,0,8
7,508,611.894343557651,0,0,125520.496612678,125521.543725355,7,0,73,0,0
7,509,510.921008259174,1,0,125523.202587195,125524.249662531,7,1,74,4,0
7,510,537.864040976274,0,0,125525.861462123,125526.908558632,7,0,86,8,16
7,511,673.297926623491,0,0,125528.638015768,125529.685107273,7,0,81,8,0
7,512,650.675695738755,0,0,125531.414573647,125532.461656683,7,0,90,4,4
7,513,469.227811365272,0,0,125534.249948942,125535.297035827,7,0,86,8,8
7,514,909.149263927247,0,0,125536.850028013,125537.897105659,7,0,93,8,0
7,515,537.838248594198,1,0,125539.838349837,125540.885431333,7,1,94,8,8
7,516,475.58621155622,1,0,125542.47371674,125543.520805934,7,1,86,0,8
7,517,620.163304993184,0,0,125545.167911451,125546.215000646,7,0,89,16,4
7,518,514.982346401666,1,0,125547.909168795,125548.956261455,7,1,75,0,0
7,519,439.33251305134,1,0,125550.626899635,125551.673989215,7,1,85,8,8
7,520,498.968740343116,1,0,125553.215208525,125554.26229387,7,1,83,0,0
7,521,436.250900558662,1,0,125555.791754162,125556.838837198,7,1,76,8,8
7,522,703.496189205907,0,0,125558.309470451,125559.356556181,7,0,68,8,16
7,523,728.793898771983,0,0,125561.07434823,125562.121346189,7,0,61,16,4
7,524,721.683669820777,0,0,125563.874343687,125564.921425952,7,0,81,8,0
7,525,758.987541834358,0,0,125566.803840012,125567.850924202,7,0,89,4,16
7,526,538.688242377248,0,0,125569.639249568,125570.686304116,7,0,79,16,8
7,527,645.612689186237,1,0,125572.392247066,125573.439328947,7,1,88,0,8
7,528,666.084528129431,1,0,125575.215851795,125576.262940219,7,1,72,0,8
7,529,779.852425926947,0,0,125578.015933868,125579.063029222,7,0,64,8,8
7,530,530.69491298811,1,0,125580.863080114,125581.910161225,7,1,66,16,0
7,531,508.923445842811,1,0,125583.5808021,125584.627894759,7,1,96,0,0
7,532,853.696792357368,0,0,125586.216172467,125587.263255503,7,0,69,4,4
7,533,715.338358291774,0,0,125589.157433584,125590.204527783,7,0,92,8,4
7,534,655.179354027496,1,0,125592.110462957,125593.157547917,7,1,80,16,0
7,535,542.039327556267,0,0,125594.863485863,125595.910567359,7,0,83,4,8
7,536,594.487563779694,1,0,125597.592981495,125598.640067225,7,1,82,16,0
7,537,442.441072809743,1,0,125600.287175822,125601.334260397,7,1,75,0,4
7,538,670.276368036866,1,0,125602.934308286,125603.981392091,7,1,70,4,16
7,539,608.081690195831,0,0,125605.828511775,125606.875596735,7,0,71,16,16
7,540,916.210602837964,1,0,125608.499176518,125609.546267252,7,1,83,8,4
7,541,595.677478107973,1,0,125611.475742789,125612.522834679,7,1,62,4,8
7,542,526.849922913243,0,0,125614.228809196,125615.275847191,7,0,87,16,8
7,543,478.842596334289,1,0,125616.993544924,125618.040653752,7,1,64,0,16
7,544,738.568827495328,0,0,125619.534790796,125620.581880376,7,0,97,8,16
7,545,664.731390352244,1,0,125622.440766776,125623.487849041,7,1,94,4,16
7,546,686.835463784519,1,0,125625.311434137,125626.358520252,7,1,61,0,16
7,547,552.19613754889,1,0,125628.229169134,125629.276256789,7,1,63,16,16
7,548,530.751887214137,1,0,125631.017522987,125632.06457869,7,1,88,0,16
7,549,519.364741980098,0,0,125633.746970884,125634.794060079,7,0,88,0,4
7,550,634.012660535518,1,0,125636.382347025,125637.429465092,7,1,71,4,8
7,551,572.181385854492,1,0,125639.253019006,125640.300100501,7,1,71,0,4
7,552,461.687965973397,1,0,125642.076635668,125643.123715238,7,1,64,16,8
7,553,510.904454931733,1,0,125644.653176301,125645.700261261,7,1,78,4,16
7,554,718.987018291955,1,0,125647.265017469,125648.312104739,7,1,91,16,0
7,555,545.010841218755,0,0,125650.11215948,125651.159309499,7,0,85,0,4
7,556,671.639129839605,1,0,125652.900477917,125653.947565572,7,1,97,8,4
7,557,540.529510661145,0,0,125655.653496973,125656.700586553,7,0,86,4,4
7,558,543.514497956494,1,0,125658.453578277,125659.500670551,7,1,89,8,16
7,559,667.387236011564,0,0,125661.112480538,125662.159567038,7,0,98,8,4
7,560,586.056918720715,1,0,125663.900798589,125664.947882779,7,1,65,4,4
7,561,571.735601057298,1,0,125671.301011319,125672.348106288,8,1,96,4,8
7,562,642.762823175872,0,0,125674.054089274,125675.101129579,8,0,98,8,16
7,563,531.426338813617,1,0,125676.889415679,125677.936502948,8,1,75,4,16
7,564,755.724612739868,1,0,125679.607167306,125680.654230324,8,1,78,8,0
7,565,662.376199194114,1,0,125682.454282755,125683.501365406,8,1,90,8,4
7,566,589.983905490953,0,0,125685.336717603,125686.383808722,8,0,100,0,8
7,567,578.996734708198,1,0,125688.089738584,125689.136830858,8,1,64,4,0
7,568,515.231416153256,1,0,125690.913354476,125691.960439051,8,1,65,4,8
7,569,547.93654452078,0,0,125693.548725998,125694.595818657,8,0,67,16,4
7,570,615.750882469001,0,0,125696.289997586,125697.337069072,8,0,72,16,16
7,571,1053.85146968183,0,0,125699.14889746,125700.195975875,8,0,72,4,16
7,572,445.663581020199,0,0,125702.301924061,125703.349002862,8,0,76,16,16
7,573,830.17991221277,0,0,125704.831405911,125705.878489717,8,0,100,8,4
7,574,537.814381008502,0,0,125707.91385223,125708.960934881,8,0,65,8,16
7,575,636.087215156294,1,0,125710.584518513,125711.631605398,8,1,84,8,4
7,576,593.781930336263,1,0,125713.43170133,125714.478750874,8,1,65,8,16
7,577,678.539170097793,1,0,125716.078791449,125717.125880259,8,1,100,0,8
7,578,752.302309789229,0,0,125718.961229376,125720.008318186,8,0,91,16,0
7,579,877.900442879763,0,0,125721.949618568,125722.996647324,8,0,61,8,0
7,580,578.324977832381,0,0,125724.9731751,125726.020262754,8,0,66,4,0
7,581,524.271454385598,1,0,125727.632070816,125728.679160011,8,1,73,4,0
7,582,615.473325611674,1,0,125730.349794342,125731.396883536,8,1,63,16,0
7,583,604.728680220433,0,0,125733.161643902,125734.208731557,8,0,83,4,16
7,584,498.470985825406,0,0,125735.961726361,125737.008819405,8,0,95,0,16
7,585,480.24616400653,1,0,125738.702982935,125739.75006828,8,1,86,0,4
7,586,638.381967452005,0,0,125741.314826413,125742.361917532,8,0,83,4,0
7,587,559.549661833444,0,0,125744.032554558,125745.079634898,8,0,73,8,4
7,588,524.744956361246,1,0,125746.703220071,125747.750361235,8,1,83,0,0
7,589,479.789600285585,0,0,125749.444475875,125750.49155814,8,0,72,4,4
7,590,555.944502426428,1,0,125752.06808453,125753.1151718,8,1,91,0,0
7,591,503.164044901496,0,0,125754.726982556,125755.774070596,8,0,87,8,4
7,592,678.846368944505,1,0,125757.31529337,125758.362388724,8,1,83,8,8
7,593,564.181127148913,0,0,125760.091847015,125761.138930435,8,0,80,16,8
7,594,583.888818597188,0,0,125762.727225466,125763.774303497,8,0,92,8,8
7,595,526.20588321588,0,0,125765.503772567,125766.550851752,8,0,85,16,16
7,596,611.208728092606,1,0,125768.11560796,125769.162692151,8,1,73,4,4
7,597,557.448929874226,0,0,125770.833333411,125771.880419141,8,0,68,16,16
7,598,561.313552956562,0,0,125773.480477039,125774.527563924,8,0,62,16,4
7,599,709.369538599276,1,0,125776.280553338,125777.327638683,8,1,81,8,8
7,600,429.849384745467,1,0,125779.210051203,125780.25716773,8,1,76,8,0
7,601,449.858115651296,1,0,125781.716038886,125782.763149638,8,1,69,0,4
7,602,614.324602109264,1,0,125784.292549492,125785.339635992,8,1,93,8,0
7,603,528.445586096495,0,0,125787.010282257,125788.057364137,8,0,70,0,8
7,604,591.555701103061,0,0,125789.716241375,125790.763327875,8,0,85,16,4
7,605,520.782168241567,1,0,125792.528090166,125793.575171276,8,1,62,4,4
7,606,500.38655156095,1,0,125795.128170776,125796.175251887,8,1,71,4,16
7,607,490.885330087622,0,0,125797.751770192,125798.798859772,8,0,83,0,4
7,608,464.324178639799,1,0,125800.481265439,125801.528353864,8,1,87,16,0
7,609,769.709089552634,1,0,125803.151940961,125804.199016682,8,1,89,16,8
7,610,984.720950204064,1,0,125806.104953011,125807.15204798,8,1,81,16,4
7,611,565.213592446526,1,0,125809.24622252,125810.293307095,8,1,75,16,8
7,612,507.097575988155,1,0,125812.034542111,125813.081630536,8,1,87,16,0
7,613,711.480279554962,1,0,125814.611085054,125815.658178483,8,1,99,4,0
7,614,498.850557327387,1,0,125817.493525676,125818.540613331,8,1,79,0,8
7,615,490.811417577788,0,0,125820.04653942,125821.093643628,8,0,95,0,16
7,616,688.839955502772,0,0,125822.705443605,125823.752527025,8,0,61,0,8
7,617,586.593939267914,0,0,125825.599668267,125826.646735134,8,0,67,8,8
7,618,806.316567191971,1,0,125828.387965146,125829.435048566,8,1,92,4,16
7,619,654.728179782978,1,0,125831.258668693,125832.305716312,8,1,82,4,8
7,620,769.881552070729,0,0,125834.070515173,125835.117620921,8,0,97,0,0
7,621,1059.34948213689,0,0,125836.905852357,125837.952938472,8,0,65,16,8
7,622,618.817096517887,1,0,125840.176583467,125841.223625696,8,1,88,4,4
7,623,454.678596797748,1,0,125842.976628199,125844.023714314,8,1,87,0,4
7,624,437.885059829568,1,0,125845.553164213,125846.600261492,8,1,77,0,16
7,625,927.85374711093,1,0,125848.200304376,125849.24739973,8,1,91,4,4
7,626,474.977973251953,0,0,125851.365108859,125852.412186504,8,0,67,16,8
7,627,847.0993314113,1,0,125854.071063743,125855.118153322,8,1,61,8,0
7,628,799.719876173185,0,0,125857.118278435,125858.165299491,8,0,94,16,4
7,629,548.223725389107,1,0,125860.094766944,125861.141857678,8,1,70,0,0
7,630,470.122845596052,0,0,125862.78896589,125863.836048541,8,0,97,0,0
7,631,580.367580681923,0,0,125865.41257647,125866.45966066,8,0,90,4,8
7,632,618.218097253703,0,0,125868.165595526,125869.212674712,8,0,98,8,8
7,633,479.624836996663,1,0,125870.942147246,125871.989260308,8,1,87,0,4
7,634,577.946561199497,0,0,125873.553982255,125874.601126114,8,0,86,16,0
7,635,610.220533286338,1,0,125876.377605076,125877.424681182,8,1,93,8,16
7,636,412.814092283952,1,0,125879.165913889,125880.213053898,8,1,66,0,16
7,637,617.352320055943,0,0,125881.648342731,125882.695430386,8,0,62,4,8
7,638,769.686376865138,0,0,125884.413142747,125885.460213079,8,0,71,16,16
7,639,707.144849191536,0,0,125887.389682457,125888.436768187,8,0,100,8,16
7,640,431.605961595778,0,0,125890.178006283,125891.225089318,8,0,88,0,16
7,641,472.437230899232,0,0,125896.272293616,125897.319380501,9,0,78,0,16
7,642,454.141191294184,1,0,125898.966491022,125900.013578677,9,1,69,16,4
7,643,620.67337827466,1,0,125901.648971372,125902.696014371,9,1,82,4,8
7,644,651.228114715195,0,0,125904.378415419,125905.425500379,9,0,69,0,0
7,645,661.83571399597,0,0,125907.213793408,125908.260877984,9,0,71,0,4
7,646,522.397849403205,1,0,125910.002107995,125911.049198345,9,1,90,16,0
7,647,377.553978018113,0,1,125912.708069039,125913.755162468,9,1,72,0,8
7,648,509.122855612077,1,0,125915.343438636,125916.390528216,9,1,88,8,4
7,649,451.695919269696,1,0,125917.978815163,125919.025898583,9,1,67,0,4
7,650,578.639875879162,1,0,125920.531828522,125921.578919641,9,1,92,4,0
7,651,453.088708032737,1,0,125923.261320689,125924.308410268,9,1,74,0,0
7,652,553.886116176727,1,0,125925.802609292,125926.849714655,9,1,61,0,0
7,653,441.005168424454,0,0,125928.614417276,125929.66156383,9,0,76,16,0
7,654,457.369473922881,0,0,125931.14390875,125932.190993326,9,0,85,8,0
7,655,529.71595726558,1,0,125933.720514057,125934.767540118,9,1,84,4,4
7,656,706.348364983569,0,0,125936.355820136,125937.4029101,9,0,100,4,16
7,657,452.535519129015,1,0,125939.261788801,125940.308876456,9,1,100,4,0
7,658,701.296137325699,0,0,125941.861869027,125942.908953602,9,0,61,16,0
7,659,462.343939449056,1,0,125944.720770056,125945.767856941,9,1,69,4,4
7,660,412.133481309866,1,0,125947.309081255,125948.356173915,9,1,68,4,0
7,661,584.925903414842,1,0,125949.862096154,125950.909186889,9,1,72,4,16
7,662,528.614198992727,1,0,125952.603356193,125953.650443848,9,1,88,16,8
7,663,472.787930339109,0,0,125955.20342718,125956.250515604,9,0,79,0,8
7,664,498.998382332502,1,0,125957.92115802,125958.96828802,9,1,65,4,16
7,665,620.507845058455,0,0,125960.662412284,125961.709497244,9,0,72,8,0
7,666,695.852789329365,0,0,125963.486027791,125964.533113906,9,0,91,16,4
7,667,488.965914730215,1,0,125966.344936904,125967.39201609,9,1,69,0,4
7,668,381.453247580794,0,0,125968.968537475,125970.015630519,9,0,65,8,8
7,669,520.849536405876,1,0,125971.439228087,125972.486288795,9,1,97,8,16
7,670,564.403634591145,0,0,125974.121632984,125975.16871525,9,0,97,4,4
7,671,742.805322879576,1,0,125976.898195483,125977.945271204,9,1,91,4,4
7,672,515.632545459084,1,0,125979.745327871,125980.792410521,9,1,76,16,16
7,673,460.48034344858,1,0,125982.498350392,125983.545429962,9,1,66,4,8
7,674,493.536171255982,0,0,125985.063142786,125986.110215427,9,0,63,8,16
7,675,554.43930508045,0,0,125987.804388581,125988.851468922,9,0,67,16,16
7,676,538.753300788812,1,0,125990.533872279,125991.580967633,9,1,84,8,16
7,677,671.953257988207,0,0,125993.192771845,125994.239923019,9,0,62,8,0
7,678,508.585065152147,0,0,125995.934037274,125996.981122234,9,0,87,16,8
7,679,494.013907809858,0,0,125998.604702786,125999.651785437,9,0,82,4,16
7,680,553.492301114602,0,0,126001.334195339,126002.381280684,9,0,61,0,4
7,681,437.465067429002,1,0,126004.040154072,126005.087238262,9,1,77,16,4
7,682,581.318819225999,1,0,126006.593162042,126007.640257396,9,1,79,4,4
7,683,659.903979903902,0,0,126009.369721076,126010.41681566,9,0,90,4,8
7,684,489.747000508942,0,1,126012.122754761,126013.169871288,9,1,82,8,8
7,685,701.377364079235,0,0,126014.805172362,126015.852263096,9,0,98,16,16
7,686,617.296500713564,1,0,126017.66407647,126018.711167205,9,1,70,8,16
7,687,471.137987653492,0,0,126020.511225796,126021.558313836,9,0,64,4,8
7,688,518.990559925442,1,0,126023.111297553,126024.158387132,9,1,76,0,16
7,689,585.441751114558,1,0,126025.876081401,126026.92317252,9,1,63,8,8
7,690,479.393475456163,0,0,126028.582042444,126029.629130869,9,0,77,4,16
7,691,642.678901698673,0,0,126031.111576649,126032.158685092,9,0,63,16,4
7,692,405.735815089429,0,0,126033.970437257,126035.017534536,9,0,76,8,16
7,693,498.992222957895,1,0,126036.582285355,126037.629364925,9,1,77,8,0
7,694,474.163010891061,1,0,126039.30000965,126040.347093455,9,1,78,16,0
7,695,652.869973215275,1,0,126041.841255907,126042.888342792,9,1,99,8,4
7,696,492.859024932841,0,0,126044.594283048,126045.641366083,9,0,64,8,4
7,697,680.850090750027,0,0,126047.288526265,126048.33555887,9,0,61,8,8
7,698,605.580983799882,0,0,126050.135624391,126051.182703576,9,0,72,0,0
7,699,424.532303935848,0,0,126052.888636133,126053.935721478,9,0,65,4,0
7,700,658.125845220638,0,0,126055.429891629,126056.476978899,9,0,71,16,4
7,701,692.681095970329,1,0,126058.26529926,126059.312360353,9,1,86,0,16
7,702,457.224728597794,0,0,126061.135941983,126062.183027713,9,0,66,4,0
7,703,552.206531501724,0,0,126063.747785846,126064.794870036,9,0,62,0,0
7,704,737.045921938261,1,0,126066.394920235,126067.442005195,9,1,71,16,16
7,705,694.110456024646,1,0,126069.347943449,126070.395029179,9,1,95,16,0
7,706,789.329394872766,1,0,126072.112730762,126073.159813028,9,1,89,16,8
7,707,504.795124492375,0,0,126074.995175618,126076.042257884,9,0,68,8,4
7,708,660.499899473507,1,0,126077.642302308,126078.689389963,9,1,92,0,16
7,709,512.728399975458,0,0,126080.454155718,126081.501239139,9,0,98,0,16
7,710,726.029109151568,0,0,126083.124816227,126084.171898492,9,0,75,8,8
7,711,619.18973873253,1,0,126085.983721105,126087.03080645,9,1,65,0,8
7,712,665.116736272466,0,0,126088.783805873,126089.830891988,9,0,77,0,8
7,713,636.785149385105,1,0,126091.536832629,126092.583915664,9,1,96,16,8
7,714,536.360383455758,0,0,126094.419259007,126095.466348202,9,0,84,0,4
7,715,519.514106839779,0,0,126097.184087511,126098.23113282,9,0,87,8,4
7,716,499.222044658381,1,0,126099.925308669,126100.972396708,9,1,66,0,8
7,717,665.328849761863,0,0,126102.631265863,126103.678360447,9,0,93,8,0
7,718,590.718795967405,0,0,126105.360826168,126106.407848764,9,0,88,16,8
7,719,758.444746868918,0,0,126108.090253277,126109.137340547,9,0,85,4,8
7,720,689.466671945411,1,0,126110.94916239,126111.996254279,9,1,88,16,16
