sub_id,Trial,RT,Resp,Error,Fix_onset,Disp_onset,block,tid,tloc,fish_setsize,bird_setsize
12,1,517.505286959931,1,0,566682.957190459,566684.004238463,1,1,96,8,16
12,2,542.147792992182,0,0,566685.557221795,566686.604313684,1,0,81,0,8
12,3,463.646553689614,0,0,566688.333817016,566689.380856935,1,0,78,4,8
12,4,609.070561360568,1,0,566690.863254595,566691.910329546,1,1,68,16,4
12,5,590.647484525107,0,0,566693.69862912,566694.745716775,1,0,97,0,16
12,6,413.505773525685,1,0,566696.392820752,566697.439909562,1,1,76,16,4
12,7,356.456098961644,0,0,566698.898780718,566699.945859133,1,0,87,4,8
12,8,623.2544479426,1,0,566701.334140768,566702.381231117,1,1,92,0,0
12,9,558.991374797188,0,0,566704.075393877,566705.122524648,1,0,95,8,8
12,10,555.345794535242,1,0,566706.746067474,566707.793145505,1,1,80,16,8
12,11,369.362685014494,0,1,566709.510844008,566710.557933973,1,1,84,16,16
12,12,543.017419753596,1,0,566711.993260916,566713.040351651,1,1,68,0,0
12,13,509.08003130462,1,0,566714.710977513,566715.758094809,1,1,78,4,0
12,14,566.393789136782,0,0,566717.475771755,566718.522863644,1,0,62,4,4
12,15,546.423554304056,1,0,566720.275852674,566721.322939944,1,1,86,8,16
12,16,694.840633426793,1,0,566723.064163796,566724.111320744,1,1,100,4,16
12,17,478.298937901855,0,0,566725.993662431,566727.040748546,1,0,86,8,16
12,18,589.587302063592,1,0,566728.605500519,566729.652585479,1,1,83,4,8
12,19,686.496219481342,1,0,566731.299694076,566732.346783271,1,1,89,0,8
12,20,565.631951438263,1,0,566734.217429458,566735.264512879,1,1,66,8,8
12,21,424.8625067994,1,0,566736.935198794,566737.982245258,1,1,74,8,4
12,22,568.559194449335,0,0,566739.476402321,566740.523482277,1,0,71,0,4
12,23,611.603219411336,0,0,566742.27648247,566743.32356743,1,0,100,8,4
12,24,474.025101284496,1,0,566745.053025336,566746.100122999,1,1,83,4,0
12,25,615.430116304196,1,0,566747.629570973,566748.676664402,1,1,71,0,4
12,26,592.467579990625,0,0,566750.441421688,566751.488504724,1,0,76,4,8
12,27,544.293180340901,1,0,566753.135610626,566754.182698665,1,1,67,8,4
12,28,802.931126905605,1,0,566755.829803028,566756.876892607,1,1,94,16,0
12,29,462.275707744993,1,0,566758.747537255,566759.794626835,1,1,66,0,4
12,30,632.638641283847,1,0,566761.42997141,566762.477095636,1,1,71,4,4
12,31,515.231707482599,1,0,566764.253575368,566765.300661868,1,1,61,4,4
12,32,689.125117962249,0,0,566766.865410762,566767.912497262,1,0,99,16,4
12,33,588.798517012037,0,0,566769.794914786,566770.841990892,1,0,62,8,0
12,34,563.784908619709,1,0,566772.500870055,566773.54795771,1,1,94,8,0
12,35,358.923698659055,0,0,566775.31271461,566776.359814969,1,0,74,8,4
12,36,474.645273410715,0,0,566777.759851771,566778.806928262,1,0,75,16,16
12,37,433.830172405578,0,0,566780.418787139,566781.465836682,1,0,95,4,16
12,38,499.187304521911,0,0,566782.936459926,566783.983546426,1,0,71,0,16
12,39,445.386315463111,0,0,566785.501254246,566786.548321883,1,0,65,16,16
12,40,577.019096584991,1,0,566788.089551971,566789.136683897,1,1,98,8,4
12,41,546.98944685515,0,0,566790.854330045,566791.901421935,1,0,68,4,16
12,42,457.687743008137,1,0,566793.642648097,566794.689734212,1,1,97,0,8
12,43,499.589973594993,0,0,566796.242721008,566797.289805199,1,0,64,4,4
12,44,663.663030019961,0,0,566798.948678202,566799.995771632,1,0,70,16,8
12,45,536.572018405423,1,0,566801.854718086,566802.901731443,1,1,94,0,16
12,46,553.757445653901,1,0,566804.619433026,566805.66652761,1,1,98,0,8
12,47,458.97659228649,0,0,566807.337217761,566808.384247671,1,0,66,0,4
12,48,636.992164654657,0,0,566810.04311798,566811.090199861,1,0,91,16,0
12,49,433.283912832849,1,0,566812.760836501,566813.807927236,1,1,83,0,16
12,50,655.866415705532,0,0,566815.443264496,566816.490357926,1,0,68,8,16
12,51,577.544953324832,0,0,566818.184527615,566819.231606801,1,0,98,4,8
12,52,646.526877768338,1,0,566820.878740805,566821.925805747,1,1,81,8,8
12,53,634.782873792574,0,0,566823.596470875,566824.643528503,1,0,94,16,8
12,54,563.312176615,0,0,566826.32593571,566827.373024904,1,0,78,16,0
12,55,458.532732329331,0,0,566829.102484735,566830.14957162,1,0,63,8,8
12,56,628.98882641457,0,0,566831.679029987,566832.726118412,1,0,79,16,8
12,57,374.593919492327,0,0,566834.467367287,566835.514428765,1,0,74,8,8
12,58,760.00913453754,1,0,566836.890935598,566837.938029797,1,1,79,16,16
12,59,598.292809328996,1,0,566839.855732458,566840.902814338,1,1,72,16,8
12,60,917.770371073857,0,0,566842.632288028,566843.679372218,1,0,70,0,0
12,61,619.168087374419,0,0,566845.808845753,566846.855931098,1,0,95,4,16
12,62,595.313981408253,0,0,566848.679510034,566849.726598843,1,0,69,16,16
12,63,377.352934796363,0,0,566851.491360749,566852.538447634,1,0,83,0,0
12,64,591.356582706794,0,0,566854.044376033,566855.091453679,1,0,92,4,4
12,65,542.316020815633,0,0,566856.844450407,566857.891541527,1,0,73,16,4
12,66,632.806869223714,1,0,566859.51511669,566860.56220319,1,1,68,16,0
12,67,573.012807872146,1,0,566862.232842525,566863.279965597,1,1,95,16,0
12,68,545.389549224637,1,0,566864.91527668,566865.962355095,1,1,77,4,0
12,69,470.25710332673,1,0,566867.668285342,566868.715382236,1,1,66,16,4
12,70,871.527705574408,1,0,566870.386015797,566871.433104607,1,1,98,8,0
12,71,502.929124981165,0,0,566873.362568595,566874.40965625,1,0,85,4,16
12,72,608.30063931644,1,0,566876.033234108,566877.080317913,1,1,80,8,0
12,73,374.074607156217,0,0,566878.774495301,566879.821576412,1,0,65,4,0
12,74,374.806418083608,1,1,566881.221624378,566882.268760538,1,0,89,0,0
12,75,607.511469395831,1,0,566883.656980963,566884.704070543,1,1,97,0,8
12,76,597.00973436702,1,0,566886.480594931,566887.527722237,1,1,68,0,4
12,77,507.132898783311,0,0,566889.292422933,566890.339515978,1,0,63,8,0
12,78,517.024085624143,1,0,566891.939570796,566892.986661531,1,1,73,4,0
12,79,584.113542223349,0,0,566894.610279809,566895.657326273,1,0,85,0,16
12,80,781.699375016615,1,0,566897.292688941,566898.339750804,1,1,81,8,16
12,81,553.969174157828,1,0,566910.481276312,566911.528366661,2,1,67,8,8
12,82,504.014330101199,1,0,566913.187236585,566914.234322315,2,1,93,0,0
12,83,398.106950102374,0,0,566915.740251869,566916.787346453,2,0,95,4,4
12,84,444.63525665924,1,0,566918.328554599,566919.375648028,2,1,98,8,16
12,85,511.787461698987,0,0,566920.893394729,566921.940491238,2,0,97,4,8
12,86,649.156161234714,1,0,566923.469884932,566924.516971432,2,1,73,4,4
12,87,542.362601147033,0,0,566926.187607688,566927.234696497,2,0,82,4,16
12,88,489.280334208161,0,0,566928.881809329,566929.928890439,2,0,85,16,4
12,89,520.26045252569,0,0,566931.54070235,566932.5877927,2,0,82,4,0
12,90,730.414875783026,1,0,566934.199604226,566935.246693806,2,1,62,0,8
12,91,513.756922096945,1,0,566937.176165108,566938.223251993,2,1,97,0,8
12,92,631.636202917434,1,0,566939.870357895,566940.91744555,2,1,91,8,16
12,93,462.402744800784,1,0,566942.670448053,566943.717516845,2,1,75,0,0
12,94,455.342175788246,1,0,566945.223446783,566946.270535208,2,1,79,8,0
12,95,414.627164718695,1,0,566947.788225704,566948.835310664,2,1,89,0,0
12,96,532.920278608799,1,0,566950.400116532,566951.447154912,2,1,73,0,8
12,97,657.16527402401,1,0,566953.12955673,566954.17664015,2,1,70,8,4
12,98,465.170614188537,0,0,566955.882565777,566956.929670755,2,0,66,8,0
12,99,710.698715178296,1,0,566958.459123348,566959.506212543,2,1,81,16,0
12,100,542.440748191439,0,0,566961.400380615,566962.447461341,2,0,72,4,4
12,101,720.240357564762,0,0,566964.141638344,566965.18872138,2,0,78,4,4
12,102,482.990457094274,1,0,566967.035836829,566968.082935647,2,1,73,16,8
12,103,449.912686483003,0,0,566969.741799797,566970.788887452,2,0,66,0,16
12,104,435.863921185955,1,0,566972.247739745,566973.294865896,2,1,64,0,4
12,105,675.203004735522,1,0,566974.812532139,566975.859618639,2,1,80,8,16
12,106,499.766670749523,1,0,566977.659699173,566978.706831098,2,1,69,4,0
12,107,437.433407059871,1,0,566980.34210638,566981.38918903,2,1,78,0,8
12,108,518.386462586932,0,0,566983.036298012,566984.083387207,2,0,71,4,16
12,109,597.892834804952,0,0,566985.730499268,566986.777580378,2,0,86,16,0
12,110,506.025751121342,0,0,566988.542401183,566989.589432633,2,0,81,0,4
12,111,501.721117529087,0,0,566991.118880607,566992.165976731,2,0,64,16,8
12,112,635.647111106664,0,0,566993.683672617,566994.730748338,2,0,96,16,4
12,113,541.651963139884,0,0,566996.377852315,566997.424944589,2,0,71,8,8
12,114,689.892345224507,1,0,566999.095622421,567000.142724704,2,1,65,8,16
12,115,620.784923317842,0,0,567001.907430405,567002.9545708,2,0,96,0,0
12,116,598.359407507814,0,0,567004.731038598,567005.778127408,2,0,86,8,8
12,117,739.89145969972,0,0,567007.413469673,567008.460565797,2,0,99,16,0
12,118,423.562362557277,0,0,567010.41359363,567011.495742506,2,0,88,4,8
12,119,541.427915915847,0,0,567013.060690678,567014.107775638,2,0,64,0,16
12,120,556.281634606421,0,0,567015.696062585,567016.74315024,2,0,79,16,8
12,121,851.39193746727,1,0,567018.366730408,567019.413813443,2,1,81,8,0
12,122,563.739483361132,0,0,567021.390341218,567022.437425794,2,0,91,16,0
12,123,533.595885150135,1,0,567024.178665044,567025.225747695,2,1,95,8,8
12,124,573.509022593498,1,0,567026.778756434,567027.82583639,2,1,66,16,16
12,125,533.67403219454,0,0,567029.602352693,567030.649429569,2,0,72,4,16
12,126,849.658458260819,1,0,567032.355402931,567033.40245594,2,1,87,4,8
12,127,477.239525294863,0,1,567035.331924932,567036.379006043,2,1,91,4,0
12,128,561.755009461194,0,0,567037.979060091,567039.026212035,2,0,92,4,16
12,129,699.167594546452,0,0,567040.790904262,567041.837992687,2,0,78,4,0
12,130,498.860087711364,0,0,567043.579230398,567044.626303424,2,0,77,16,16
12,131,768.350468715653,1,0,567046.27341972,567047.320498521,2,1,91,8,0
12,132,697.780580143444,1,0,567049.297028991,567050.344117801,2,1,90,0,8
12,133,545.582029619254,0,0,567052.132406596,567053.179491941,2,0,100,16,4
12,134,462.139816489071,0,0,567054.873666249,567055.92074736,2,0,85,0,0
12,135,592.85215602722,0,0,567057.556099634,567058.603174585,2,0,82,0,16
12,136,738.905574660748,1,0,567060.273822005,567061.32090889,2,1,75,8,16
12,137,473.699809284881,1,0,567063.215080427,567064.262164617,2,1,63,0,4
12,138,929.924743482843,1,0,567065.885747479,567066.932838599,2,1,63,4,0
12,139,721.149250399321,0,0,567068.944656515,567069.991743015,2,0,91,16,0
12,140,623.618235928006,0,0,567071.885924561,567072.933006827,2,0,84,8,8
12,141,790.695527684875,1,0,567074.744867936,567075.791922484,2,1,99,16,16
12,142,760.676271980628,1,0,567077.65084815,567078.697942734,2,1,78,16,8
12,143,452.854173141532,0,0,567080.462632267,567081.509790755,2,0,65,8,4
12,144,430.314708966762,1,0,567083.027412728,567084.074500383,2,1,65,0,16
12,145,720.181458513252,1,0,567085.627534915,567086.674590618,2,1,92,8,4
12,146,545.209772419184,0,0,567088.498165319,567089.545254514,2,0,65,4,16
12,147,590.157814207487,1,0,567091.145290469,567092.192397757,2,1,85,16,16
12,148,515.159719856456,0,0,567093.992438255,567095.039528219,2,0,94,0,4
12,149,643.474522395991,0,0,567096.721930037,567097.769017307,2,0,79,8,4
12,150,710.940855671652,1,0,567099.545608293,567100.592628579,2,1,76,16,4
12,151,552.574845496565,0,0,567102.439741719,567103.486829759,2,0,74,16,16
12,152,615.050159976818,1,0,567105.063353068,567106.110439183,2,1,61,8,4
12,153,631.723974016495,0,0,567107.863433217,567108.910523182,2,0,88,0,16
12,154,572.536226129159,0,0,567110.651742415,567111.698832764,2,0,62,0,4
12,155,618.845874909312,1,0,567113.322476451,567114.369507131,2,1,76,8,0
12,156,544.53609068878,1,0,567116.169620002,567117.216636054,2,1,71,16,8
12,157,444.306500023231,0,0,567118.910811518,567119.957899172,2,0,74,4,4
12,158,938.951308024116,1,0,567121.440294523,567122.487388722,2,1,99,4,8
12,159,519.008559524082,0,0,567124.605082836,567125.652175111,2,0,91,16,4
12,160,519.781561102718,1,0,567127.240461288,567128.287547788,2,1,100,4,8
12,161,659.717950155027,1,0,567135.758353503,567136.805443468,3,1,82,8,16
12,162,444.78462159168,0,0,567138.523139661,567139.57023386,3,0,75,4,16
12,163,535.952231148258,0,0,567141.087920122,567142.135012781,3,0,77,16,0
12,164,424.228861113079,0,0,567143.69976206,567144.746852795,3,0,76,0,8
12,165,400.107977213338,0,0,567146.193950689,567147.241042964,3,0,75,0,4
12,166,569.090055767447,1,0,567148.75873192,567149.805820345,3,1,85,8,4
12,167,446.272495668381,1,0,567151.570573781,567152.617666055,3,1,82,4,8
12,168,533.833791036159,0,0,567154.147130197,567155.194211693,3,0,81,0,0
12,169,374.175851931795,0,0,567156.923673063,567157.970762258,3,0,74,0,0
12,170,629.391880589537,0,0,567159.441395896,567160.488487015,3,0,88,0,0
12,171,451.066799461842,0,0,567162.323836518,567163.370925712,3,0,76,8,16
12,172,575.351830688305,0,0,567164.947442093,567165.994523588,3,0,61,16,8
12,173,526.113398955204,0,0,567167.688689043,567168.735778238,3,0,72,4,16
12,174,550.87793758139,0,0,567170.335828822,567171.38292456,3,0,69,0,8
12,175,470.125446678139,0,0,567173.006493949,567174.0535766,3,0,72,4,4
12,176,614.078518352471,0,0,567175.606564936,567176.653660675,3,0,100,16,16
12,177,497.433807351626,0,0,567178.336059798,567179.383139369,3,0,80,16,0
12,178,592.636962770484,1,0,567181.042050099,567182.089108496,3,1,79,0,8
12,179,518.408020376228,1,0,567183.783275106,567184.830364686,3,1,96,0,4
12,180,493.945291033015,1,0,567186.524525136,567187.57161972,3,1,99,8,4
12,181,494.343340746127,1,0,567189.089311371,567190.136402105,3,1,83,0,16
12,182,466.488335514441,1,0,567191.654094526,567192.701177177,3,1,61,0,4
12,183,654.45206919685,0,0,567194.360059804,567195.407142455,3,0,95,4,8
12,184,627.31424625963,0,0,567197.113076166,567198.160162281,3,0,88,0,16
12,185,513.835838995874,1,0,567199.936752882,567200.983773553,3,1,95,8,8
12,186,446.019961265847,1,0,567202.607353721,567203.654435987,3,1,95,4,0
12,187,510.147143155336,1,0,567205.125109276,567206.172165749,3,1,71,16,4
12,188,801.905205938965,0,0,567207.866331973,567208.913420398,3,0,97,8,4
12,189,480.095165665261,0,0,567210.784057347,567211.831154626,3,0,84,0,8
12,190,458.734451793134,1,0,567213.419438108,567214.466527302,3,1,93,0,16
12,191,556.935298372991,1,0,567216.125518489,567217.17249797,3,1,64,16,4
12,192,520.778995007277,1,0,567218.784292173,567219.831426023,3,1,61,4,0
12,193,565.732811111957,0,0,567221.431464288,567222.478520761,3,0,82,16,4
12,194,632.813028525561,1,0,567224.196220419,567225.243367358,3,1,68,16,16
12,195,541.275086463429,0,0,567226.97275982,567228.019857099,3,0,86,8,0
12,196,474.561351817101,1,0,567229.737554832,567230.784644027,3,1,96,4,4
12,197,323.099231696688,0,0,567232.37297101,567233.420028253,3,0,85,0,16
12,198,401.638966868632,0,0,567234.902416674,567235.949497014,3,0,85,8,8
12,199,461.083483649418,1,0,567237.384836662,567238.431922392,3,1,95,0,8
12,200,510.360026499256,1,0,567240.043753551,567241.090837356,3,1,77,4,0
12,201,411.416205461137,0,0,567242.761462063,567243.808547023,3,0,77,8,16
12,202,633.847418590449,1,0,567245.326250608,567246.373333258,3,1,94,8,8
12,203,442.469081375748,1,0,567248.161623208,567249.208709323,3,1,94,4,0
12,204,522.977506974712,1,0,567250.79699088,567251.844127425,3,1,75,16,8
12,205,456.447783741169,1,0,567253.479428114,567254.526509225,3,1,84,8,16
12,206,569.091980578378,1,0,567256.114794247,567257.161877282,3,1,79,4,8
12,207,474.012397462502,0,0,567258.867812533,567259.914907502,3,0,73,16,0
12,208,479.540821979754,1,0,567261.444360095,567262.491451215,3,1,81,0,0
12,209,572.639395715669,0,0,567264.162099789,567265.209184365,3,0,98,8,0
12,210,396.745728095993,0,0,567266.915114996,567267.962193027,3,0,76,0,16
12,211,527.225551079027,0,0,567269.397534984,567270.444615324,3,0,93,16,16
12,212,424.405558151193,1,0,567272.05643609,567273.10351951,3,1,83,8,0
12,213,707.622492103837,1,0,567274.538901118,567275.586001092,3,1,70,4,0
12,214,393.311876337975,0,0,567277.362474664,567278.409565784,3,0,64,16,0
12,215,411.464325617999,0,0,567279.986072155,567281.033164815,3,0,76,0,4
12,216,596.997030661441,0,0,567282.621447527,567283.668531717,3,0,80,16,0
12,217,827.262199483812,1,0,567285.280349018,567286.327433978,3,1,91,4,4
12,218,427.771271788515,0,0,567288.256896041,567289.303983311,3,0,84,16,16
12,219,515.76256856788,0,0,567290.821761963,567291.86877994,3,0,87,0,4
12,220,618.998319492675,0,0,567293.492348174,567294.539437369,3,0,93,0,0
12,221,694.004883058369,1,0,567296.198313837,567297.245399567,3,1,68,16,4
12,222,716.251777019352,0,0,567299.116044985,567300.16312956,3,0,100,8,0
12,223,647.394579835236,1,0,567301.927890696,567302.97498066,3,1,88,4,4
12,224,1306.73184641637,1,0,567304.798597322,567305.845715389,3,1,65,4,4
12,225,582.731147296727,1,0,567308.351615301,567309.398699491,3,1,88,16,8
12,226,554.170508752577,0,0,567311.03404445,567312.081125176,3,0,75,8,16
12,227,489.961715065874,1,0,567313.822355573,567314.869447077,3,1,73,8,8
12,228,685.041452059522,0,0,567316.387138343,567317.434222918,3,0,69,4,16
12,229,566.12778105773,1,0,567319.246037062,567320.293134726,3,1,81,16,16
12,230,649.23892787192,1,0,567321.95200773,567322.99909115,3,1,80,8,4
12,231,823.304800782353,1,0,567324.657969158,567325.705056043,3,1,99,16,8
12,232,541.276241303422,1,0,567327.716869725,567328.763968929,3,1,71,4,8
12,233,508.584971539676,1,0,567330.481667047,567331.528749312,3,1,77,4,16
12,234,500.079644145444,0,1,567333.222925931,567334.269998187,3,1,61,4,8
12,235,543.427018099464,0,0,567335.893580665,567336.940671014,3,0,84,8,0
12,236,629.685990628786,0,0,567338.658385301,567339.705449858,3,0,69,16,4
12,237,574.860620428808,0,0,567341.529045347,567342.57620191,3,0,77,8,8
12,238,624.773118877783,1,0,567344.223251608,567345.270329254,3,1,90,8,4
12,239,980.90627847705,1,0,567346.988029682,567348.035118107,3,1,63,16,8
12,240,458.732527098618,0,0,567350.129295341,567351.176385306,3,0,64,4,16
12,241,430.174198118038,1,1,567376.200644391,567377.247728966,4,0,97,8,4
12,242,512.340650660917,1,0,567378.871308748,567379.918394479,4,1,88,4,0
12,243,619.707032572478,1,0,567381.447863625,567382.494944736,4,1,89,8,4
12,244,685.401390539482,1,0,567384.142049868,567385.189135598,4,1,70,16,4
12,245,666.447837720625,1,0,567386.895078933,567387.942167358,4,1,82,4,8
12,246,688.789817038924,0,0,567389.671628728,567390.718751799,4,0,99,16,0
12,247,593.863448360935,0,0,567392.577594314,567393.62471777,4,0,69,8,8
12,248,576.946723973379,0,0,567395.330738868,567396.377710649,4,0,85,16,0
12,249,642.664949526079,0,0,567398.118933732,567399.166015997,4,0,100,16,4
12,250,599.786072853021,0,0,567400.930770203,567401.977865558,4,0,93,8,8
12,251,397.821694030426,0,0,567403.648506818,567404.695606406,4,0,93,16,0
12,252,596.005371189676,1,0,567406.107397992,567407.154488726,4,1,83,8,16
12,253,546.77656351123,0,0,567408.95456541,567410.001636127,4,0,87,0,4
12,254,563.015371677466,0,0,567411.566385021,567412.613521951,4,0,81,4,8
12,255,695.876178331673,1,0,567414.260629777,567415.307664693,4,1,100,16,8
12,256,551.345280255191,0,0,567417.096003532,567418.143041527,4,0,84,16,8
12,257,667.765559046529,1,0,567419.872569881,567420.919591707,4,1,91,4,0
12,258,592.774393968284,1,0,567422.684400963,567423.731453201,4,1,66,0,16
12,259,732.467102701776,1,0,567425.413850014,567426.460930355,4,1,81,16,8
12,260,538.15266804304,1,0,567428.213919384,567429.26100165,4,1,62,4,4
12,261,482.781423255801,1,0,567430.990481883,567432.037564533,4,1,65,8,4
12,262,573.204133426771,0,0,567433.578789233,567434.625879198,4,0,61,8,16
12,263,547.474497696385,1,0,567436.296519303,567437.343605803,4,1,78,8,0
12,264,442.216546973214,0,0,567438.990732493,567440.037793585,4,0,86,0,16
12,265,543.451270787045,1,0,567441.508437232,567442.555522962,4,1,62,16,16
12,266,651.290769688785,1,0,567444.155563152,567445.202655812,4,1,98,4,16
12,267,467.516566277482,1,0,567447.061537207,567448.108622937,4,1,78,4,16
12,268,426.381562836468,0,0,567449.708671212,567450.755756942,4,0,65,8,16
12,269,466.34436014574,0,0,567452.261688805,567453.308777615,4,0,75,16,4
12,270,769.648557063192,1,0,567454.838233673,567455.885324022,4,1,67,4,8
12,271,524.705981602892,0,0,567457.697199375,567458.74423121,4,0,74,0,8
12,272,460.399023140781,1,0,567460.285450135,567461.332535865,4,1,75,8,0
12,273,692.565514123999,1,0,567463.003174431,567464.050264396,4,1,78,0,8
12,274,561.673397780396,0,0,567465.756201571,567466.803286532,4,0,82,4,0
12,275,585.232238634489,0,0,567468.544508459,567469.591591495,4,0,82,0,8
12,276,566.364532103762,1,0,567471.20341534,567472.250510309,4,1,92,16,16
12,277,583.529171417467,1,0,567474.015252966,567475.062366028,4,1,81,16,4
12,278,463.199229096062,0,0,567476.662401599,567477.709486559,4,0,63,0,0
12,279,740.674855303951,0,0,567479.191886529,567480.238982653,4,0,70,8,4
12,280,723.740422632545,1,0,567482.003732239,567483.050829518,4,1,85,4,16
12,281,718.620056868531,0,0,567484.850933535,567485.897961136,4,0,70,16,0
12,282,689.898889511824,1,0,567487.721538532,567488.768632346,4,1,98,8,0
12,283,597.863577771932,0,0,567490.615756264,567491.662873176,4,0,70,16,8
12,284,635.209410567768,1,0,567493.298183104,567494.345262675,4,1,79,0,4
12,285,475.086438586004,0,0,567496.086496921,567497.133588041,4,0,96,8,16
12,286,465.440471773036,0,0,567498.768925301,567499.816010261,4,0,83,0,0
12,287,677.071605343372,1,0,567501.4043307,567502.451388713,4,1,93,4,16
12,288,447.682222584262,1,0,567504.239736406,567505.286758618,4,1,66,0,0
12,289,703.039531945251,1,0,567506.75739649,567507.804476831,4,1,87,16,4
12,290,670.378289069049,1,0,567509.628066931,567510.675151891,4,1,69,4,0
12,291,484.832880203612,1,0,567512.55756441,567513.604654375,4,1,64,0,0
12,292,480.439320788719,0,0,567515.251761047,567516.298844467,4,0,72,4,0
12,293,424.871745868586,1,0,567517.781270999,567518.82835288,4,1,64,4,16
12,294,520.7354943268,0,0,567520.369585663,567521.416645216,4,0,94,0,16
12,295,595.568055519834,1,0,567523.01669195,567524.06377999,4,1,83,0,4
12,296,730.446057626978,0,0,567525.710888202,567526.757977396,4,0,97,8,0
12,297,543.273803777993,0,0,567528.51097451,567529.558056005,4,0,73,8,4
12,298,589.189637452364,0,0,567531.263995106,567532.31108892,4,0,88,8,8
12,299,667.638906859793,0,0,567534.087604454,567535.134689029,4,0,90,0,16
12,300,589.489137055352,1,0,567536.84062967,567537.88771232,4,1,90,0,16
12,301,701.390744070522,1,0,567539.593680678,567540.640732531,4,1,70,4,4
12,302,834.965653251857,1,0,567542.476082033,567543.523175848,4,1,81,4,4
12,303,559.091079630889,1,0,567545.535001848,567546.582084884,4,1,70,4,8
12,304,539.068490150385,0,0,567548.346886055,567549.393944453,4,0,96,16,8
12,305,976.771797752008,1,0,567551.088104518,567552.135196408,4,1,83,16,16
12,306,431.793343974277,0,0,567554.288200296,567555.335281792,4,0,84,0,4
12,307,391.491396003403,0,0,567556.782383536,567557.829474271,4,0,74,0,4
12,308,503.723299480043,0,0,567559.405992576,567560.453085236,4,0,65,0,0
12,309,548.00343408715,0,0,567562.017831435,567563.064918704,4,0,69,8,8
12,310,486.418534419499,0,0,567564.747308203,567565.794417416,4,0,96,0,8
12,311,598.489524330944,1,0,567567.347397668,567568.394485323,4,1,94,16,16
12,312,495.510927401483,1,0,567570.053353707,567571.100447906,4,1,92,8,16
12,313,490.229647955857,0,0,567572.653435473,567573.700525823,4,0,86,4,4
12,314,833.931648056023,1,0,567575.335914668,567576.383020801,4,1,99,0,8
12,315,654.57679645624,1,0,567578.277134979,567579.324216474,4,1,91,8,8
12,316,896.03970979806,0,0,567581.112516433,567582.159609862,4,0,71,8,0
12,317,862.662824452855,0,0,567584.100832867,567585.147954014,4,0,88,16,0
12,318,571.879097842611,0,0,567587.018567865,567588.065650515,4,0,97,16,16
12,319,666.363531257957,1,0,567589.748104688,567590.795143452,4,1,72,4,8
12,320,623.916195705533,0,0,567592.524597893,567593.571694787,4,0,94,4,4
12,321,631.47182459943,1,0,567613.842867833,567614.889970886,5,1,81,4,4
12,322,453.714560950175,1,0,567616.654722397,567617.701805818,5,1,89,16,4
12,323,600.314239156432,0,0,567619.301865256,567620.348941747,5,0,68,4,0
12,324,457.254276960157,1,0,567622.101942325,567623.149028055,5,1,75,16,16
12,325,586.692780605517,0,0,567624.631436109,567625.67850952,5,0,80,16,4
12,326,377.253614948131,1,0,567627.455042377,567628.502128107,5,1,75,4,4
12,327,446.433024248108,0,0,567629.972751351,567631.01984709,5,0,85,4,16
12,328,445.511427824385,1,0,567632.490467255,567633.537559144,5,1,65,4,4
12,329,602.780299144797,1,0,567635.102321127,567636.149405317,5,1,62,0,8
12,330,591.591023956425,1,0,567637.796514298,567638.843597334,5,1,92,16,0
12,331,603.19028259255,0,0,567640.478942678,567641.526040342,5,0,70,8,4
12,332,772.724780137651,0,0,567643.161372983,567644.208462948,5,0,63,8,16
12,333,499.559561838396,1,0,567646.055578012,567647.102664127,5,1,75,0,4
12,334,603.698816034012,0,1,567648.72633399,567649.773329255,5,1,88,16,8
12,335,608.555868500844,0,0,567651.479261811,567652.52635524,5,0,78,0,0
12,336,452.965426957235,1,0,567654.302866539,567655.349971902,5,1,93,0,0
12,337,422.440332360566,0,0,567656.926490977,567657.973572858,5,0,65,16,16
12,338,444.97286749538,1,0,567659.455971673,567660.503072031,5,1,84,0,8
12,339,553.511455538683,1,0,567662.044282487,567663.091367832,5,1,77,4,0
12,340,659.868854796514,0,0,567664.762039119,567665.809099827,5,0,79,0,0
12,341,673.159247031435,0,0,567667.491498565,567668.538587375,5,0,80,16,4
12,342,451.924877474085,1,0,567670.326877709,567671.373977298,5,1,84,16,8
12,343,667.456820257939,1,0,567672.903423732,567673.950504842,5,1,70,0,0
12,344,479.382987949066,1,0,567675.656438553,567676.703527363,5,1,93,16,8
12,345,551.868057111278,1,0,567678.244779395,567679.291907471,5,1,77,0,16
12,346,733.452987624332,1,0,567680.974249234,567682.02132996,5,1,87,0,0
12,347,575.149341253564,0,0,567683.809626069,567684.856699095,5,0,92,8,16
12,348,595.366721041501,1,0,567686.586178559,567687.633265828,5,1,100,16,0
12,349,548.101214226335,0,0,567689.421556163,567690.468639968,5,0,93,4,0
12,350,613.595007453114,0,0,567692.151039861,567693.19813252,5,0,63,16,4
12,351,464.112356421538,0,0,567694.83347286,567695.880568984,5,0,81,0,4
12,352,617.848825990222,1,0,567697.374731051,567698.421825636,5,1,100,0,4
12,353,661.015268531628,0,0,567700.139502196,567701.186663378,5,0,97,4,0
12,354,461.771793896332,0,0,567702.880783023,567703.927858359,5,0,77,4,8
12,355,641.729494440369,1,0,567705.480889426,567706.527927806,5,1,100,8,8
12,356,637.30667787604,1,0,567708.222092875,567709.269189769,5,1,64,4,8
12,357,519.681856269017,1,0,567710.939863751,567711.986934853,5,1,66,4,8
12,358,545.784904039465,1,0,567713.716384674,567714.763527379,5,1,94,16,0
12,359,410.077311214991,1,0,567716.481150814,567717.528264262,5,1,83,8,0
12,360,773.43041356653,0,0,567719.057709541,567720.104796425,5,0,64,16,16
12,361,559.285100083798,1,0,567722.04603406,567723.093124794,5,1,75,0,16
12,362,650.304499780759,0,0,567724.85788285,567725.904969735,5,0,70,8,8
12,363,573.588709463365,1,0,567727.72855637,567728.77564441,5,1,100,16,16
12,364,490.860213991255,1,0,567730.54040593,567731.587501669,5,1,94,4,4
12,365,628.290507127531,1,0,567733.116949643,567734.164036528,5,1,95,8,4
12,366,722.235610242933,0,0,567735.975855291,567737.022935632,5,0,99,8,0
12,367,399.539389880374,0,0,567738.893584515,567739.940667935,5,0,85,0,16
12,368,676.798667875119,1,0,567741.411313122,567742.458395387,5,1,78,8,8
12,369,558.089411235414,0,0,567744.32903734,567745.376121145,5,0,83,4,8
12,370,483.118264121003,1,0,567746.987974632,567748.035034955,5,1,93,0,8
12,371,565.758218523115,1,0,567749.72919733,567750.776306543,5,1,78,8,0
12,372,495.34847389441,0,0,567752.411652272,567753.458717599,5,0,87,8,16
12,373,516.694174148142,0,0,567755.141151754,567756.188211691,5,0,93,16,8
12,374,588.450512383133,0,0,567757.882368292,567758.929461336,5,0,64,16,0
12,375,603.365439805202,1,0,567760.623631025,567761.670716371,5,1,98,0,4
12,376,404.731743270531,0,0,567763.447229209,567764.494328413,5,0,75,0,8
12,377,509.217847255059,1,0,567765.988497794,567767.035585449,5,1,93,4,16
12,378,532.490662299097,1,0,567768.64739736,567769.694479241,5,1,65,0,8
12,379,586.931841447949,0,0,567771.282771192,567772.329856922,5,0,80,0,16
12,380,833.083579083905,1,0,567774.04755504,567775.09464154,5,1,96,8,16
12,381,720.246516866609,1,0,567777.000581719,567778.047668219,5,1,81,8,8
12,382,510.997906909324,1,0,567779.894780203,567780.941882102,5,1,85,4,16
12,383,453.884713584557,0,0,567782.541941925,567783.589007637,5,0,74,16,16
12,384,545.36606662441,0,0,567785.224337583,567786.271439481,5,0,64,8,4
12,385,789.786634850316,0,0,567788.00096745,567789.047984657,5,0,63,16,0
12,386,469.156114966609,0,0,567791.024520901,567792.071606246,5,0,71,4,0
12,387,750.295799574815,1,0,567793.695181409,567794.742269064,5,1,95,16,4
12,388,670.577313867398,1,0,567796.518804231,567797.565882647,5,1,69,8,4
12,389,641.926209325902,0,0,567799.389491225,567800.436560401,5,0,89,4,8
12,390,536.137397401035,0,0,567802.201318072,567803.248403032,5,0,68,4,4
12,391,476.400695275515,1,0,567804.966099996,567806.01319073,5,1,63,16,8
12,392,723.793162149377,0,0,567807.589709805,567808.636794381,5,0,100,0,16
12,393,557.306015747599,0,0,567810.472139263,567811.519236542,5,0,95,4,16
12,394,489.420844940469,0,0,567813.131047298,567814.178136493,5,0,66,8,16
12,395,529.546865844168,0,0,567815.754639785,567816.801740913,5,0,79,8,4
12,396,590.450769523159,0,0,567818.448858749,567819.49593293,5,0,91,8,0
12,397,732.453244039789,0,0,567821.260695221,567822.307778256,5,0,78,8,0
12,398,374.11271838937,0,0,567824.096072055,567825.14316356,5,0,86,4,16
12,399,531.929004238918,0,0,567826.590311499,567827.637372592,5,0,65,0,4
12,400,532.323589199223,0,0,567829.366812404,567830.413911223,5,0,71,8,8
12,401,759.34584683273,1,0,567865.085491403,567866.132601386,6,1,85,16,8
12,402,404.877258581109,1,0,567867.967941649,567869.015029304,6,1,64,0,16
12,403,422.326768981293,1,0,567870.497453911,567871.544521548,6,1,67,4,8
12,404,508.952224277891,1,0,567873.085733544,567874.132830438,6,1,89,4,8
12,405,549.453197047114,0,0,567875.815230715,567876.862313366,6,0,94,8,8
12,406,568.52531793993,0,0,567878.568249387,567879.615335887,6,0,62,16,8
12,407,446.771405055188,0,0,567881.285984461,567882.333064802,6,0,74,16,4
12,408,420.655268477276,0,0,567883.933111921,567884.980201886,6,0,62,8,8
12,409,470.787194557488,1,0,567886.556718266,567887.603844417,6,1,74,8,16
12,410,540.011259494349,0,0,567889.109722001,567890.156813505,6,0,93,0,8
12,411,548.106218571775,1,0,567891.721575103,567892.768668532,6,1,90,0,4
12,412,480.631801299751,0,0,567894.41556764,567895.462882107,6,0,93,0,16
12,413,439.648857340217,0,0,567897.121732783,567898.168821593,6,0,74,16,0
12,414,504.992515780032,1,0,567899.733575106,567900.780657756,6,1,68,8,0
12,415,487.695064977743,1,0,567902.380711035,567903.42779792,6,1,93,4,16
12,416,424.63499493897,0,0,567905.121966069,567906.169049875,6,0,84,0,8
12,417,608.356458717026,1,0,567907.61614392,567908.663252747,6,1,69,8,8
12,418,508.93066637218,0,0,567910.451537307,567911.498620728,6,0,99,0,4
12,419,622.568832361139,1,0,567913.039882383,567914.086934237,6,1,72,4,8
12,420,740.821525454521,0,0,567915.804679705,567916.851720395,6,0,87,8,8
12,421,587.053488940001,0,0,567918.628239008,567919.675328203,6,0,93,16,4
12,422,479.5889420202,1,0,567921.310676627,567922.357761972,6,1,94,8,16
12,423,837.275419034995,1,0,567923.946051229,567924.993145813,6,1,69,4,4
12,424,719.391903607175,0,0,567927.016721592,567928.063807707,6,0,92,4,16
12,425,592.757840524428,1,0,567929.828571537,567930.875654958,6,1,89,0,16
12,426,570.794662926346,0,0,567932.593419674,567933.640497705,6,0,92,16,16
12,427,645.569094922394,1,0,567935.240497859,567936.287582819,6,1,99,8,0
12,428,539.722538902424,0,0,567937.958213685,567939.005326363,6,0,96,4,16
12,429,472.505275392905,0,0,567940.746539051,567941.793620932,6,0,76,16,4
12,430,570.269191171974,1,0,567943.381905569,567944.428996303,6,1,62,4,4
12,431,554.541226127185,0,0,567946.052578011,567947.099657967,6,0,88,0,0
12,432,542.625529458746,0,0,567948.770305771,567949.817386112,6,0,93,16,8
12,433,446.630509220995,1,0,567951.570382455,567952.617473575,6,1,94,4,4
12,434,491.304073948413,0,0,567954.158689805,567955.205777075,6,0,86,4,0
12,435,674.286412773654,1,0,567956.723471036,567957.770569084,6,1,70,8,4
12,436,390.472019324079,0,0,567959.523555804,567960.570643459,6,0,83,8,16
12,437,651.954442379065,1,0,567962.053050743,567963.100135703,6,1,90,16,16
12,438,427.824781392701,0,0,567964.900179666,567965.947264626,6,0,76,0,4
12,439,659.736813162453,1,0,567967.512051631,567968.559157764,6,1,69,4,16
12,440,485.57085043285,1,0,567970.359163615,567971.406255889,6,1,65,16,8
12,441,446.789113222621,0,0,567973.018057792,567974.065155071,6,0,77,4,0
12,442,631.0626110062,1,0,567975.688728694,567976.735819813,6,1,94,8,0
12,443,639.465538901277,0,0,567978.512346126,567979.559421077,6,0,78,8,16
12,444,630.965985823423,1,0,567981.347719111,567982.394806381,6,1,87,16,0
12,445,624.075184692629,0,0,567984.206623604,567985.253718573,6,0,98,0,4
12,446,485.523115261458,0,0,567986.983185718,567988.030261824,6,0,75,0,0
12,447,514.597291825339,1,0,567989.700978537,567990.747995744,6,1,62,8,0
12,448,535.75513116084,1,0,567992.312794297,567993.359840761,6,1,67,4,4
12,449,478.566100820899,0,0,567995.006941274,567996.054021614,6,0,77,16,4
12,450,689.306819462217,1,0,567997.654077973,567998.701167553,6,1,97,16,16
12,451,563.320260844193,0,0,568000.548277612,568001.595369886,6,0,81,16,0
12,452,660.651480429806,1,0,568003.183699564,568004.230801847,6,1,78,16,16
12,453,470.588554744609,1,1,568005.983739292,568007.030820017,6,0,96,4,0
12,454,515.138161950745,1,0,568008.560270686,568009.60736604,6,1,89,0,16
12,455,484.813247225247,0,0,568011.301571531,568012.348636088,6,0,79,16,16
12,456,695.03542361781,0,0,568013.866312725,568014.913408079,6,0,98,16,8
12,457,551.023837761022,0,0,568016.772270227,568017.819368661,6,0,99,0,16
12,458,839.056633412838,1,0,568019.419417705,568020.466522683,6,1,86,8,4
12,459,540.545200346969,0,0,568022.407744918,568023.454827954,6,0,86,4,8
12,460,518.728307913989,1,0,568025.125476913,568026.172554559,6,1,62,8,4
12,461,593.233267427422,1,0,568027.749075944,568028.796159749,6,1,70,0,8
12,462,497.58163234219,1,0,568030.572685677,568031.619776411,6,1,72,8,16
12,463,622.154229437001,0,0,568033.266883083,568034.313971508,6,0,79,16,4
12,464,559.487974504009,0,0,568036.031672321,568037.078753816,6,0,94,4,0
12,465,496.299712336622,0,0,568038.725856639,568039.772950068,6,0,64,0,0
12,466,713.56166980695,1,0,568041.396530621,568042.443619815,6,1,80,4,16
12,467,847.896491875872,1,0,568044.267202216,568045.31429911,6,1,86,0,0
12,468,476.710203918628,0,0,568047.314361858,568048.361443739,6,0,77,16,0
12,469,507.177169201896,1,0,568049.996790238,568051.043872889,6,1,89,0,0
12,470,494.079642463475,1,0,568052.691007278,568053.738067985,6,1,89,0,8
12,471,456.88548439648,0,0,568055.443999772,568056.491093586,6,0,87,8,4
12,472,592.429468873888,0,0,568058.067601112,568059.114693002,6,0,73,4,8
12,473,429.8481362639,0,0,568060.855913775,568061.903014133,6,0,78,8,4
12,474,457.303936826065,0,0,568063.432460952,568064.479555921,6,0,66,4,4
12,475,465.57828783989,1,0,568066.103188444,568067.150222974,6,1,63,0,8
12,476,492.688008584082,0,0,568068.656166771,568069.703235563,6,0,79,0,4
12,477,514.55533108674,1,0,568071.303298465,568072.350369567,6,1,67,4,0
12,478,572.023073211312,1,0,568073.926895956,568074.973989001,6,1,64,8,0
12,479,699.03170329053,1,0,568076.738737433,568077.785820083,6,1,91,16,0
12,480,510.726894252002,1,0,568079.585929874,568080.632994046,6,1,66,8,8
12,481,1537.83700009808,1,0,568115.304579615,568116.351703072,7,1,87,8,4
12,482,602.767595439218,1,0,568118.904673315,568119.951763664,7,1,79,16,8
12,483,475.305096479133,1,0,568121.598893819,568122.645952602,7,1,88,4,16
12,484,543.095566798002,0,0,568124.281305261,568125.328389066,7,0,64,8,8
12,485,450.322669930756,1,0,568127.010786264,568128.057875459,7,1,73,4,0
12,486,527.587799471803,0,0,568129.51674623,568130.563823876,7,0,84,0,0
12,487,445.916021824814,1,0,568132.140356039,568133.187446389,7,1,85,8,0
12,488,1015.1169890305,1,0,568134.76395815,568135.81104388,7,1,62,4,16
12,489,401.810274575837,0,0,568137.846407164,568138.893490199,7,0,73,4,0
12,490,568.541101296432,0,0,568140.44648123,568141.493566575,7,0,72,0,16
12,491,661.212753504515,1,0,568143.234793892,568144.281877698,7,1,89,4,4
12,492,551.703678793274,0,0,568146.05840709,568147.105499364,7,0,83,4,4
12,493,441.490510595031,1,0,568148.858484544,568149.905576433,7,1,76,4,0
12,494,631.884887698106,1,0,568151.48208473,568152.529212035,7,1,70,8,0
12,495,703.240481554531,0,0,568154.199819034,568155.246912848,7,0,98,16,8
12,496,553.2481422415,1,0,568156.952833471,568157.999920356,7,1,89,8,0
12,497,782.674096175469,1,0,568159.588265432,568160.635297267,7,1,81,16,16
12,498,412.772422889248,1,0,568162.541239371,568163.58832972,7,1,92,0,16
12,499,403.313932125457,0,0,568165.023661283,568166.070750093,7,0,64,0,8
12,500,581.67173480615,0,0,568167.659072841,568168.706129699,7,0,61,0,16
12,501,622.932620462961,0,0,568170.365050823,568171.412089973,7,0,96,16,4
12,502,421.058707637712,0,0,568173.23565351,568174.282761568,7,0,66,8,16
12,503,487.932970747352,1,0,568175.788681883,568176.835773772,7,1,74,8,16
12,504,481.012912699953,0,0,568178.482883909,568179.529966559,7,0,69,0,8
12,505,514.660810353234,1,0,568181.071184329,568182.118277758,7,1,62,8,0
12,506,425.05575728137,0,0,568183.753620793,568184.800707293,7,0,92,4,16
12,507,462.685691076331,0,0,568186.294912476,568187.342002055,7,0,66,8,16
12,508,711.492504691705,1,0,568188.942006829,568189.989095254,7,1,89,16,4
12,509,541.99958301615,1,0,568191.765644664,568192.812727314,7,1,95,0,0
12,510,616.286654490978,1,0,568194.389226756,568195.436316336,7,1,71,8,16
12,511,485.006882576272,0,0,568197.224645937,568198.271752454,7,0,67,0,4
12,512,886.858005891554,1,0,568199.930561555,568200.977649979,7,1,72,0,0
12,513,779.61057680659,0,0,568202.965946396,568204.013034051,7,0,89,16,4
12,514,936.710835201666,0,0,568205.930765969,568206.977840535,7,0,84,16,8
12,515,590.168978087604,1,0,568209.001417084,568210.048498195,7,1,69,8,4
12,516,518.367214477621,0,0,568211.730908097,568212.777994212,7,0,90,0,8
12,517,460.622685379349,1,0,568214.342752729,568215.389836535,7,1,76,0,8
12,518,609.56177150365,0,0,568217.048711463,568218.095799888,7,0,61,16,0
12,519,569.353753933683,1,0,568219.837019506,568220.88411332,7,1,91,0,4
12,520,413.592004799284,1,0,568222.613581235,568223.660662345,7,1,75,4,8
12,521,577.819815371186,0,0,568225.119524647,568226.166616536,7,0,81,8,16
12,522,532.159980735742,1,0,568227.801953412,568228.84905608,7,1,84,0,0
12,523,565.603849245235,1,0,568230.578565186,568231.625598176,7,1,95,4,4
12,524,495.185250416398,0,0,568233.202114556,568234.249229159,7,0,77,16,0
12,525,476.00418550428,1,0,568235.802199787,568236.849288982,7,1,94,8,4
12,526,446.622040239163,0,0,568238.437564379,568239.484658579,7,0,63,8,8
12,527,500.076564378105,1,0,568241.014115791,568242.061205756,7,1,83,4,8
12,528,825.620725983754,1,0,568243.743603339,568244.790690994,7,1,70,16,16
12,529,475.540307583287,1,0,568246.696626938,568247.743721522,7,1,69,0,16
12,530,641.737193567678,1,0,568249.273182969,568250.32026562,7,1,97,16,4
12,531,534.965191269293,0,0,568251.979134389,568253.026232438,7,0,73,16,8
12,532,509.225161629729,0,0,568254.708628866,568255.755713826,7,0,79,16,0
12,533,414.769985363819,1,0,568257.391064175,568258.438168383,7,1,75,16,0
12,534,473.918082076125,0,0,568259.944137973,568260.991170193,7,0,85,0,8
12,535,404.980428051203,1,0,568262.661820308,568263.708907578,7,1,65,0,4
12,536,531.658761552535,0,0,568265.297225321,568266.344257927,7,0,72,16,16
12,537,553.084148908965,0,0,568267.920776617,568268.967862347,7,0,87,4,0
12,538,430.65578432288,1,0,568270.709158572,568271.756181938,7,1,85,4,16
12,539,611.761438427493,1,0,568273.262148448,568274.309194142,7,1,100,16,8
12,540,460.926034720615,0,0,568276.085721225,568277.132810035,7,0,89,4,4
12,541,453.338838997297,0,0,568278.650500916,568279.697586646,7,0,97,4,8
12,542,505.114933359437,1,0,568281.356461574,568282.403557698,7,1,73,8,8
12,543,573.137535247952,0,0,568284.050657056,568285.097743556,7,0,91,8,4
12,544,561.49285112042,0,0,568286.827210316,568287.874305285,7,0,65,16,16
12,545,653.962013777345,1,0,568289.60376473,568290.650857389,7,1,79,8,8
12,546,432.792317587882,0,0,568292.403849498,568293.450932534,7,0,76,0,16
12,547,740.967810503207,1,0,568295.015681813,568296.06279834,7,1,91,8,8
12,548,561.459359596483,0,0,568298.004007102,568299.051092832,7,0,61,4,8
12,549,595.067991293035,0,0,568300.733497344,568301.780586539,7,0,67,8,4
12,550,401.771778473631,1,0,568303.380627499,568304.427730552,7,1,76,4,16
12,551,389.70748684369,0,0,568305.933727859,568306.980741986,7,0,82,16,16
12,552,502.972625661641,0,0,568308.451407191,568309.498476367,7,0,81,0,4
12,553,482.232469017617,0,0,568311.110277115,568312.15736092,7,0,83,16,0
12,554,595.977654098533,1,0,568313.663284699,568314.710376974,7,1,87,4,4
12,555,550.705475034192,0,0,568316.392778021,568317.439864521,7,0,72,8,0
12,556,460.642703343183,0,0,568319.145799002,568320.192885502,7,0,87,4,0
12,557,542.855351231992,0,0,568321.816526494,568322.863563334,7,0,69,0,4
12,558,620.369165553711,1,0,568324.545958992,568325.593040103,7,1,79,16,4
12,559,441.617932636291,1,0,568327.369579889,568328.416658305,7,1,71,0,0
12,560,637.332855141722,0,0,568329.957883004,568331.004967194,7,0,97,4,8
12,561,558.753469027579,1,0,568347.417215728,568348.464298378,8,1,63,0,0
12,562,670.07686465513,1,0,568350.029045347,568351.076141086,8,1,90,8,4
12,563,603.293452179059,0,0,568352.805605151,568353.852688572,8,0,98,0,0
12,564,981.258902698755,1,0,568355.605740735,568356.652772955,8,1,68,4,8
12,565,540.43741140049,1,0,568358.711654274,568359.758738464,8,1,71,0,16
12,566,579.884745995514,0,0,568361.394144248,568362.441183013,8,0,93,0,8
12,567,549.349257722497,1,0,568364.076517963,568365.123606773,8,1,67,8,8
12,568,489.827748737298,1,0,568366.700123923,568367.747216583,8,1,62,8,4
12,569,464.688258012757,1,0,568369.347261007,568370.394350587,8,1,92,0,4
12,570,606.423569726758,1,0,568371.900278601,568372.947363176,8,1,87,16,4
12,571,610.314755118452,1,0,568374.747420227,568375.794502107,8,1,80,0,4
12,572,645.013211295009,1,0,568377.47695397,568378.523996969,8,1,87,4,4
12,573,514.884857693687,1,0,568380.335815348,568381.382948043,8,1,96,8,0
12,574,568.087232299149,1,0,568383.006507038,568384.053580834,8,1,83,16,8
12,575,475.962994736619,0,0,568385.700688276,568386.747765152,8,0,61,0,8
12,576,561.253790394403,0,0,568388.312518665,568389.359602471,8,0,67,4,0
12,577,416.995829669759,0,0,568391.065537722,568392.112626146,8,0,72,16,0
12,578,675.596819841303,1,0,568393.653849306,568394.700945815,8,1,100,8,8
12,579,389.497298165224,0,0,568396.54804933,568397.59513814,8,0,74,4,8
12,580,559.301653294824,0,0,568399.089301362,568400.136391711,8,0,67,8,4
12,581,470.247864257544,0,0,568401.842327347,568402.889416927,8,0,69,4,0
12,582,430.999554460868,1,0,568404.477727357,568405.524835029,8,1,76,0,16
12,583,608.982405159622,0,0,568407.089534263,568408.136618453,8,0,99,4,16
12,584,605.737184290774,0,0,568409.830793147,568410.877877337,8,0,79,8,16
12,585,423.635251238011,0,0,568412.489689249,568413.536783063,8,0,80,0,8
12,586,496.315110824071,0,0,568414.972116551,568416.01921152,8,0,66,8,8
12,587,571.200796635821,1,0,568417.678084908,568418.725166789,8,1,71,4,16
12,588,521.563930320553,0,0,568420.501681552,568421.548776906,8,0,81,16,4
12,589,474.394663819112,0,0,568423.148829415,568424.195909756,8,0,83,0,0
12,590,438.838129513897,1,0,568425.878315808,568426.925406927,8,1,72,0,8
12,591,637.129210866988,0,0,568428.384277698,568429.431359964,8,0,90,16,8
12,592,654.215318150818,1,0,568431.196119944,568432.243207214,8,1,89,8,0
12,593,566.476555773988,0,0,568433.91384039,568434.96093459,8,0,92,16,0
12,594,454.484867863357,1,0,568436.619802204,568437.666898713,8,1,84,16,0
12,595,561.030513024889,0,0,568439.314008849,568440.361091885,8,0,72,0,4
12,596,552.649527904578,0,0,568441.949364973,568442.996472261,8,0,100,0,4
12,597,544.173072441481,1,0,568444.6200378,568445.667126995,8,1,90,16,8
12,598,606.606811052188,1,0,568447.30251199,568448.34955422,8,1,100,4,8
12,599,464.955036062747,0,0,568450.031957577,568451.079048697,8,0,73,4,16
12,600,805.343292304315,1,0,568452.702628864,568453.749715749,8,1,70,16,4
12,601,452.459203312173,1,0,568455.561536437,568456.608625247,8,1,73,0,16
12,602,557.165889884345,1,0,568458.208706243,568459.255756172,8,1,99,16,16
12,603,513.184870011173,1,0,568460.91463187,568461.961717215,8,1,90,8,0
12,604,381.440065219067,1,0,568463.632408905,568464.679440741,8,1,77,16,16
12,605,480.713797849603,0,0,568466.197146635,568467.244227361,8,0,82,8,16
12,606,494.295220589265,0,0,568468.785446286,568469.832531246,8,0,76,16,16
12,607,502.420976641588,1,0,568471.444349316,568472.491437356,8,1,62,8,16
12,608,701.582069625147,0,0,568474.009162499,568475.056218972,8,0,97,16,8
12,609,483.228362980299,1,0,568476.891568474,568477.938641885,8,1,88,4,0
12,610,429.740732070059,1,0,568479.527013139,568480.574034965,8,1,80,8,8
12,611,433.103366056457,0,1,568482.091716222,568483.138801952,8,1,97,8,4
12,612,765.104093006812,0,0,568484.656498992,568485.703591267,8,0,97,4,4
12,613,499.710081494413,1,0,568487.491908548,568488.539015451,8,1,100,16,16
12,614,868.219351046719,1,0,568490.115480632,568491.162572136,8,1,64,4,16
12,615,544.664282700978,0,0,568493.103850191,568494.150898195,8,0,74,4,8
12,616,959.736890275963,1,0,568495.903943814,568496.95096795,8,1,92,0,4
12,617,426.380792749114,1,0,568498.939272451,568499.986356257,8,1,71,16,0
12,618,716.356486431323,1,0,568501.551109385,568502.598195115,8,1,76,8,0
12,619,546.617959626019,1,0,568504.374737596,568505.421857587,8,1,73,0,8
12,620,773.837702232413,0,0,568506.974798189,568508.021881609,8,0,89,8,4
12,621,534.706497448497,1,0,568509.974889039,568511.021968225,8,1,88,4,4
12,622,726.237664348446,0,0,568512.610254787,568513.657345906,8,0,88,16,4
12,623,723.985257791355,0,0,568515.457394873,568516.504482528,8,0,89,0,0
12,624,718.872591271065,1,0,568518.410422707,568519.457518061,8,1,70,0,16
12,625,700.475306948647,1,0,568521.198740374,568522.245825334,8,1,70,8,16
12,626,783.228824846447,0,0,568524.14000149,568525.187090685,8,0,86,8,0
12,627,625.870642601512,0,0,568527.116625506,568528.163646562,8,0,99,4,16
12,628,552.236079936847,0,0,568529.893111013,568530.940194433,8,0,93,4,0
12,629,617.318734759465,0,0,568532.610838003,568533.657928737,8,0,86,4,4
12,630,577.732429257594,0,0,568535.43445274,568536.481533466,8,0,84,16,4
12,631,633.390470058657,0,0,568538.163931819,568539.211032177,8,0,86,16,0
12,632,506.590103846975,0,0,568540.928727601,568541.975807941,8,0,63,8,16
12,633,512.916167383082,0,0,568543.505336757,568544.552367052,8,0,79,0,0
12,634,603.622978669591,0,0,568546.093580203,568547.140668243,8,0,61,4,8
12,635,509.153558756225,0,0,568548.88189325,568549.928973591,8,0,91,4,0
12,636,382.10951234214,0,0,568551.529034953,568552.576121838,8,0,93,8,8
12,637,539.07811420504,1,0,568554.093817339,568555.14089614,8,1,84,16,8
12,638,512.710598181002,0,0,568556.717416755,568557.764505949,8,0,78,4,4
12,639,440.513864625245,0,0,568559.411617241,568560.45870682,8,0,78,16,16
12,640,808.609301107936,1,0,568562.035223971,568563.082306236,8,1,61,0,16
12,641,405.88816604577,1,0,568570.611929367,568571.659070916,9,1,77,0,16
12,642,538.660046528094,0,0,568573.200250575,568574.247339385,9,0,71,8,4
12,643,451.144561637193,0,0,568575.988609433,568577.035657437,9,0,75,8,8
12,644,613.529948983341,1,0,568578.659223361,568579.706322565,9,1,90,16,4
12,645,651.485944981687,1,0,568581.506418112,568582.553488444,9,1,66,0,4
12,646,500.017665326595,0,0,568584.247629646,568585.29472038,9,0,72,4,4
12,647,505.255059222691,0,0,568586.906584261,568587.953623411,9,0,83,8,4
12,648,396.047793910839,0,0,568589.6124891,568590.659580605,9,0,63,4,16
12,649,503.11044161208,1,0,568592.106684659,568593.153774239,9,1,84,0,8
12,650,581.546237459406,1,0,568594.789115734,568595.836209163,9,1,90,4,8
12,651,470.934634678997,0,0,568597.471541419,568598.518635618,9,0,67,8,0
12,652,408.362695132382,0,0,568600.048125167,568601.095185105,9,0,88,0,16
12,653,636.698824469931,0,0,568602.659935539,568603.707024349,9,0,100,4,0
12,654,415.511420113035,0,0,568605.412951515,568606.460040325,9,0,70,0,16
12,655,551.809543045238,0,0,568608.083636661,568609.130706993,9,0,100,0,4
12,656,579.353499924764,0,1,568610.8131142,568611.86019916,9,1,92,8,16
12,657,557.557395193726,0,0,568613.636776287,568614.683814282,9,0,80,16,0
12,658,539.930802769959,0,0,568616.401503161,568617.448638936,9,0,69,4,4
12,659,446.769865229726,1,0,568619.095730595,568620.142791302,9,1,72,0,0
12,660,485.326785128564,1,0,568621.778129333,568622.825220837,9,1,94,0,8
12,661,564.447811571881,1,0,568624.401740297,568625.448830262,9,1,98,16,0
12,662,705.872459569946,1,0,568627.178297407,568628.225377747,9,1,85,16,4
12,663,422.534262994304,0,0,568630.107794501,568631.154874072,9,0,75,16,16
12,664,490.538386628032,1,0,568632.613740608,568633.660834808,9,1,66,8,8
12,665,439.087969250977,1,0,568635.34324086,568636.390330824,9,1,74,8,8
12,666,528.45858107321,0,0,568637.872726945,568638.91980613,9,0,62,4,0
12,667,438.273006933741,1,0,568640.519883277,568641.566951683,9,1,74,16,8
12,668,514.837122405879,1,0,568643.202355157,568644.249374674,9,1,96,16,4
12,669,572.213628911413,1,0,568645.778836891,568646.825923006,9,1,91,4,8
12,670,548.567786812782,0,0,568648.555392461,568649.602475496,9,0,96,4,16
12,671,620.86422520224,0,0,568651.273115986,568652.32026562,9,0,83,8,4
12,672,515.748710022308,1,0,568654.120263387,568655.167338723,9,1,63,4,8
12,673,665.017322753556,1,0,568656.743864343,568657.790943528,9,1,87,4,16
12,674,735.198785550892,0,0,568659.496879549,568660.543971054,9,0,99,0,8
12,675,622.223907383159,0,0,568662.4028486,568663.449926246,9,0,94,16,16
12,676,576.260338537395,1,0,568665.273520965,568666.32060554,9,1,84,16,16
12,677,551.583955995739,0,0,568667.991244876,568669.038332916,9,0,63,0,4
12,678,585.338872857392,1,0,568670.685441512,568671.732529937,9,1,98,4,4
12,679,539.480013423599,1,0,568673.497292997,568674.544380652,9,1,84,8,16
12,680,637.922615394928,1,0,568676.167955431,568677.215038851,9,1,70,0,4
12,681,552.240314427763,1,0,568678.991559389,568680.038653973,9,1,80,16,16
12,682,861.469830386341,0,0,568681.756352861,568682.803440516,9,0,80,0,8
12,683,615.328871645033,0,0,568684.815264207,568685.862354556,9,0,88,16,8
12,684,704.687934718095,1,0,568687.485918171,568688.533021994,9,1,90,4,0
12,685,1238.54910081718,1,0,568690.427191991,568691.474276567,9,1,71,8,0
12,686,549.647987354547,1,0,568693.886117812,568694.933200077,9,1,67,0,8
12,687,640.91838162858,0,0,568696.556784864,568697.603880603,9,0,98,4,4
12,688,648.170661181211,1,0,568699.27450608,568700.321599124,9,1,66,16,0
12,689,544.756673276424,1,1,568702.156942082,568703.204029352,9,0,80,4,16
12,690,504.952479968779,0,0,568704.874706029,568705.921770971,9,0,84,0,16
12,691,417.563262046315,1,0,568707.521857741,568708.568901511,9,1,85,8,0
12,692,592.306666309014,1,0,568710.004234998,568711.051315724,9,1,93,16,0
12,693,493.601136025973,0,0,568712.674896277,568713.721990476,9,0,64,0,0
12,694,558.107504504733,1,0,568715.310268184,568716.357353529,9,1,96,4,8
12,695,674.835751997307,1,0,568718.051524758,568719.098609333,9,1,66,16,8
12,696,498.882415355183,1,0,568720.957490729,568722.004581848,9,1,92,4,4
12,697,623.624010477215,0,0,568723.698752307,568724.745836883,9,0,70,8,0
12,698,560.290233115666,0,0,568726.487064585,568727.5341507,9,0,72,16,0
12,699,668.743744841777,1,0,568729.110674779,568730.157762049,9,1,88,16,4
12,700,431.265177554451,0,0,568731.993108087,568733.040201516,9,0,76,0,0
12,701,449.202048592269,0,0,568734.54612799,568735.59321603,9,0,89,4,16
12,702,433.354745618999,0,0,568737.157965309,568738.205052578,9,0,65,8,0
12,703,519.195265485905,0,1,568739.805090459,568740.852201596,9,1,79,4,8
12,704,436.550691490993,1,0,568742.44047199,568743.487562724,9,1,75,8,4
12,705,497.5985706551,0,0,568744.993489968,568746.040577238,9,0,97,4,0
12,706,1353.34022482857,1,0,568747.640623587,568748.687713167,9,1,61,16,4
12,707,656.139352940954,1,0,568751.181903336,568752.228995226,9,1,64,8,4
12,708,590.01922828611,1,1,568753.923155676,568754.970256034,9,0,86,8,8
12,709,642.53213792108,0,0,568756.617374255,568757.664445356,9,0,96,16,8
12,710,535.691612632945,0,0,568759.417434386,568760.464518576,9,0,82,0,16
12,711,606.687268009409,1,0,568762.135197178,568763.18225519,9,1,95,4,0
12,712,508.576117455959,0,0,568764.935288875,568765.982338419,9,0,84,8,8
12,713,700.536515680142,1,0,568767.688262891,568768.735353241,9,1,91,8,16
12,714,473.309843800962,0,0,568770.570700048,568771.617790783,9,0,95,8,16
12,715,506.864196038805,1,0,568773.11195362,568774.159073611,9,1,61,8,16
12,716,582.59256137535,0,0,568775.747324372,568776.794410487,9,0,81,0,0
12,717,701.794953085482,1,0,568778.523872242,568779.571013406,9,1,70,16,16
12,718,612.823545583524,0,0,568781.324006285,568782.371102409,9,0,99,0,4
12,719,593.208629754372,1,1,568784.041680921,568785.088764341,9,0,90,0,0
12,720,520.297023816966,0,0,568786.865294888,568787.91236753,9,0,96,16,8
