sub_id,Trial,RT,Resp,Error,Fix_onset,Disp_onset,block,tid,tloc,fish_setsize,bird_setsize
2,1,551.600872364361,0,0,273613.98687867,273615.033955161,1,0,68,8,16
2,2,441.273755626753,1,0,273616.716334651,273617.763394974,1,1,79,0,8
2,3,552.878942689858,0,0,273619.257544722,273620.30460697,1,0,72,0,0
2,4,431.149282318074,0,0,273622.02228122,273623.069344623,1,0,78,0,0
2,5,479.665527294856,1,0,273624.598776428,273625.645837136,1,1,82,4,8
2,6,499.593416403513,0,0,273627.198805454,273628.24587694,1,0,89,4,8
2,7,557.139690616168,1,0,273629.881193413,273630.928249886,1,1,95,16,16
2,8,561.155603383668,0,0,273632.587104027,273633.634169739,1,0,80,16,8
2,9,462.174441025127,0,0,273635.328304781,273636.375374343,1,0,96,4,16
2,10,587.633218267001,1,0,273637.963645507,273639.010716993,1,1,80,4,0
2,11,463.958735112101,0,0,273640.681308208,273641.728377385,1,0,66,16,8
2,12,596.090425620787,1,0,273643.293105106,273644.340176593,1,1,90,4,4
2,13,634.732037025969,0,0,273646.069604086,273647.116673263,1,0,75,8,8
2,14,646.49990858743,0,0,273648.916696438,273649.963764459,1,0,70,0,4
2,15,527.006871358026,1,0,273651.740252661,273652.787330692,1,1,62,0,8
2,16,650.994712777901,0,0,273654.340290926,273655.387376271,1,0,91,0,4
2,17,607.486809953116,0,0,273657.069721114,273658.116797605,1,0,94,16,4
2,18,668.807241425384,1,0,273659.787419618,273660.834471086,1,1,89,16,8
2,19,594.018950709142,0,0,273662.705090712,273663.752159118,1,0,61,4,0
2,20,542.536581517197,1,0,273665.52864809,273666.575720731,1,1,93,4,4
2,21,825.45055123046,1,0,273668.18750762,273669.234574872,1,1,67,0,16
2,22,513.49589653546,1,0,273671.140476554,273672.187550735,1,1,63,0,4
2,23,624.798889330123,0,0,273673.79932723,273674.846399871,1,0,91,16,16
2,24,538.789371552411,1,0,273676.658198617,273677.705282037,1,1,66,8,16
2,25,598.693146719597,0,0,273679.399398217,273680.446467394,1,0,94,4,0
2,26,476.989663671702,0,0,273682.128838029,273683.175899892,1,0,94,0,8
2,27,702.293070673477,0,0,273684.799455807,273685.846521519,1,0,81,4,0
2,28,492.856984550599,0,0,273687.670083132,273688.717170402,1,0,73,0,0
2,29,486.981710360851,0,0,273690.234806233,273691.281878105,1,0,68,4,16
2,30,529.419806727674,0,0,273692.96425644,273694.011317917,1,0,72,8,0
2,31,519.893947755918,0,0,273695.740778518,273696.823119357,1,0,87,8,4
2,32,618.070926633663,1,0,273698.552556475,273699.599617953,1,1,62,16,0
2,33,939.047141408082,1,0,273701.399644592,273702.446716463,1,1,90,16,16
2,34,635.071572556626,0,0,273704.446738406,273705.493811817,1,0,74,8,0
2,35,557.034596276935,1,0,273707.246771975,273708.293845771,1,1,88,16,8
2,36,541.222709813155,0,0,273709.96445277,273711.023531573,1,0,76,0,8
2,37,575.02459193347,1,0,273712.611534034,273713.658606291,1,1,79,0,16
2,38,504.906647605821,1,0,273715.30569256,273716.352773285,1,1,95,0,16
2,39,509.952330903616,1,0,273717.917487147,273718.964543235,1,1,78,0,16
2,40,552.129423769657,0,0,273720.623392757,273721.670455004,1,0,63,8,4
2,41,629.622450214811,0,0,273723.246956371,273724.294019773,1,0,70,8,8
2,42,496.693890425377,0,0,273725.999940011,273727.046987245,1,0,76,16,0
2,43,565.14456885634,1,0,273728.729369045,273729.776431292,1,1,72,4,4
2,44,639.145999390166,1,0,273731.482343445,273732.529409927,1,1,70,4,8
2,45,591.212970262859,1,0,273734.235313997,273735.282382018,1,1,84,8,8
2,46,681.6971032531,1,0,273736.964760738,273738.011626827,1,1,82,16,0
2,47,490.340109798126,1,0,273739.905966036,273740.953028283,1,1,64,0,4
2,48,451.263877504971,1,0,273742.600120712,273743.647183344,1,1,74,8,8
2,49,659.194381267298,0,0,273745.200145118,273746.247203516,1,0,98,8,4
2,50,531.812339089811,0,0,273747.941354342,273748.98846009,1,0,75,16,4
2,51,586.195389099885,0,0,273750.564909487,273751.611974814,1,0,70,8,0
2,52,546.22527747415,0,0,273753.212000376,273754.259073787,1,0,83,8,16
2,53,662.977007683367,1,0,273755.906151587,273756.953216144,1,1,82,4,16
2,54,734.617472626269,0,0,273758.694420749,273759.741484536,1,0,99,0,0
2,55,537.970559613314,1,0,273761.506218724,273762.553317543,1,1,64,16,16
2,56,485.598160652444,0,0,273764.141540201,273765.188610148,1,0,75,4,8
2,57,604.362851707265,0,0,273766.729802896,273767.776866298,1,0,73,16,16
2,58,529.057943436783,1,0,273769.47100519,273770.518079371,1,1,65,4,8
2,59,654.274195199832,1,0,273772.188690605,273773.235751697,1,1,68,8,16
2,60,628.8660018472,1,0,273775.024021244,273776.071086186,1,1,90,0,16
2,61,605.339112749789,1,0,273777.800518299,273778.847578237,1,1,90,8,0
2,62,702.298460062593,0,0,273780.541733683,273781.588788616,1,0,83,16,0
2,63,512.434559175745,1,0,273783.459412091,273784.506471259,1,1,98,0,0
2,64,676.913364382926,0,0,273786.035910378,273787.08297455,1,0,100,0,8
2,65,525.962472311221,0,0,273788.894763672,273789.941830539,1,0,66,0,4
2,66,532.227711984888,0,0,273791.647741152,273792.694799935,1,0,84,4,0
2,67,482.845689810347,1,0,273794.388995802,273795.436019168,1,1,83,4,16
2,68,618.91630088212,1,0,273797.094862915,273798.141966738,1,1,96,16,0
2,69,625.498748384416,0,0,273799.930193169,273800.977250797,1,0,91,4,4
2,70,652.2785575944,1,0,273802.671397003,273803.718461176,1,1,61,16,4
2,71,611.977764521725,1,0,273805.412602763,273806.45966655,1,1,83,4,16
2,72,461.133506614715,1,0,273808.224401893,273809.271469145,1,1,74,8,4
2,73,514.163803833071,0,0,273810.871488547,273811.918555029,1,0,85,16,8
2,74,526.215006655548,0,0,273813.577402625,273814.624462948,1,0,76,8,4
2,75,648.898600367829,1,0,273816.165673789,273817.212732957,1,1,82,8,8
2,76,608.748711936641,1,0,273818.965750858,273820.012774609,1,1,87,16,4
2,77,627.863948524464,0,0,273821.671617971,273822.718729493,1,0,79,8,16
2,78,560.215143777896,1,0,273824.542239521,273825.589298689,1,1,67,16,4
2,79,744.184137438424,1,0,273827.24814821,273828.295216232,1,1,100,8,0
2,80,632.807232206687,1,0,273830.118772455,273831.165838937,1,1,74,4,4
2,81,678.923245577607,1,0,273865.919181746,273866.966292883,2,1,64,0,0
2,82,595.82441765815,0,0,273868.813386774,273869.860402056,2,0,68,8,8
2,83,745.420632068999,1,0,273871.601601271,273872.648672373,2,1,81,16,8
2,84,672.84548189491,1,0,273874.472233216,273875.519298543,2,1,100,0,0
2,85,555.991352070123,1,0,273877.389906234,273878.436973871,2,1,94,4,8
2,86,534.375024202745,0,0,273880.154650047,273881.201706135,2,0,89,4,0
2,87,533.690178650431,1,0,273882.778208272,273883.825271289,2,1,87,4,4
2,88,492.610994551796,0,0,273885.531223863,273886.57824723,2,0,88,8,0
2,89,554.729450086597,0,0,273888.284159768,273889.331223555,2,0,99,4,16
2,90,456.784987589344,0,0,273891.084170624,273892.13124596,2,0,87,8,0
2,91,580.259676033165,0,0,273893.672452566,273894.719511734,2,0,73,16,0
2,92,433.175331854727,1,0,273896.460709794,273897.50778667,2,1,76,4,16
2,93,628.296259674244,1,0,273899.131340661,273900.178424081,2,1,91,8,0
2,94,612.179099116474,0,0,273901.919600968,273902.96666437,2,0,98,4,0
2,95,499.939111352433,0,0,273904.707913245,273905.754944311,2,0,77,8,4
2,96,680.93466659775,1,0,273907.272612479,273908.319675881,2,1,71,8,8
2,97,609.539806784596,0,0,273910.154994587,273911.202054524,2,0,92,8,0
2,98,449.767149286345,1,0,273912.860953706,273913.907976687,2,1,74,0,4
2,99,558.130965102464,1,0,273915.484465735,273916.531532217,2,1,67,8,16
2,100,699.887449562084,1,0,273918.272784172,273919.319807923,2,1,100,16,8
2,101,516.640257672407,1,0,273921.060797054,273922.108070925,2,1,83,0,8
2,102,589.820951456204,0,0,273923.825739402,273924.872832061,2,0,100,0,0
2,103,515.653217793442,1,0,273926.578722272,273927.62577913,2,1,99,0,4
2,104,485.238992085215,1,0,273929.30815708,273930.355230491,2,1,88,0,16
2,105,525.7449693745,1,0,273931.884662296,273932.931754956,2,1,93,4,16
2,106,458.598538709339,0,0,273934.53175203,273935.578816972,2,0,75,0,8
2,107,473.293268529233,1,0,273937.167073892,273938.214141529,2,1,98,8,0
2,108,449.077299272176,0,0,273939.814161316,273940.861228953,2,0,76,4,16
2,109,583.594592870213,1,0,273942.496554664,273943.543652328,2,1,73,8,8
2,110,510.578277462628,1,0,273945.190687782,273946.237757729,2,1,86,4,8
2,111,494.689398736227,0,0,273947.943676812,273948.990737134,2,0,83,16,4
2,112,567.180242447648,1,0,273950.578989435,273951.626057841,2,1,69,8,16
2,113,546.096315549221,1,0,273953.379024158,273954.426097954,2,1,95,16,4
2,114,488.358330738265,0,0,273956.132004718,273957.179066966,2,0,93,8,16
2,115,469.063317461405,1,0,273958.82615054,273959.873211248,2,1,83,16,4
2,116,511.167267744895,0,0,273961.379117319,273962.426183801,2,0,85,16,0
2,117,615.375429973938,0,0,273964.096796959,273965.143865365,2,0,65,8,4
2,118,654.62066011969,1,0,273966.908596859,273967.955661416,2,1,98,0,0
2,119,663.567152805626,1,0,273969.767459392,273970.814514325,2,1,90,0,16
2,120,663.722292112652,0,0,273972.579251593,273973.62631538,2,0,74,8,16
2,121,522.685299685691,0,0,273975.379334052,273976.426347409,2,0,76,4,8
2,122,609.181023144629,1,0,273978.061456545,273979.108736523,2,1,93,8,4
2,123,637.49028230086,0,0,273980.826406539,273981.873473406,2,0,61,0,0
2,124,527.643211884424,0,0,273983.685263297,273984.732336324,2,0,64,0,4
2,125,506.512704771012,1,0,273986.461766127,273987.520597401,2,1,78,16,8
2,126,563.561994349584,1,0,273989.191213254,273990.238277811,2,1,67,16,4
2,127,685.09339983575,0,0,273991.861832571,273992.908895589,2,0,70,0,4
2,128,518.471516959835,0,0,273994.685397264,273995.732458356,2,0,93,0,8
2,129,477.417355286889,1,0,273997.379539621,273998.426603793,2,1,76,16,0
2,130,494.976194633637,0,0,273999.967810399,274001.014866872,2,0,83,4,8
2,131,431.624709162861,1,0,274002.66196315,274003.709055424,2,1,75,4,4
2,132,498.343063227367,0,0,274005.297287322,274006.344346105,2,0,84,16,0
2,133,661.044503678568,0,0,274008.02672367,274009.073793231,2,0,77,4,4
2,134,644.573179015424,1,0,274010.814998221,274011.862060083,2,1,93,16,16
2,135,471.026618382894,1,0,274013.638556754,274014.685617846,2,1,86,4,4
2,136,491.995441901963,0,0,274016.238590399,274017.285658036,2,0,94,0,16
2,137,553.941050020512,1,0,274018.83862058,274019.885687062,2,1,93,8,16
2,138,583.635398710612,1,0,274021.52099776,274022.568068092,2,1,92,16,16
2,139,748.338636185508,0,0,274024.215148202,274025.262220073,2,0,61,8,4
2,140,764.509691274725,0,0,274027.13282969,274028.179893862,2,0,93,16,8
2,141,488.695171603467,0,0,274030.132871265,274031.179928508,2,0,74,0,16
2,142,606.598320009653,0,0,274032.838780339,274033.885847591,2,0,79,4,0
2,143,574.949524539988,0,0,274035.662347726,274036.709409204,2,0,79,4,8
2,144,563.510409614537,1,0,274038.438847861,274039.485913958,2,1,70,16,0
2,145,559.483717952389,0,0,274041.191608646,274042.238884125,2,0,65,4,4
2,146,615.03011995228,1,0,274043.815383182,274044.862508178,2,1,95,16,16
2,147,442.041367758065,0,0,274046.674239555,274047.721299108,2,0,86,0,8
2,148,689.884239051025,0,0,274049.262519573,274050.309572966,2,0,62,16,16
2,149,552.197946817614,1,0,274052.180184892,274053.227257149,2,1,70,8,8
2,150,446.717103593983,0,0,274054.968460983,274056.015542479,2,0,84,0,8
2,151,502.396702126134,1,0,274057.497892019,274058.544961965,2,1,98,0,4
2,152,668.66942535853,1,0,274060.121464872,274061.168516341,2,1,67,16,8
2,153,521.156619652174,1,0,274062.94501994,274063.992076798,2,1,68,8,8
2,154,720.179896743502,1,0,274065.697987027,274066.745051969,2,1,70,4,16
2,155,705.049776064698,0,0,274068.639203488,274069.68627613,2,0,100,4,0
2,156,569.796437106561,0,0,274071.592178582,274072.639251993,2,0,85,16,16
2,157,535.419038322289,0,0,274074.415745199,274075.462809756,2,0,72,4,0
2,158,452.347157639451,1,0,274077.027537092,274078.07459549,2,1,88,16,4
2,159,688.221977557987,0,0,274079.674624901,274080.721695233,2,0,71,8,4
2,160,596.927715756465,0,0,274082.462898682,274083.509959005,2,0,88,0,16
2,161,566.859569982626,0,0,274118.345759681,274119.392737237,3,0,61,0,0
2,162,582.130201393738,1,0,274121.004521816,274122.051588298,3,1,70,4,8
2,163,466.409396554809,0,0,274123.828084969,274124.875152221,3,0,75,16,4
2,164,574.410964152776,0,0,274126.42811592,274127.475183556,3,0,79,4,16
2,165,576.189868734218,0,0,274129.216385081,274130.263452718,3,0,100,4,4
2,166,504.251059086528,1,0,274132.028180747,274133.075250309,3,1,87,0,8
2,167,707.043103931937,0,0,274134.67527587,274135.722333883,3,0,90,8,4
2,168,600.539034523536,1,0,274137.45177793,274138.498844027,3,1,84,8,0
2,169,510.292251419742,1,0,274140.192985614,274141.240042857,3,1,66,0,0
2,170,496.465993579477,0,0,274142.79301772,274143.840081122,3,0,85,8,0
2,171,613.534931617323,0,0,274145.404802684,274146.451883794,3,0,78,16,8
2,172,462.150573497638,1,0,274148.13425289,274149.181308593,3,1,65,0,16
2,173,600.710727099795,1,0,274150.66369509,274151.710755797,3,1,92,16,8
2,174,453.494726272766,1,0,274153.463731738,274154.510790521,3,1,76,4,16
2,175,528.059354692232,0,0,274155.993175092,274157.040236569,3,0,87,8,16
2,176,629.67557477532,1,0,274158.734409338,274159.781502383,3,1,70,16,8
2,177,571.284696168732,0,0,274161.416761881,274162.463824898,3,0,69,0,8
2,178,692.826495680492,0,0,274164.087382738,274165.134465389,3,0,71,4,4
2,179,621.756542881485,0,0,274166.840362914,274167.88743594,3,0,78,16,16
2,180,469.924475124571,1,0,274169.59333616,274170.640396867,3,1,75,4,0
2,181,584.499251097441,1,0,274172.240413959,274173.287491605,3,1,97,8,16
2,182,613.251600298099,1,0,274174.922802688,274175.969866476,3,1,93,4,4
2,183,534.00546166813,1,0,274177.652255205,274178.699311293,3,1,93,0,0
2,184,518.146224960219,1,0,274180.428753415,274181.475822207,3,1,95,16,16
2,185,572.20513781067,1,0,274183.075845458,274184.122910401,3,1,67,0,0
2,186,607.514912087936,1,0,274185.840581186,274186.887641124,3,1,83,0,8
2,187,681.42318201717,0,0,274188.652378777,274189.699442949,3,0,92,8,4
2,188,565.506047219969,0,0,274191.511235535,274192.558302402,3,0,67,0,16
2,189,565.174210874829,1,0,274194.334797533,274195.38186286,3,1,70,0,16
2,190,494.258627411909,0,0,274197.146509662,274198.193656601,3,0,73,8,16
2,191,489.751889428589,1,0,274199.828986932,274200.876105769,3,1,84,8,4
2,192,584.155480959453,1,0,274202.405477905,274203.452546697,3,1,91,0,4
2,193,552.487187902443,0,0,274205.205511089,274206.252376486,3,0,69,8,8
2,194,595.781686948612,0,0,274207.887915986,274208.93496938,3,0,83,4,16
2,195,517.718918330502,0,0,274210.687937621,274211.734996019,3,0,76,4,16
2,196,621.327696368098,1,0,274213.323252169,274214.370325195,3,1,83,16,16
2,197,599.918862455525,0,0,274216.158581268,274217.205645055,3,0,62,8,4
2,198,561.239524919074,0,0,274218.970380783,274220.017450345,3,0,90,0,8
2,199,562.247352674603,0,0,274221.617470902,274222.664538154,3,0,62,8,0
2,200,628.213877964299,1,0,274224.323378821,274225.370456467,3,1,90,0,4
2,201,590.142393833958,1,0,274227.170473867,274228.217541504,3,1,70,0,8
2,202,524.453040387016,0,0,274229.899925613,274230.946984011,3,0,86,0,16
2,203,541.464080335572,0,0,274232.65289732,274233.699964571,3,0,97,4,8
2,204,631.04680570541,0,0,274235.335279889,274236.382346756,3,0,62,16,0
2,205,545.63282255549,1,0,274238.064725476,274239.111806587,3,1,91,16,0
2,206,507.874311646447,0,0,274240.72359155,274241.770696913,3,0,69,0,4
2,207,551.706351630855,0,0,274243.370692063,274244.417730828,3,0,62,16,4
2,208,425.508064450696,0,0,274246.158940052,274247.205998834,3,0,63,16,0
2,209,509.882653015666,0,0,274248.841320312,274249.888381404,3,0,73,4,16
2,210,621.221447130665,0,0,274251.453116824,274252.500187156,3,0,100,8,8
2,211,472.528736048844,0,0,274254.229618114,274255.276681517,3,0,86,8,16
2,212,504.9601571518,1,0,274256.900235892,274257.947301604,3,1,78,4,8
2,213,412.808202323504,1,0,274259.641454355,274260.688515832,3,1,63,0,4
2,214,683.327968872618,1,0,274262.276775447,274263.323840774,3,1,92,16,8
2,215,713.135928090196,0,0,274265.088576887,274266.14720139,3,0,83,16,4
2,216,668.556246848311,1,0,274267.947449429,274268.994497818,3,1,100,4,0
2,217,495.880852860864,0,0,274270.806297718,274271.853357271,3,0,83,4,4
2,218,388.461731257848,1,0,274273.488671049,274274.535738301,3,1,88,8,16
2,219,527.900365821552,1,0,274276.124000225,274277.171065552,3,1,69,4,8
2,220,601.150737435091,0,0,274278.888734798,274279.935798201,3,0,85,8,4
2,221,574.732406588737,1,0,274281.665304996,274282.712306035,3,1,99,8,0
2,222,487.987228378188,0,0,274284.429976051,274285.477051772,3,0,97,4,4
2,223,520.780127902981,1,0,274287.12420079,274288.171199134,3,1,64,16,16
2,224,708.47785344813,0,0,274289.712394191,274290.759462213,3,0,100,4,0
2,225,663.631056318991,1,0,274292.524188702,274293.571258264,3,1,79,16,4
2,226,644.616679579485,0,0,274295.418367938,274296.465413632,3,0,63,16,16
2,227,580.848898040131,1,0,274298.112491047,274299.171128454,3,1,72,4,0
2,228,642.502089031041,1,0,274300.818405125,274301.865472377,3,1,95,8,8
2,229,523.032534460071,1,0,274303.700796087,274304.74785641,3,1,89,16,4
2,230,431.651271414012,1,0,274306.383182121,274307.430246679,3,1,67,0,16
2,231,652.661978732795,0,0,274309.042032027,274310.08909543,3,0,100,4,0
2,232,602.12006920483,0,0,274311.806770065,274312.853886977,3,0,69,16,8
2,233,543.374256580137,0,0,274314.489155715,274315.536220657,3,0,95,8,8
2,234,479.561202868354,0,0,274317.24213127,274318.289192363,3,0,73,0,0
2,235,600.107493286487,1,0,274319.830398584,274320.877461216,3,1,100,4,8
2,236,440.888409677427,1,0,274322.618663126,274323.665773109,3,1,68,0,4
2,237,602.578942663968,1,0,274325.206933905,274326.253996922,3,1,89,16,0
2,238,482.02495300211,1,0,274327.877555532,274328.92461239,3,1,68,8,0
2,239,695.544705027714,0,1,274330.559943491,274331.607003814,3,1,81,16,0
2,240,663.526346965227,0,0,274333.359956657,274334.407038922,3,0,80,8,8
2,241,544.173820468131,1,0,274369.183920938,274370.23098896,4,1,83,0,16
2,242,583.031394984573,0,0,274371.972194335,274373.019284684,4,0,66,4,8
2,243,552.42391891079,1,0,274374.701639922,274375.748701014,4,1,63,8,4
2,244,495.127869246062,0,0,274377.336980262,274378.384024416,4,0,77,16,4
2,245,488.6143298354,0,0,274380.066400056,274381.113467693,4,0,77,16,8
2,246,581.00534544792,0,0,274382.795846413,274383.842917515,4,0,90,0,4
2,247,605.134698445909,0,0,274385.595886911,274386.642953393,4,0,62,0,4
2,248,587.154326902237,1,0,274388.301801759,274389.348862852,4,1,69,8,4
2,249,553.742795076687,1,0,274391.031242726,274392.078303819,4,1,95,16,0
2,250,646.850608056411,1,0,274393.748921597,274394.795981534,4,1,82,16,16
2,251,588.208350003697,1,0,274396.619546227,274397.666603855,4,1,82,8,8
2,252,476.454567920882,1,0,274399.384286189,274400.431346897,4,1,97,8,0
2,253,602.865738561377,1,0,274401.94901468,274402.996110034,4,1,61,4,4
2,254,568.464857176878,0,0,274404.631406104,274405.678469506,4,0,62,8,16
2,255,625.73665427044,0,0,274407.254950085,274408.302028116,4,0,90,0,16
2,256,574.202700285241,0,0,274409.972639734,274411.019706601,4,0,69,16,16
2,257,845.574770472012,1,0,274412.655030388,274413.702094175,4,1,91,8,0
2,258,708.794676349498,0,0,274415.619771044,274416.666845995,4,0,97,0,4
2,259,406.301207141951,0,0,274418.443333041,274419.490397214,4,0,74,0,8
2,260,770.269092172384,1,0,274420.949243732,274421.996307519,4,1,88,16,8
2,261,589.316652563866,1,0,274423.796333774,274424.843401411,4,1,95,8,8
2,262,574.042941443622,1,0,274426.631655944,274427.678736284,4,1,73,4,0
2,263,612.577148713171,0,0,274429.41992703,274430.466991972,4,0,68,0,4
2,264,596.65939793922,1,0,274432.23172924,274433.27881266,4,1,68,16,8
2,265,709.670847456437,0,0,274435.031762424,274436.078828906,4,0,97,0,8
2,266,713.515452574939,0,0,274437.972975805,274439.020039593,4,0,100,16,16
2,267,531.245291582309,0,0,274440.80829759,274441.855365997,4,0,68,4,8
2,268,778.40678190114,0,0,274443.525984545,274444.573047562,4,0,71,16,8
2,269,612.666074710432,0,0,274446.54954993,274447.596620262,4,0,98,16,0
2,270,611.88113928074,0,0,274449.349641628,274450.396640742,4,0,62,8,8
2,271,541.362450574525,0,0,274452.079024081,274453.126082864,4,0,87,16,4
2,272,571.250049746595,1,0,274454.784942779,274455.832008876,4,1,77,4,16
2,273,655.173849023413,1,0,274457.584968648,274458.632036285,4,1,98,16,0
2,274,725.454631843604,1,0,274460.349708611,274461.396775478,4,1,61,16,4
2,275,543.809647439048,1,0,274463.267398953,274464.314471209,4,1,85,4,16
2,276,548.384908470325,1,0,274465.902708881,274466.949776903,4,1,88,8,0
2,277,523.636538186111,1,0,274468.514510398,274469.561573031,4,1,94,0,0
2,278,547.74125374388,1,0,274471.279251516,274472.326323387,4,1,80,0,8
2,279,784.725146193523,0,0,274474.067522987,274475.114580615,4,0,73,0,0
2,280,550.123777124099,0,0,274477.102851625,274478.149908098,4,0,64,4,4
2,281,754.769409017172,0,0,274479.738221992,274480.785246898,4,0,71,8,16
2,282,449.66051512165,1,0,274482.632327316,274483.679386868,4,1,78,0,8
2,283,663.411243644077,0,0,274485.279504435,274486.326516638,4,0,89,4,0
2,284,559.894856240135,1,0,274488.044161246,274489.09126276,4,1,97,8,16
2,285,623.049241723493,1,0,274490.761837807,274491.808899669,4,1,71,0,16
2,286,551.12236586865,1,0,274493.514811053,274494.561880614,4,1,83,4,8
2,287,888.107952137943,1,0,274496.267788148,274497.314838077,4,1,64,16,0
2,288,658.538792748004,0,0,274499.244293596,274500.291347759,4,0,88,8,0
2,289,688.154994393699,1,0,274501.973735718,274503.020796811,4,1,78,16,4
2,290,663.775031745899,0,0,274504.903179303,274505.950243861,4,0,83,0,16
2,291,589.136490831152,1,0,274507.726745151,274508.773808553,4,1,85,8,8
2,292,591.263400157914,0,0,274510.397357154,274511.44442787,4,0,91,0,0
2,293,497.144294786267,1,0,274513.232687793,274514.2797562,4,1,99,4,4
2,294,486.528996261768,0,0,274515.915077292,274516.962140309,4,0,64,8,8
2,295,552.695316378959,0,0,274518.515102853,274519.562165871,4,0,96,4,8
2,296,441.116306581534,1,0,274521.303421675,274522.350435417,4,1,69,0,0
2,297,615.701106900815,0,0,274523.973994412,274525.021060509,4,0,64,0,8
2,298,439.300445723347,1,0,274526.762266653,274527.809325436,4,1,87,0,16
2,299,598.283548257314,1,0,274529.421119639,274530.468184966,4,1,79,8,16
2,300,562.48679838609,1,0,274532.127030253,274533.17409096,4,1,88,4,16
2,301,564.495139697101,0,0,274534.880003114,274535.927070366,4,0,81,16,16
2,302,535.474087751936,0,0,274537.527093617,274538.574162409,4,0,77,16,4
2,303,1037.42353006965,0,0,274540.233006156,274541.280077257,4,0,93,4,8
2,304,475.885595602449,0,0,274543.362461598,274544.409582744,4,0,74,4,16
2,305,476.175856194459,1,0,274545.927200482,274546.97425734,4,1,97,16,8
2,306,472.457903204486,0,1,274548.597809791,274549.644878198,4,1,63,4,0
2,307,632.744098606054,1,0,274551.268472994,274552.315512144,4,1,88,4,0
2,308,576.399672485422,0,0,274554.091998805,274555.139066442,4,0,87,8,4
2,309,726.686891866848,1,0,274556.762613503,274557.809689224,4,1,63,8,4
2,310,917.339962732513,0,0,274559.550889594,274560.597951842,4,0,62,8,4
2,311,722.020010114647,0,0,274562.680394311,274563.727404204,4,0,88,8,16
2,312,579.748447926249,0,0,274565.586255188,274566.63336286,4,0,69,4,16
2,313,733.37558854837,1,0,274568.409819495,274569.456887902,4,1,92,16,16
2,314,543.473191559315,1,0,274571.374553221,274572.421623938,4,1,94,4,4
2,315,672.661855525803,0,0,274574.139302038,274575.186405861,4,0,91,0,0
2,316,803.349172521848,0,0,274576.915799094,274577.962860186,4,0,90,8,0
2,317,574.294705933426,0,0,274579.82171502,274580.868784966,4,0,62,4,0
2,318,610.139960888773,0,0,274582.609983411,274583.657049893,4,0,84,16,0
2,319,784.432190877851,1,0,274585.280602729,274586.327669981,4,1,97,4,4
2,320,634.492591314483,1,0,274588.198286527,274589.245365712,4,1,67,0,4
2,321,626.535063260235,1,0,274624.081062834,274625.128126621,5,1,78,0,4
2,322,620.826862112153,0,0,274626.892901616,274627.939935376,5,0,76,16,8
2,323,551.81452567922,0,0,274629.657599618,274630.704728463,5,0,73,8,8
2,324,569.050767750014,0,0,274632.422341505,274633.469401828,5,0,69,4,16
2,325,559.051406744402,0,0,274635.069433549,274636.116499261,5,0,94,8,4
2,326,511.968371458352,1,0,274637.869461728,274638.916532829,5,1,68,4,16
2,327,540.697623044252,1,0,274640.457769462,274641.504820931,5,1,92,16,8
2,328,483.824260591064,1,0,274643.163650819,274644.210707677,5,1,92,4,16
2,329,437.089614919387,0,0,274645.834267057,274646.881331229,5,0,65,0,4
2,330,585.152914805803,1,0,274648.434296468,274649.4813591,5,1,71,0,0
2,331,567.00893479865,0,0,274651.234326957,274652.281390359,5,0,61,4,4
2,332,683.588972431608,1,0,274653.916712606,274654.963777163,5,1,82,16,0
2,333,728.548563085496,1,0,274656.763808422,274657.81086682,5,1,89,0,8
2,334,543.675296066795,0,0,274659.575601393,274660.622673265,5,0,87,4,0
2,335,606.633736402728,0,0,274662.187431012,274663.234525597,5,0,84,0,8
2,336,553.644630068447,0,0,274665.034526444,274666.081558664,5,0,93,8,16
2,337,593.183585442603,0,0,274667.763934304,274668.811006946,5,0,97,8,0
2,338,627.574842772447,1,0,274670.481613559,274671.528685046,5,1,96,16,16
2,339,599.729461653624,0,0,274673.305175942,274674.352292469,5,0,86,16,16
2,340,541.208081238437,1,0,274676.116975457,274677.164036935,5,1,84,0,8
2,341,787.187741487287,1,0,274678.917005561,274679.964073968,5,1,70,16,8
2,342,507.554024166893,1,0,274681.799398448,274682.846456461,5,1,88,8,0
2,343,526.439053996,0,0,274684.528840955,274685.575900893,5,0,94,0,0
2,344,555.098627635743,0,0,274687.234753493,274688.28182421,5,0,83,4,4
2,345,723.005895153619,0,0,274689.975965412,274691.023032664,5,0,68,4,8
2,346,446.094236744102,1,0,274692.834821786,274693.881880953,5,1,95,0,16
2,347,643.982263980433,1,0,274695.375822037,274696.423097953,5,1,80,16,16
2,348,524.336012254935,0,0,274698.152525062,274699.199593084,5,0,62,0,16
2,349,550.213473034091,1,0,274700.846673579,274701.89374391,5,1,70,16,0
2,350,533.07000658242,1,0,274703.446709534,274704.493799499,5,1,73,4,4
2,351,684.631446667481,0,0,274706.082041405,274707.129104807,5,0,62,16,16
2,352,728.815725946333,0,0,274708.987960796,274710.035023813,5,0,100,16,0
2,353,462.479715119116,0,0,274711.929164168,274712.976224106,5,0,86,0,4
2,354,616.331288067158,0,0,274714.517428787,274715.564499889,5,0,61,0,4
2,355,602.945425431244,1,0,274717.246875529,274718.293944706,5,1,83,4,8
2,356,510.326127987355,0,0,274719.917544892,274720.964562869,5,0,77,0,0
2,357,494.216281687841,0,0,274722.670469632,274723.71752957,5,0,79,16,4
2,358,444.658332387917,0,0,274725.3997021,274726.446972077,5,0,97,8,0
2,359,464.768692967482,1,0,274727.99994617,274729.047008803,5,1,78,4,4
2,360,523.248497513123,0,0,274730.682328355,274731.729392527,5,0,73,4,16
2,361,502.397856966127,0,0,274733.40000915,274734.447064083,5,0,98,8,8
2,362,524.632432207,1,0,274736.105925153,274737.152982011,5,1,82,0,4
2,363,468.721087207086,1,0,274738.717721281,274739.764780833,5,1,78,0,8
2,364,504.353458702099,0,0,274741.294218798,274742.341279891,5,0,94,8,8
2,365,447.176746965852,1,0,274743.894240895,274744.941308532,5,1,87,8,0
2,366,481.109130894765,0,0,274746.600164212,274747.647224535,5,0,93,16,4
2,367,499.017129826825,1,0,274749.235548053,274750.282552171,5,1,87,8,4
2,368,774.089829763398,1,0,274751.906113091,274752.953171874,5,1,69,16,8
2,369,525.47203208087,0,0,274754.870848742,274755.917913299,5,0,89,4,8
2,370,665.936202567536,1,0,274757.494413511,274758.541478838,5,1,93,0,0
2,371,528.278012527153,0,0,274760.223849089,274761.270913262,5,0,69,4,0
2,372,676.859469851479,1,0,274762.953298911,274764.000412743,5,1,72,8,16
2,373,558.663751056883,1,0,274765.847453125,274766.894511137,5,1,72,0,16
2,374,462.757656932808,1,0,274768.600459092,274769.647485923,5,1,65,8,4
2,375,453.346131369472,0,0,274771.129862795,274772.176922733,5,0,95,0,0
2,376,560.182807035744,1,0,274773.824016316,274774.871073559,5,1,82,4,8
2,377,454.117208137177,0,0,274776.471089882,274777.518170222,5,0,67,0,16
2,378,986.321887234226,1,0,274779.082903718,274780.12996404,5,1,66,16,4
2,379,599.341420980636,0,0,274782.200580509,274783.247650071,5,0,70,4,16
2,380,563.529272680171,1,0,274785.012385029,274786.059444582,5,1,95,4,4
2,381,692.498893884476,0,0,274787.753588478,274788.80065804,5,0,84,16,4
2,382,592.25582954241,1,1,274790.553622817,274791.600694303,5,0,71,8,16
2,383,515.065382409375,0,0,274793.247775568,274794.294832811,5,0,88,16,4
2,384,663.28767122468,1,0,274795.906629708,274796.953691186,5,1,84,16,16
2,385,619.844826753251,1,0,274798.683189898,274799.730196711,5,1,62,8,0
2,386,500.122352794278,1,0,274801.400812178,274802.447874426,5,1,63,8,16
2,387,585.392360517289,0,0,274803.977304691,274805.024376563,5,0,94,8,16
2,388,497.732515097596,0,0,274806.694992801,274807.742105093,5,0,92,0,8
2,389,830.882350390311,1,0,274809.448146978,274810.495079879,5,1,86,8,8
2,390,541.982622700743,1,0,274812.412504229,274813.459767025,5,1,68,8,4
2,391,705.73077199515,1,0,274815.059793741,274816.106911808,5,1,94,16,0
2,392,843.462489661761,1,0,274817.836300036,274818.883365748,5,1,65,8,4
2,393,569.225925020874,1,0,274820.824566811,274821.871637912,5,1,72,4,0
2,394,550.781675381586,1,0,274823.459953346,274824.506952845,5,1,99,8,8
2,395,574.584581539966,0,0,274826.259931095,274827.306993343,5,0,86,4,8
2,396,510.878546978347,0,0,274828.965899068,274830.012906651,5,0,68,0,16
2,397,502.900616033003,0,1,274831.718874624,274832.765880667,5,1,83,16,0
2,398,841.442984412424,1,0,274834.401200604,274835.448270936,5,1,80,16,8
2,399,703.086090215947,0,0,274837.389470844,274838.436535016,5,0,93,4,0
2,400,645.038596820086,0,0,274840.142447554,274841.189508262,5,0,69,4,0
2,401,531.553645327222,1,0,274876.013461765,274877.060528247,6,1,86,0,4
2,402,483.344984124415,0,0,274878.695847799,274879.742909661,6,0,74,8,16
2,403,511.698898801114,1,0,274881.378258856,274882.425362294,6,1,64,8,0
2,404,422.342915378977,0,0,274884.060620637,274885.10768404,6,0,66,4,0
2,405,491.111571551301,1,0,274886.554762686,274887.601838407,6,1,95,0,16
2,406,556.292776484042,1,0,274889.166563434,274890.213625681,6,1,79,8,16
2,407,612.431248533539,0,0,274891.966588918,274893.01365309,6,0,81,8,0
2,408,549.860848754179,0,0,274894.801918402,274895.848991429,6,0,62,4,4
2,409,623.007280984893,1,0,274897.554891648,274898.60196198,6,1,89,16,16
2,410,557.933865115047,0,0,274900.354931761,274901.402054063,6,0,91,0,0
2,411,653.214012738317,0,0,274903.166723577,274904.213792369,6,0,99,8,8
2,412,458.066907594912,1,0,274906.013817854,274907.060887415,6,1,77,8,8
2,413,468.845814524684,1,0,274908.707989853,274909.755094446,6,1,88,8,8
2,414,630.264564999379,1,0,274911.331532679,274912.378589922,6,1,91,4,16
2,415,762.30694464175,0,0,274914.037441368,274915.084504,6,0,79,8,8
2,416,679.998056555633,0,0,274916.97865398,274918.025717767,6,0,61,16,16
2,417,551.600872306153,1,0,274919.755157579,274920.802224446,6,1,72,16,8
2,418,643.912585976068,1,0,274922.472846074,274923.519945277,6,1,68,4,8
2,419,474.012375576422,0,0,274925.190508005,274926.237576412,6,0,74,4,4
2,420,509.034968912601,0,0,274927.837606208,274928.884668071,6,0,88,16,16
2,421,453.046631708276,0,0,274930.496459194,274931.543525676,6,0,89,0,4
2,422,413.12079061754,0,0,274933.143550467,274934.19061233,6,0,67,0,0
2,423,676.422154239845,1,0,274935.672993052,274936.720054529,6,1,91,4,4
2,424,687.248411297333,1,0,274938.461258364,274939.508327925,6,1,90,8,0
2,425,523.56609038543,1,0,274941.237794685,274942.284833065,6,1,95,8,8
2,426,584.171264374163,1,0,274943.861327503,274944.908396294,6,1,67,4,16
2,427,718.100337602664,0,0,274946.661361071,274947.708424858,6,0,79,16,0
2,428,561.364637163933,1,0,274949.579039094,274950.626110196,6,1,92,0,8
2,429,734.102394839283,0,0,274952.367307101,274953.414385517,6,0,70,8,16
2,430,478.273893415462,0,0,274955.273218793,274956.3202872,6,0,88,8,16
2,431,638.074268063065,1,0,274957.920328544,274958.967380783,6,1,68,0,16
2,432,496.927561762277,1,0,274960.767467091,274961.814477369,6,1,79,8,4
2,433,472.006728989072,0,0,274963.332145922,274964.379212019,6,0,80,4,4
2,434,608.472694992088,1,0,274965.908643824,274966.955709921,6,1,85,16,8
2,435,638.258279417641,0,0,274968.59101677,274969.638090951,6,0,63,4,8
2,436,671.31526209414,0,0,274971.496747864,274972.544013421,6,0,98,16,8
2,437,635.987394722179,0,0,274974.332277579,274975.37934714,6,0,82,4,8
2,438,540.440469107125,0,0,274977.120542121,274978.167603983,6,0,84,16,4
2,439,513.707240170334,0,0,274979.826456199,274980.873527685,6,0,94,0,16
2,440,522.921280702576,0,0,274982.450013269,274983.497087065,6,0,91,16,0
2,441,467.974262894131,0,0,274985.191226728,274986.238295134,6,0,91,0,0
2,442,538.443291676231,0,0,274987.779494811,274988.826558598,6,0,98,4,0
2,443,745.627356052864,1,0,274990.485403115,274991.532465748,6,1,80,16,4
2,444,566.842246742453,1,0,274993.344262568,274994.391325585,6,1,69,4,0
2,445,572.735229099635,1,0,274996.050185116,274997.097249288,6,1,95,8,4
2,446,507.853523769882,0,0,274998.861976932,274999.909041874,6,0,67,16,16
2,447,562.424049712718,0,0,275001.544152905,275002.591422134,6,0,98,0,0
2,448,453.862363938242,1,0,275004.167915801,275005.214985363,6,1,77,8,4
2,449,640.496827370953,0,0,275006.791484805,275007.838551287,6,0,91,0,0
2,450,639.503628131934,0,0,275009.497391184,275010.544461901,6,0,66,16,0
2,451,385.298122128006,1,0,275012.30918916,275013.356256027,6,1,79,0,4
2,452,691.326687752735,1,0,275014.803335059,275015.850406545,6,1,82,4,8
2,453,511.204608890694,1,0,275017.591603835,275018.638669162,6,1,75,4,4
2,454,488.313675276004,1,0,275020.309293484,275021.356349572,6,1,97,16,8
2,455,440.231666318141,1,0,275022.850495471,275023.897560028,6,1,95,4,16
2,456,501.430065196473,0,0,275025.368172493,275026.415237051,6,0,69,0,4
2,457,796.772499452345,1,0,275028.050558913,275029.097762441,6,1,92,8,0
2,458,539.031896914821,1,0,275031.050591249,275032.097661196,6,1,61,16,0
2,459,479.766002157703,1,0,275033.791807788,275034.838867725,6,1,98,0,8
2,460,584.970828262158,0,0,275036.450715823,275037.497718401,6,0,71,4,16
2,461,756.466316932347,0,0,275039.238923006,275040.285986408,6,0,99,8,0
2,462,499.208455439657,1,0,275042.22719671,275043.274260882,6,1,94,0,4
2,463,712.007175548933,1,0,275044.862518187,275045.909642798,6,1,73,16,4
2,464,766.226617095526,0,0,275047.780194285,275048.827266157,6,0,70,0,8
2,465,553.3616837929,0,0,275050.697887322,275051.744944565,6,0,100,0,8
2,466,617.437280830927,1,0,275053.392028524,275054.439095006,6,1,92,0,16
2,467,505.196523154154,1,0,275056.133243138,275057.180311544,6,1,82,0,16
2,468,692.446154251229,0,0,275058.709745275,275059.756809832,6,0,67,4,8
2,469,618.856631976087,1,0,275061.627460254,275062.674495939,6,1,70,4,0
2,470,496.691195759922,1,1,275064.415686685,275065.462760096,6,0,79,8,4
2,471,532.54607465351,0,0,275067.015719176,275068.062791817,6,0,69,16,8
2,472,583.888703025877,0,0,275069.63928125,275070.686389693,6,0,75,8,4
2,473,587.529663811438,0,0,275072.427554262,275073.474619589,6,0,83,8,16
2,474,551.49693286512,1,0,275075.07464669,275076.121707013,6,1,72,16,4
2,475,644.884612469468,0,1,275077.792319786,275078.839430153,6,1,97,4,16
2,476,957.823227334302,1,0,275080.604116991,275081.651180009,6,1,98,16,16
2,477,521.838770539034,0,0,275083.792392158,275084.839455561,6,0,95,0,8
2,478,813.788543920964,1,0,275086.498352817,275087.545371179,6,1,87,16,4
2,479,696.183740161359,0,0,275089.368926632,275090.415989264,6,0,81,16,0
2,480,522.575585811865,1,0,275092.204300772,275093.251323368,6,1,97,4,0
2,481,589.986484614201,0,0,275128.004679265,275129.051748057,7,0,98,16,8
2,482,559.013680613134,0,0,275130.663534176,275131.710605277,7,0,100,0,16
2,483,566.276739060413,1,0,275133.322384852,275134.369458263,7,1,63,4,8
2,484,506.580457848031,0,0,275136.087134439,275137.134196301,7,0,75,8,0
2,485,569.891137478407,1,0,275138.816577331,275139.863648432,7,1,70,16,0
2,486,509.630118554924,1,0,275141.49896298,275142.546034466,7,1,78,0,8
2,487,511.774351121858,0,0,275144.216661868,275145.263763382,7,0,73,0,16
2,488,479.419537237845,0,0,275146.804907239,275147.851972181,7,0,95,0,8
2,489,534.71301990794,1,0,275149.369647279,275150.416706832,7,1,72,0,0
2,490,626.344507560134,0,0,275152.146148954,275153.193210431,7,0,97,4,16
2,491,814.38792811241,0,0,275155.005002248,275156.052071039,7,0,96,16,0
2,492,515.347943757661,1,0,275158.005036894,275159.052104916,7,1,82,16,4
2,493,426.375766401179,0,0,275160.616829942,275161.663896039,7,0,95,16,16
2,494,482.004935038276,0,0,275163.193529564,275164.240408185,7,0,75,8,8
2,495,644.023069762625,1,0,275165.793367649,275166.840444525,7,1,66,4,0
2,496,556.307405000553,0,0,275168.522805537,275169.569887803,7,0,84,0,0
2,497,540.994427981786,1,0,275171.311078548,275172.358144645,7,1,92,8,16
2,498,767.266781651415,0,0,275174.028757034,275175.075827365,7,0,82,16,8
2,499,617.93195566861,0,0,275176.911147995,275177.958210243,7,0,91,0,16
2,500,588.459729508031,1,0,275179.581763078,275180.62883264,7,1,66,4,16
2,501,587.335643474944,0,0,275182.381802036,275183.428866593,7,0,87,16,16
2,502,507.006609637756,0,0,275185.123010105,275186.170098145,7,0,73,0,0
2,503,609.494381351396,1,0,275187.699521866,275188.746576415,7,1,73,0,4
2,504,723.233022086788,0,0,275190.393655369,275191.440720696,7,0,91,4,8
2,505,539.733680780046,0,0,275193.217226606,275194.264285389,7,0,74,4,0
2,506,423.712221498135,1,0,275196.017274033,275197.146463082,7,1,96,0,8
2,507,462.201003392693,0,0,275198.746703067,275199.793764159,7,0,86,8,8
2,508,615.523254964501,1,0,275201.311436177,275202.358501889,7,1,80,8,4
2,509,654.813140572514,0,0,275204.029121592,275205.07617768,7,0,89,8,0
2,510,577.62269343948,1,0,275206.735049528,275207.782153737,7,1,85,8,4
2,511,712.15808019042,0,0,275209.511529646,275210.558591508,7,0,72,4,4
2,512,443.514998303726,0,0,275212.417452886,275213.464509744,7,0,86,4,8
2,513,526.168426440563,1,0,275214.958656028,275216.005732134,7,1,77,8,16
2,514,620.917712920345,0,0,275217.558686593,275218.605753075,7,0,80,16,8
2,515,535.676962172147,1,0,275220.299901592,275221.346967304,7,1,74,4,0
2,516,465.501273691189,1,0,275223.088163054,275224.135227996,7,1,75,8,16
2,517,693.619515222963,0,0,275225.6881967,275226.735251248,7,0,82,0,16
2,518,551.228230120614,0,0,275228.52352041,275229.570584967,7,0,87,4,0
2,519,587.424569472205,0,0,275231.147077095,275232.194148966,7,0,90,8,4
2,520,579.144444142003,1,0,275233.935351261,275234.982411968,7,1,88,0,4
2,521,436.625352012925,0,0,275236.664803392,275237.71186179,7,0,76,0,0
2,522,435.308400541544,0,0,275239.194234043,275240.241301679,7,0,68,8,0
2,523,447.856972983573,0,0,275241.876627776,275242.923686559,7,0,96,0,8
2,524,861.225358268712,0,0,275244.547239394,275245.594309341,7,0,94,8,8
2,525,509.692482242826,0,0,275247.570805164,275248.617871646,7,0,68,4,16
2,526,578.839940018952,0,0,275250.335604796,275251.382611609,7,0,90,0,8
2,527,433.538350043818,0,1,275253.017930007,275254.064999568,7,1,79,16,4
2,528,753.794302872848,1,0,275255.688558948,275256.73567355,7,1,62,4,4
2,529,614.520816656295,0,0,275258.629757701,275259.676823798,7,0,69,8,0
2,530,604.421365831513,1,0,275261.476848513,275262.523918459,7,1,90,16,16
2,531,783.701535023283,1,0,275264.135706888,275265.182769905,7,1,81,4,4
2,532,629.58972848719,1,0,275266.994564031,275268.041635518,7,1,74,16,8
2,533,582.110183371697,0,0,275269.712248291,275270.759304764,7,0,95,0,4
2,534,634.842520754319,1,0,275272.406396422,275273.453509869,7,1,96,4,8
2,535,581.14624110749,1,0,275275.229951105,275276.277027212,7,1,78,8,4
2,536,529.753182898276,1,0,275278.006469719,275279.053521572,7,1,70,0,4
2,537,690.636067767628,0,0,275280.700620545,275281.747676248,7,0,71,4,4
2,538,713.718711980619,0,0,275283.571271737,275284.618302033,7,0,93,16,0
2,539,565.561481576879,1,0,275286.406565805,275287.453629207,7,1,63,0,16
2,540,769.113054382615,1,0,275289.136002538,275290.183075564,7,1,100,16,16
2,541,588.667993317358,1,0,275292.018393884,275293.065460751,7,1,71,4,4
2,542,791.505078668706,0,0,275294.759605418,275295.80667267,7,0,61,16,4
2,543,678.962511592545,1,0,275297.747871808,275298.794940215,7,1,83,8,16
2,544,678.843617497478,1,0,275300.665552141,275301.724192416,7,1,66,8,0
2,545,552.750750735868,0,0,275303.547942718,275304.595068869,7,0,73,8,16
2,546,518.761007639114,0,0,275306.336213804,275307.383274127,7,0,77,16,4
2,547,693.235324171837,0,0,275309.018595604,275310.065661316,7,0,71,8,8
2,548,443.669367639814,1,0,275311.795104593,275312.842164531,7,1,63,8,8
2,549,659.328732639551,1,0,275314.383363823,275315.43042838,7,1,80,16,16
2,550,501.248363580089,1,0,275317.124576512,275318.171634524,7,1,88,0,0
2,551,488.446871808264,0,0,275319.842252687,275320.88930685,7,0,73,8,4
2,552,582.219512318261,1,0,275322.477583018,275323.52465181,7,1,68,16,4
2,553,601.447542372625,0,0,275325.301145016,275326.348206878,7,0,63,16,8
2,554,624.048985366244,1,0,275328.124703549,275329.171828545,7,1,89,16,0
2,555,412.025576632004,1,0,275330.924744047,275331.971805909,7,1,76,4,0
2,556,553.132247063331,1,0,275333.442419529,275334.489477927,7,1,80,4,16
2,557,597.12327591842,1,0,275336.136561886,275337.183631833,7,1,93,16,0
2,558,585.85970319109,1,0,275338.924870314,275339.971900224,7,1,90,0,4
2,559,588.997134938836,1,0,275341.689573705,275342.736694082,7,1,68,4,8
2,560,598.087988095358,1,0,275344.40725219,275345.454314823,7,1,83,4,16
2,561,723.477857303806,1,0,275380.254731043,275381.301800989,8,1,65,4,8
2,562,560.711743368302,1,0,275383.219481707,275384.266549729,8,1,73,4,8
2,563,590.287139115389,0,0,275385.948924214,275386.995983382,8,0,72,16,8
2,564,679.901431372855,0,0,275388.596015103,275389.643072731,8,0,79,4,0
2,565,509.779098501895,0,0,275391.490211662,275392.537228484,8,0,63,0,4
2,566,663.211063947529,1,0,275394.066662215,275395.113730236,8,1,99,4,16
2,567,622.062201844528,1,0,275396.807872208,275397.854932916,8,1,79,0,0
2,568,524.530032591429,1,0,275399.525552619,275400.572612941,8,1,86,0,4
2,569,504.089375492185,0,0,275402.16087525,275403.207944812,8,0,86,8,4
2,570,548.788347514346,0,0,275404.749204928,275405.796208276,8,0,64,16,4
2,571,598.486422677524,0,0,275407.490352173,275408.53742289,8,0,99,0,16
2,572,513.704930315726,0,0,275410.349214321,275411.396279648,8,0,94,16,8
2,573,547.335119917989,0,0,275413.090418156,275414.137483098,8,0,91,8,16
2,574,518.36488279514,1,0,275415.796350712,275416.843400641,8,1,85,16,0
2,575,437.951927480754,0,0,275418.372833601,275419.419943968,8,0,66,16,16
2,576,761.339537682943,1,0,275421.05521848,275422.102285732,8,1,74,0,4
2,577,584.493091737386,1,0,275423.902311216,275424.949386168,8,1,90,8,4
2,578,587.886907567736,1,0,275426.584698406,275427.631766812,8,1,82,8,16
2,579,493.998008838389,0,0,275429.431836952,275430.478861858,8,0,96,4,4
2,580,478.22731314227,0,0,275432.055347827,275433.102418159,8,0,63,0,0
2,581,501.634864369407,0,0,275434.620089407,275435.667151654,8,0,87,16,0
2,582,535.13301233761,1,0,275437.361294011,275438.408363188,8,1,74,0,8
2,583,512.384129338898,1,0,275440.126042443,275441.17310623,8,1,63,16,4
2,584,590.7225299743,1,0,275442.843738636,275443.890820517,8,1,99,0,4
2,585,649.081841809675,1,0,275445.655513129,275446.702580381,8,1,91,4,0
2,586,557.247864664532,0,0,275448.479073202,275449.526140454,8,0,90,4,4
2,587,715.404841001146,0,0,275451.18499267,275452.232059922,8,0,71,4,8
2,588,609.652600309346,0,0,275454.090904746,275455.137973153,8,0,80,16,0
2,589,476.717496232595,0,0,275456.761526758,275457.808591316,8,0,89,0,8
2,590,524.188187206164,1,0,275459.338022351,275460.385094222,8,1,95,4,16
2,591,557.178186718374,1,0,275462.079230035,275463.126296902,8,1,80,4,8
2,592,469.538359320723,1,0,275464.796911985,275465.843980392,8,1,75,8,16
2,593,682.830599311274,0,0,275467.479299559,275468.526367196,8,0,91,16,16
2,594,656.51235828409,0,0,275470.361690136,275471.408752768,8,0,70,16,16
2,595,467.974262894131,0,0,275473.091132258,275474.138194121,8,0,64,0,4
2,596,586.378630541731,1,0,275475.714692023,275476.76175273,8,1,92,16,8
2,597,1227.25547919981,1,0,275478.40883515,275479.455904327,8,1,81,16,8
2,598,446.700935193803,1,0,275481.832416549,275482.879474177,8,1,93,8,0
2,599,482.240146200638,0,0,275484.361854514,275485.408923691,8,0,96,4,0
2,600,563.536971923895,1,0,275486.926592244,275487.97367143,8,1,98,0,8
2,601,508.460222219583,0,0,275489.620739606,275490.667798388,8,0,69,16,0
2,602,577.574958326295,1,0,275492.291358923,275493.338420786,8,1,81,16,8
2,603,561.225281329826,1,0,275494.973743802,275496.020810669,8,1,70,4,0
2,604,546.040111279581,1,0,275497.609066819,275498.656159864,8,1,72,0,8
2,605,566.739077155944,0,0,275500.256160018,275501.303254602,8,0,74,8,8
2,606,480.179450183641,1,0,275503.032662463,275504.07972625,8,1,95,0,16
2,607,527.615879662335,0,0,275505.656221457,275506.703294484,8,0,62,4,16
2,608,529.45830282988,0,0,275508.291554098,275509.338620195,8,0,90,8,8
2,609,600.51709174877,0,0,275510.962167256,275512.009236818,8,0,92,4,4
2,610,567.097090883181,1,0,275513.738676246,275514.785762746,8,1,72,0,16
2,611,607.215412484948,1,0,275516.550474606,275517.597538393,8,1,82,8,8
2,612,592.457934049889,1,0,275519.362271812,275520.409334444,8,1,76,4,4
2,613,610.080291924533,1,0,275522.091712394,275523.138780416,8,1,100,4,16
2,614,606.072078400757,1,0,275524.797626473,275525.84468949,8,1,65,0,16
2,615,678.266502160113,1,0,275527.503545555,275528.550605108,8,1,94,8,8
2,616,705.248031008523,0,0,275530.362405008,275531.409467641,8,0,61,8,16
2,617,665.040013496764,1,0,275533.15066955,275534.197738342,8,1,93,16,0
2,618,556.336277106311,0,0,275535.927159292,275536.974235783,8,0,88,0,8
2,619,764.48736351449,1,0,275538.680144856,275539.727213263,8,1,100,8,8
2,620,616.72240839107,0,0,275541.703734494,275542.750836008,8,0,86,4,0
2,621,622.734343691263,0,0,275544.50374843,275545.550808367,8,0,83,8,0
2,622,634.106860437896,1,0,275547.374365745,275548.421437617,8,1,85,0,0
2,623,654.381214408204,0,0,275550.233225968,275551.280292835,8,0,62,16,4
2,624,565.609986661002,1,0,275553.056791046,275554.103853678,8,1,94,4,16
2,625,671.93851392949,1,0,275555.880352658,275556.927409901,8,1,91,8,0
2,626,452.533478790428,1,0,275558.715694846,275559.762744775,8,1,78,8,0
2,627,454.317387891933,0,0,275561.256882974,275562.303949071,8,0,65,8,4
2,628,469.995307910722,1,0,275563.833388191,275564.880450438,8,1,62,4,4
2,629,566.761019930709,0,0,275566.421650115,275567.468718907,8,0,89,0,0
2,630,570.17292897217,0,0,275569.151101092,275570.198162569,8,0,98,0,16
2,631,647.406876611058,1,0,275571.915633704,275572.962901377,8,1,82,16,4
2,632,459.984783141408,0,0,275574.798262043,275575.845292724,8,0,67,8,4
2,633,626.691357407253,0,0,275577.386506644,275578.433558498,8,0,88,8,16
2,634,524.846085521858,0,0,275580.104165111,275581.151242372,8,0,74,4,8
2,635,580.899481137749,1,0,275582.704202607,275583.751264084,8,1,69,8,4
2,636,574.123398342635,0,0,275585.410108601,275586.457179317,8,0,89,8,0
2,637,579.406602540985,0,0,275588.174855878,275589.221912736,8,0,61,0,0
2,638,544.706221553497,0,0,275590.99841672,275592.045480123,8,0,71,16,4
2,639,470.47265956644,0,0,275593.645503759,275594.692564467,8,0,66,16,16
2,640,571.992254408542,1,0,275596.222004741,275597.269073148,8,1,73,16,16
