sub_id,Trial,RT,Resp,Error,Fix_onset,Disp_onset,block,tid,tloc,fish_setsize,bird_setsize
17,1,901.279020006768,0,0,732665.04212325,732666.089217064,1,0,79,16,4
17,2,523.198081180453,1,0,732668.053976582,732669.101067317,1,1,65,8,8
17,3,625.426004291512,1,0,732670.759945325,732671.807026436,1,1,82,4,16
17,4,575.736783328466,1,0,732673.477668081,732674.524755351,1,1,75,16,8
17,5,613.856772542931,0,0,732676.148333209,732677.195423943,1,0,79,0,0
17,6,661.513784551062,1,0,732678.983710428,732680.030801933,1,1,99,16,16
17,7,820.081514189951,0,0,732681.713201826,732682.76029179,1,0,80,8,8
17,8,968.840438639745,0,0,732684.666228119,732685.713346956,1,0,78,4,8
17,9,858.203043346293,1,0,732687.831031061,732688.878116791,1,1,80,16,0
17,10,815.274506690912,1,0,732690.948770601,732691.995857486,1,1,74,0,16
17,11,1115.88012729771,1,0,732693.831258188,732694.878296953,1,1,82,4,16
17,12,834.653056575917,1,0,732697.125421487,732698.172504523,1,1,84,0,8
17,13,619.308589608409,1,0,732700.172562267,732701.219649152,1,1,63,0,4
17,14,905.341128120199,1,0,732703.031470995,732704.078559035,1,1,70,4,8
17,15,793.099985457957,1,0,732706.125662473,732707.172770916,1,1,75,8,8
17,16,721.955735236406,1,0,732709.019879435,732710.0669694,1,1,67,8,8
17,17,587.792220641859,1,0,732711.808194407,732712.855288606,1,1,76,0,0
17,18,563.727541244589,1,0,732714.620054362,732715.667180127,1,1,79,4,16
17,19,594.393916311674,1,0,732717.302479277,732718.349565392,1,1,89,8,4
17,20,835.735951783136,0,0,732719.984904962,732721.032010325,1,0,81,8,16
17,21,863.965524011292,1,0,732722.99675791,732724.043845565,1,1,80,16,0
17,22,728.213275666349,0,0,732725.961555155,732727.00863973,1,0,74,4,4
17,23,617.245968896896,1,0,732728.926149653,732729.973436205,1,1,78,16,0
17,24,713.684463989921,1,0,732731.608773081,732732.655912705,1,1,68,16,4
17,25,672.579487436451,0,0,732734.455908548,732735.503016605,1,0,68,0,16
17,26,872.624450945295,0,0,732737.361886452,732738.408974492,1,0,91,8,16
17,27,742.710135527886,1,0,732740.361969989,732741.409061108,1,1,70,4,4
17,28,634.203884168528,0,0,732743.350295278,732744.397387552,1,0,96,0,16
17,29,634.214663063176,1,0,732746.209201311,732747.256285501,1,1,85,4,16
17,30,881.449296022765,1,0,732748.973984774,732750.021072814,1,1,82,16,8
17,31,676.162704126909,0,0,732752.009374621,732753.056463045,1,0,99,0,16
17,32,728.321449598297,1,0,732754.86827411,732755.915362919,1,1,71,4,8
17,33,873.475599568337,0,0,732757.7389484,732758.786034515,1,0,63,8,0
17,34,984.812084003352,1,0,732760.856696024,732761.903770205,1,1,92,0,4
17,35,843.835145351477,0,0,732763.974421705,732765.021517829,1,0,90,0,8
17,36,982.262102537788,0,0,732766.998040985,732768.045121711,1,0,67,8,0
17,37,723.961766809225,0,0,732770.233497352,732771.280514944,1,0,80,16,16
17,38,922.460342058912,1,0,732773.115859827,732774.162952871,1,1,96,4,8
17,39,743.04620642215,0,0,732776.104185886,732777.1512797,1,0,62,4,16
17,40,772.682426031679,0,0,732779.092513869,732780.1395919,1,0,83,16,16
17,41,632.681748480536,0,0,732782.10439415,732783.151454472,1,0,94,0,0
17,42,618.485543178394,1,0,732784.939742112,732785.986830152,1,1,84,16,8
17,43,454.719685716555,0,0,732787.763353385,732788.810433725,1,0,82,16,16
17,44,672.93750110548,0,0,732790.42225372,732791.469341375,1,0,90,16,4
17,45,555.478982627392,1,0,732793.304733223,732794.351775453,1,1,63,0,0
17,46,733.282826491632,0,0,732796.057707239,732797.104801053,1,0,82,8,0
17,47,623.533151228912,1,0,732798.869542941,732799.916650614,1,1,76,4,4
17,48,716.903507593088,0,0,732801.599045502,732802.646184742,1,0,68,16,8
17,49,789.880172000267,1,0,732804.457951535,732805.505041885,1,1,70,16,4
17,50,530.259805149399,0,0,732807.469805253,732808.516894833,1,0,74,0,4
17,51,696.400871733204,1,0,732810.093406979,732811.140498868,1,1,93,16,0
17,52,603.780804318376,0,0,732812.85821046,732813.905280022,1,0,82,0,8
17,53,731.898891855963,0,0,732815.681814418,732816.728896684,1,0,96,8,0
17,54,642.93941820506,0,0,732818.587771535,732819.634864965,1,0,87,8,16
17,55,863.093587453477,0,0,732821.293741048,732822.340829088,1,0,91,8,16
17,56,700.493391719647,0,0,732824.223240837,732825.270325028,1,0,86,4,8
17,57,831.810119911097,1,0,732827.140978145,732828.188051941,1,1,76,8,16
17,58,608.30640536733,1,0,732830.176342968,732831.223433318,1,1,66,8,8
17,59,754.332876880653,1,0,732832.988195223,732834.035285958,1,1,80,0,8
17,60,703.902221051976,0,0,732835.917692703,732836.964781128,1,0,83,8,4
17,61,588.537505129352,0,0,732838.706009215,732839.753093405,1,0,72,4,0
17,62,535.457163117826,1,0,732841.553147377,732842.600226562,1,1,65,0,16
17,63,966.930262395181,1,0,732844.188519669,732845.235604244,1,1,67,4,0
17,64,963.168038870208,0,0,732847.294494032,732848.341582071,1,0,100,4,4
17,65,637.828291626647,0,0,732850.494585575,732851.541708647,1,0,96,16,0
17,66,648.716527386568,1,0,732853.341736056,732854.388819476,1,1,66,4,4
17,67,545.973526663147,0,0,732856.059457272,732857.106548006,1,0,62,8,0
17,68,703.357501188293,1,0,732858.777188497,732859.824263063,1,1,88,4,0
17,69,679.558444651775,0,0,732861.69491541,732862.742040406,1,0,86,8,4
17,70,664.658530731685,1,0,732864.553822983,732865.600909098,1,1,91,0,4
17,71,692.67367979046,0,0,732867.31867035,732868.365689867,1,0,99,8,4
17,72,540.677233715542,1,0,732870.118688135,732871.16577271,1,1,65,16,4
17,73,567.161392886192,1,0,732872.754058502,732873.801141922,1,1,74,0,0
17,74,689.903885591775,0,0,732875.542376939,732876.589475373,1,0,70,4,0
17,75,752.915835590102,0,0,732878.307160402,732879.354252676,1,0,80,8,4
17,76,476.327544311062,0,0,732881.319006806,732882.366104085,1,0,75,16,16
17,77,718.394461437128,0,0,732883.930856828,732884.977941403,1,0,90,0,4
17,78,774.101392133161,0,0,732886.87211448,732887.9192056,1,0,99,4,0
17,79,715.496090240777,1,0,732889.89573145,732890.942821415,1,1,85,16,8
17,80,612.4689882854,0,0,732892.801692802,732893.848783921,1,0,84,0,8
17,81,999.714692705311,0,0,732918.273040157,732919.320128197,2,0,95,8,16
17,82,622.049896745011,0,0,732921.449592108,732922.496680918,2,0,83,16,8
17,83,444.453546777368,1,0,732924.214380191,732925.261465921,2,1,84,0,16
17,84,450.751508004032,0,0,732926.837980762,732927.885074576,2,0,76,0,0
17,85,520.823642029427,0,0,732929.402768536,732930.449858116,2,0,88,8,16
17,86,624.843558412977,1,0,732932.097011753,732933.144041664,2,1,70,8,16
17,87,672.187597141601,1,0,732934.920575676,732935.967661021,2,1,94,0,8
17,88,502.066034125164,1,0,732937.826540107,732938.873629302,2,1,65,4,8
17,89,422.97541978769,0,0,732940.473679115,732941.520765615,2,0,68,0,8
17,90,771.906344685704,1,0,732943.073795528,732944.120845456,2,1,90,16,16
17,91,599.375696037896,0,0,732946.003241807,732947.050329462,2,0,87,8,0
17,92,968.584824586287,0,0,732948.768031045,732949.815120625,2,0,61,16,16
17,93,692.717565223575,1,0,732951.944597625,732952.991697213,2,1,83,8,4
17,94,508.996486430988,1,0,732954.69767943,732955.744702411,2,1,75,8,0
17,95,547.149197431281,1,0,732957.274170788,732958.321255363,2,1,71,16,4
17,96,603.035904932767,1,0,732960.074240158,732961.121327042,2,1,78,4,16
17,97,591.260718996637,0,0,732962.839034785,732963.886118975,2,0,90,4,4
17,98,678.565630456433,1,0,732965.556757925,732966.60384558,2,1,61,0,16
17,99,815.371901844628,0,0,732968.450962184,732969.498048299,2,0,95,16,8
17,100,681.470545823686,0,0,732971.462808588,732972.509898167,2,0,68,4,4
17,101,783.746203989722,0,0,732974.392303758,732975.439463785,2,0,98,8,16
17,102,564.136754721403,0,0,732977.404160555,732978.451253215,2,0,69,4,0
17,103,587.314484175295,1,0,732980.227776447,732981.274862177,2,1,93,0,4
17,104,762.753897812217,1,0,732983.004325473,732984.051413127,2,1,99,4,0
17,105,588.954417849891,1,0,732985.863233816,732986.910399233,2,1,68,4,8
17,106,682.865259354003,0,0,732988.522134152,732989.569216032,2,0,80,0,0
17,107,621.353887254372,0,0,732991.451632401,732992.498715437,2,0,63,4,4
17,108,744.336980511434,0,0,732994.157608458,732995.204685719,2,0,87,8,8
17,109,743.012329912744,1,0,732996.992967199,732998.040049465,2,1,98,4,4
17,110,651.239561499096,1,0,732999.95775944,733001.004846325,2,1,100,8,4
17,111,634.367877501063,1,0,733002.710779266,733003.757870001,2,1,63,0,0
17,112,720.522525603883,0,0,733005.428503947,733006.475595836,2,0,85,8,8
17,113,658.208509790711,0,0,733008.275654042,733009.322732458,2,0,100,0,8
17,114,673.205049009994,1,0,733011.181616549,733012.228699199,2,1,68,16,0
17,115,682.370199589059,0,0,733013.934622131,733014.981717485,2,0,62,16,8
17,116,941.992106265388,0,0,733016.675892949,733017.722979064,2,0,88,0,8
17,117,705.703838379122,1,0,733019.675979565,733020.723071455,2,1,100,16,16
17,118,629.895786056295,1,0,733022.640800293,733023.687865235,2,1,73,16,4
17,119,677.517766715027,1,0,733025.417325065,733026.464410795,2,1,79,4,0
17,120,686.011930229142,1,0,733028.205628488,733029.252719223,2,1,80,4,16
17,121,720.691523398273,0,0,733030.946938957,733031.994045475,2,0,96,8,8
17,122,570.662612793967,1,0,733033.794028999,733034.841120503,2,1,77,16,0
17,123,482.491154340096,0,0,733036.441169162,733037.488255277,2,0,62,8,0
17,124,466.617289115675,1,0,733039.006004287,733040.053038048,2,1,88,8,16
17,125,646.906055975705,1,0,733041.664855733,733042.711938384,2,1,70,0,0
17,126,404.045349452645,0,1,733044.429641891,733045.476783441,2,1,72,16,4
17,127,928.531176410615,0,0,733046.970873135,733048.017972339,2,0,70,8,8
17,128,665.778767084703,1,0,733050.041554662,733051.088720849,2,1,65,0,16
17,129,676.240851054899,0,0,733052.912223563,733053.959326231,2,0,85,4,0
17,130,575.409951386973,0,0,733055.818207242,733056.865291817,2,0,68,4,16
17,131,772.632381180301,1,0,733058.547703259,733059.594782829,2,1,80,8,4
17,132,675.212235422805,1,0,733061.477190344,733062.524277229,2,1,86,16,0
17,133,731.52047523763,0,0,733064.347860785,733065.394951904,2,0,90,0,8
17,134,608.351060887799,0,0,733067.147943243,733068.195028973,2,0,94,16,16
17,135,725.746060837992,1,0,733069.924497658,733070.971654221,2,1,99,8,8
17,136,701.888105366379,0,0,733072.877548974,733073.924618151,2,0,89,0,4
17,137,799.63392787613,1,0,733075.783498777,733076.83060491,2,1,92,16,4
17,138,743.697945377789,0,0,733078.689467057,733079.736575115,2,0,93,8,4
17,139,678.447832353413,1,0,733081.571935396,733082.618976086,2,1,71,8,4
17,140,850.285551277921,1,0,733084.477859791,733085.524943982,2,1,68,16,4
17,141,655.803273664787,1,0,733087.454424908,733088.501507558,2,1,95,4,4
17,142,644.89348011557,0,0,733090.32512499,733091.372188778,2,0,94,8,0
17,143,624.206832959317,1,0,733093.195758859,733094.242849209,2,1,77,0,4
17,144,731.321065570228,0,0,733095.995845938,733097.042927818,2,0,94,8,0
17,145,591.622967156582,0,0,733098.913568616,733099.960655501,2,0,81,16,8
17,146,566.335651557893,0,0,733101.713652615,733102.760744889,2,0,85,4,8
17,147,449.730976484716,1,0,733104.490282097,733105.537322016,2,1,75,0,4
17,148,609.617197420448,0,0,733107.031453672,733108.078542096,2,0,94,0,16
17,149,616.684310720302,1,0,733109.70216538,733110.749215308,2,1,87,4,0
17,150,554.86266000662,1,0,733112.561031377,733113.608116722,2,1,65,4,16
17,151,672.198761021718,0,0,733115.184630793,733116.231717678,2,0,68,4,16
17,152,620.814171968959,1,0,733118.020024951,733119.067110296,2,1,62,4,8
17,153,793.243575841188,0,0,733120.702439087,733121.749530591,2,0,88,0,16
17,154,638.207478099503,0,0,733123.596640266,733124.643730231,2,0,89,4,8
17,155,568.728953949176,0,0,733126.337899535,733127.384992194,2,0,97,0,4
17,156,620.297939400189,0,0,733129.020322525,733130.067419804,2,0,90,16,0
17,157,586.35670132935,0,0,733131.879236643,733132.926315444,2,0,75,16,16
17,158,560.274441260844,0,0,733134.667553155,733135.714638885,2,0,74,16,0
17,159,699.890157906339,1,0,733137.455873131,733138.502998512,2,1,65,16,8
17,160,823.944982490502,1,0,733140.314846533,733141.361861045,2,1,88,0,0
17,161,607.024870347232,0,0,733168.574423784,733169.621507204,3,0,63,4,16
17,162,484.338581911288,1,0,733171.35096357,733172.398058924,3,1,66,4,8
17,163,498.957859468646,0,0,733174.080461897,733175.127584583,3,0,73,8,8
17,164,611.523139174096,1,0,733176.821718856,733177.868807665,3,1,61,16,0
17,165,534.376577590592,1,0,733179.668857402,733180.715946597,3,1,96,0,16
17,166,519.120574812405,0,0,733182.363054424,733183.410141309,3,0,63,4,8
17,167,826.938823913224,1,0,733185.104310998,733186.151405967,3,1,92,4,16
17,168,633.465529070236,1,0,733187.98674854,733189.03383273,3,1,97,16,16
17,169,784.886843408458,0,0,733190.763376097,733191.810409088,3,0,62,16,4
17,170,791.215216508135,0,0,733193.739853828,733194.786943407,3,0,88,0,4
17,171,644.580121850595,1,0,733196.763474647,733197.810557298,3,1,70,0,16
17,172,765.021702856757,1,0,733199.634142393,733200.68125815,3,1,63,8,8
17,173,635.598212713376,1,0,733202.57540274,733203.622492704,3,1,68,0,4
17,174,648.67687644437,1,0,733205.434313777,733206.481400277,3,1,64,16,8
17,175,704.287566943094,1,0,733208.328528045,733209.375621089,3,1,81,16,16
17,176,496.24811927788,1,0,733211.281545485,733212.328633909,3,1,90,4,4
17,177,550.77822424937,1,0,733214.011032262,733215.058122997,3,1,89,4,4
17,178,514.504507882521,0,0,733216.799351084,733217.846442588,3,0,74,16,0
17,179,682.210055761971,0,0,733219.540610738,733220.587698008,3,0,99,0,0
17,180,1263.42565473169,0,0,733222.399514462,733223.446600577,3,0,73,16,8
17,181,623.687520506792,0,0,733225.870260893,733226.917286954,3,0,61,8,4
17,182,853.349455515854,1,0,733228.670284453,733229.717365563,3,1,100,16,0
17,183,607.853306340985,1,0,733231.599775773,733232.646871897,3,1,73,8,0
17,184,693.479403038509,1,0,733234.282213777,733235.329293733,3,1,70,0,8
17,185,668.061585631222,0,0,733237.211709332,733238.258793522,3,0,82,0,4
17,186,521.722140838392,1,0,733240.105935148,733241.153005865,3,1,72,8,16
17,187,664.626963902265,0,0,733242.800102143,733243.847189028,3,0,83,0,0
17,188,577.240055892617,1,0,733245.635481672,733246.682562398,3,1,87,0,16
17,189,530.610889545642,1,0,733248.317910822,733249.364995012,3,1,67,0,8
17,190,633.750015171245,1,0,733251.082688511,733252.129862782,3,1,84,8,16
17,191,917.329582269304,1,0,733253.918073045,733254.965162624,3,1,89,4,0
17,192,600.707276025787,1,0,733256.894634696,733257.941726201,3,1,84,4,8
17,193,562.877547345124,1,0,733259.694799922,733260.741797881,3,1,65,4,4
17,194,751.928410725668,0,0,733262.459490224,733263.506630619,3,0,81,8,16
17,195,750.323123415001,0,0,733265.341930846,733266.389020426,3,0,95,0,4
17,196,785.71104479488,0,0,733268.153784256,733269.200864212,3,0,82,16,0
17,197,1034.10941478796,0,0,733271.142101846,733272.189187576,3,0,65,8,8
17,198,651.598730008118,0,0,733274.271653913,733275.318694987,3,0,64,8,0
17,199,633.806219440885,1,0,733277.13052376,733278.177594861,3,1,66,16,8
17,200,617.729094810784,1,0,733279.98946521,733281.036530922,3,1,61,4,0
17,201,798.723495216109,0,0,733282.695368509,733283.742460398,3,0,92,4,4
17,202,775.391396251507,0,0,733285.624872533,733286.671964807,3,0,88,4,4
17,203,590.889231767505,0,0,733288.66025391,733289.70738545,3,0,84,0,8
17,204,620.804933016188,0,0,733291.354508291,733292.401548595,3,0,92,0,16
17,205,643.354406114668,0,0,733294.095706736,733295.14279901,3,0,66,8,4
17,206,1231.44656280056,0,0,733296.848774682,733297.895808827,3,0,94,0,8
17,207,614.339898456819,0,0,733300.201769255,733301.248848441,3,0,96,0,8
17,208,577.099545160308,0,0,733302.990083072,733304.037173421,3,0,73,0,0
17,209,673.211978399195,1,0,733305.801935712,733306.849018747,3,1,88,16,16
17,210,1124.5540677337,0,0,733308.578484737,733309.625572007,3,0,89,4,16
17,211,739.908774616197,1,0,733311.802155525,733312.849256653,3,1,65,8,8
17,212,675.858199945651,1,0,733314.70812342,733315.755188748,3,1,78,4,8
17,213,716.742978896946,0,0,733317.555211537,733318.602300347,3,0,93,16,16
17,214,661.24315711204,0,0,733320.343538828,733321.390615704,3,0,85,8,4
17,215,601.241601863876,1,0,733323.249524047,733324.296584755,3,1,85,8,16
17,216,549.413922708482,1,0,733326.061338576,733327.108434315,3,1,85,0,4
17,217,677.350693615153,0,0,733328.767328876,733329.814398053,3,0,88,4,0
17,218,550.877544214018,0,0,733331.543856344,733332.590952853,3,0,72,0,0
17,219,603.514796239324,1,0,733334.332170931,733335.379248192,3,1,74,4,16
17,220,734.911211417057,1,0,733337.155770655,733338.20290566,3,1,98,0,16
17,221,662.876546382904,0,0,733340.108870861,733341.155903081,3,0,70,8,0
17,222,763.135779183358,0,0,733342.885355597,733343.932446332,3,0,82,4,16
17,223,1127.23994033877,0,0,733345.885451068,733346.932539108,3,0,65,8,0
17,224,708.642245270312,0,0,733349.167917328,733350.214984195,3,0,85,16,0
17,225,974.947074311785,1,0,733352.03856621,733353.085661564,3,1,72,16,4
17,226,932.182915974408,1,0,733355.262187338,733356.309275763,3,1,75,16,8
17,227,738.81240573246,1,0,733358.391702449,733359.438809352,3,1,87,16,8
17,228,956.023548380472,0,0,733361.215304867,733362.262393677,3,0,74,8,16
17,229,597.550981095992,1,0,733364.285981775,733365.33306481,3,1,66,8,4
17,230,744.560257880948,0,0,733367.050761773,733368.097845194,3,0,86,16,16
17,231,677.979719825089,1,0,733369.921437218,733370.968601095,3,1,94,8,8
17,232,633.242251700722,0,0,733372.839162977,733373.88626218,3,0,95,16,4
17,233,829.260523431003,0,0,733375.698085563,733376.745170139,3,0,86,16,4
17,234,674.860381172039,0,0,733378.639335901,733379.68648207,3,0,97,8,0
17,235,845.281058805995,1,0,733381.462954488,733382.510035214,3,1,91,16,4
17,236,1527.69019070547,0,0,733384.486595326,733385.533653338,3,0,97,0,0
17,237,1149.53110471834,1,0,733388.145531078,733389.192586396,3,1,70,4,0
17,238,1191.42486632336,1,0,733391.345584126,733392.39267794,3,1,93,4,8
17,239,970.762163749896,1,0,733394.76921634,733395.816326708,3,1,99,4,0
17,240,725.262934807688,0,0,733397.945779455,733398.992871729,3,0,82,8,4
17,241,1800.08394725155,0,0,733433.899764301,733434.946861195,4,0,65,16,8
17,242,1051.79952573963,1,0,733437.89992175,733438.946972064,4,1,79,16,0
17,243,1064.7422982147,0,0,733441.147029731,733442.194115076,4,0,99,0,8
17,244,916.517699719407,0,0,733444.441245385,733445.488337274,4,0,91,4,16
17,245,1012.4168646289,0,0,733447.594283535,733448.641370035,4,0,98,16,16
17,246,653.997421846725,1,0,733450.67672331,733451.723819819,4,1,67,4,8
17,247,715.916082728654,1,0,733453.582673882,733454.629795414,4,1,67,0,16
17,248,679.864488658495,1,0,733456.394537686,733457.441626111,4,1,65,16,8
17,249,570.752693805844,1,0,733459.182847269,733460.229941083,4,1,85,4,0
17,250,626.384941977449,0,0,733461.982932037,733463.030021232,4,0,83,0,4
17,251,639.771959395148,0,0,733464.794781982,733465.841866558,4,0,81,16,16
17,252,592.634259723127,0,0,733467.547794494,733468.594887539,4,0,67,16,4
17,253,739.056856022216,1,0,733470.277287817,733471.324378936,4,1,68,0,4
17,254,837.961026118137,1,0,733473.077366811,733474.124452156,4,1,96,16,0
17,255,865.412207203917,0,0,733476.053924613,733477.101016117,4,0,76,0,0
17,256,849.705030093901,0,0,733479.030508592,733480.077582774,4,0,82,4,4
17,257,727.207372663543,1,0,733481.948200859,733482.995299678,4,1,70,16,16
17,258,2137.91336794384,1,0,733484.901241396,733485.948330591,4,1,89,0,8
17,259,1430.50833593588,0,0,733489.289598098,733490.336714625,4,0,76,8,8
17,260,753.890556632541,0,0,733492.866177997,733493.913259878,4,0,63,8,16
17,261,1118.47553413827,1,0,733495.701561376,733496.748641717,4,1,64,4,16
17,262,676.315918564796,0,0,733498.90164676,733499.948739035,4,0,89,4,4
17,263,926.025080494583,1,0,733501.689965197,733502.737055546,4,1,80,4,0
17,264,636.12522429321,1,0,733504.748873078,733505.795962273,4,1,79,16,4
17,265,771.115634939633,1,0,733507.607785271,733508.654868306,4,1,63,0,8
17,266,899.202540633269,0,0,733510.607876892,733511.654953767,4,0,75,4,4
17,267,672.809309209697,0,0,733513.749163339,733514.796227896,4,0,63,0,0
17,268,713.661366375163,0,0,733516.549286988,733517.59630304,4,0,99,4,8
17,269,715.882206102833,0,0,733519.419879281,733520.466990419,4,0,98,8,0
17,270,643.107261275873,0,0,733522.337625443,733523.384704628,4,0,82,16,8
17,271,564.495538244955,0,0,733525.114174853,733526.161264047,4,0,82,0,4
17,272,789.690771140158,0,0,733527.914248842,733528.961341117,4,0,86,4,8
17,273,915.931019117124,1,0,733530.796683305,733531.843772114,4,1,61,8,8
17,274,718.104200786911,0,0,733533.808543567,733534.855631992,4,0,75,16,16
17,275,625.524169299752,1,0,733536.72627279,733537.773359675,4,1,89,0,4
17,276,996.378236101009,0,0,733539.420471351,733540.467553617,4,0,94,8,16
17,277,711.278073024005,1,0,733542.573503727,733543.620585608,4,1,98,16,0
17,278,943.928844877519,1,0,733545.514765614,733546.561848649,4,1,84,4,0
17,279,671.272929990664,1,0,733548.597203849,733549.644293813,4,1,77,4,4
17,280,743.824212462641,1,0,733551.373798299,733552.420899813,4,1,77,0,0
17,281,622.395976562984,0,0,733554.256190031,733555.303275761,4,0,93,16,16
17,282,549.765007104725,0,0,733557.079812082,733558.126891268,4,0,64,4,8
17,283,861.822446342558,1,0,733559.738711264,733560.785826636,4,1,69,4,16
17,284,534.625647356734,0,0,733562.679960831,733563.727049641,4,0,63,4,0
17,285,602.260978426784,1,0,733565.374157853,733566.421251282,4,1,87,0,8
17,286,601.021789130755,1,0,733568.174241081,733569.221330276,4,1,78,16,8
17,287,520.546085201204,0,0,733570.903731324,733571.950819749,4,0,63,16,4
17,288,843.663452891633,1,0,733573.609690828,733574.656776173,4,1,90,8,16
17,289,636.610660119914,1,0,733576.656839306,733577.703926191,4,1,90,0,16
17,290,769.613902200945,0,0,733579.515736101,733580.562842618,4,0,97,4,16
17,291,587.007670314051,0,0,733582.398177107,733583.445265917,4,0,92,0,8
17,292,836.753403535113,1,0,733585.080606642,733586.127702381,4,1,70,8,0
17,293,535.125326598063,0,0,733588.068933856,733589.116036139,4,0,64,8,16
17,294,588.273806846701,0,0,733590.680772329,733591.727868453,4,0,67,8,4
17,295,730.965361464769,1,0,733593.469092691,733594.516174956,4,1,91,16,0
17,296,652.161928010173,0,0,733596.375057122,733597.422147086,4,0,79,16,4
17,297,664.270105073228,0,0,733599.139832886,733600.186937864,4,0,71,8,8
17,298,582.219140953384,1,0,733602.04581156,733603.092894211,4,1,64,16,0
17,299,766.776739968918,1,0,733604.869424758,733605.916506638,4,1,80,8,4
17,300,704.35801486019,0,0,733607.704797743,733608.751891557,4,0,74,4,4
17,301,715.426797396503,1,0,733610.563704546,733611.610792201,4,1,64,0,0
17,302,628.36787593551,0,0,733613.469674752,733614.516762021,4,0,66,8,0
17,303,663.729234947823,1,0,733616.246229166,733617.293307967,4,1,68,8,4
17,304,593.901551212184,1,0,733619.116892292,733620.163984952,4,1,82,0,16
17,305,793.013369198889,0,0,733621.928740698,733622.975821808,4,0,95,8,8
17,306,661.904904874973,1,0,733624.928826929,733625.975911504,4,1,91,8,8
17,307,572.822243906558,1,0,733627.776027069,733628.823062369,4,1,78,0,4
17,308,708.606443949975,1,0,733630.576052939,733631.623137129,4,1,98,8,0
17,309,656.680599786341,1,0,733633.423184171,733634.470277985,4,1,72,4,16
17,310,683.004615246318,1,0,733636.199750905,733637.246833555,4,1,89,8,0
17,311,681.942892959341,1,0,733638.952763801,733639.999851841,4,1,88,0,0
17,312,494.470369420014,1,0,733641.788138326,733642.835228676,4,1,73,0,16
17,313,812.046224134974,0,0,733644.364680884,733645.411771234,4,0,95,16,8
17,314,675.78544234857,1,0,733647.305967023,733648.35303466,4,1,83,8,16
17,315,721.20429133065,1,0,733650.094256588,733651.141343858,4,1,67,16,4
17,316,775.22124350071,0,0,733652.988460077,733654.035552351,4,0,68,4,8
17,317,547.261220985092,0,0,733655.953250392,733657.000343821,4,0,67,4,0
17,318,465.751126990654,0,0,733658.588627304,733659.635716113,4,0,65,0,16
17,319,756.534083629958,0,0,733661.176932344,733662.224015764,4,0,69,8,4
17,320,469.422114663757,0,0,733664.071135062,733665.118218868,4,0,73,8,4
17,321,862.344838329591,0,0,733690.330720783,733691.377809208,5,0,90,8,4
17,322,782.537041581236,0,0,733693.342567956,733694.389662156,5,0,92,4,4
17,323,935.695684864186,1,0,733696.295581546,733697.342686524,5,1,99,4,4
17,324,642.918245401233,1,0,733699.413341874,733700.46041952,5,1,64,8,4
17,325,966.308165458031,1,0,733702.142823647,733703.189910532,5,1,82,16,4
17,326,955.607790616341,0,0,733705.166448702,733706.213533662,5,0,76,0,8
17,327,1356.15813080221,0,0,733708.20186896,733709.248903875,5,0,71,16,8
17,328,1132.42767425254,0,0,733711.672510297,733712.719599877,5,0,81,4,0
17,329,1695.98626880907,1,0,733715.049082574,733716.096175233,5,1,98,0,4
17,330,705.298859393224,1,0,733718.872720409,733719.919804214,5,1,86,8,0
17,331,1090.55316075683,1,0,733721.649274438,733722.696357859,5,1,85,8,16
17,332,679.403690388426,1,0,733724.9905431,733726.03762883,5,1,70,16,8
17,333,754.201220115647,1,0,733727.790620554,733728.837715524,5,1,82,8,8
17,334,549.48591045104,1,0,733730.66129215,733731.708382499,5,1,67,4,0
17,335,662.922741728835,0,0,733733.437849644,733734.484983109,5,0,78,0,16
17,336,577.702778973617,0,0,733736.226163461,733737.273249576,5,0,70,16,4
17,337,678.452836815268,1,0,733738.979185982,733740.026262473,5,1,73,8,16
17,338,637.773627066053,1,0,733741.89691482,733742.94400055,5,1,88,8,8
17,339,531.683775596321,1,0,733744.755824318,733745.802916208,5,1,66,16,0
17,340,471.197554608807,0,0,733747.485311866,733748.53240106,5,0,75,4,16
17,341,584.216318442486,0,0,733750.038327534,733751.085417114,5,0,74,8,16
17,342,690.913253230974,0,0,733752.873707834,733753.920819741,5,0,70,4,4
17,343,421.196515206248,0,0,733755.697319491,733756.744405606,5,0,76,0,8
17,344,684.776590554975,1,0,733758.226867555,733759.273882067,5,1,96,4,16
17,345,706.305917236023,1,0,733761.109233494,733762.156324998,5,1,71,16,8
17,346,631.679310230538,1,0,733763.979929727,733765.027011607,5,1,85,8,16
17,347,502.544155810028,1,0,733766.685865748,733767.732952632,5,1,82,4,8
17,348,857.726846705191,1,0,733769.403638933,733770.45070734,5,1,88,4,8
17,349,1062.71624867804,0,0,733772.450739677,733773.497824252,5,0,95,16,16
17,350,621.448587626219,1,0,733775.744951866,733776.792041445,5,1,63,8,8
17,351,706.337869050913,0,0,733778.592097727,733779.639185381,5,0,99,8,8
17,352,685.359806404449,1,0,733781.40396461,733782.451029167,5,1,90,0,0
17,353,567.924000555649,1,0,733784.180492462,733785.22760437,5,1,63,16,16
17,354,764.412309741601,1,0,733786.910007342,733787.957081524,5,1,98,0,8
17,355,977.981336647645,1,0,733789.757117017,733790.804210831,5,1,99,4,8
17,356,604.012550786138,0,0,733792.863099849,733793.91017865,5,0,86,0,8
17,357,682.255866122432,1,0,733795.533784225,733796.580846858,5,1,82,0,16
17,358,824.505485710688,0,0,733798.451494585,733799.498575311,5,0,87,16,0
17,359,642.738468712196,0,0,733801.369224578,733802.416312618,5,0,92,4,0
17,360,582.634128862992,1,0,733804.15753878,733805.20462605,5,1,72,4,16
17,361,561.918994528241,0,0,733806.875266155,733807.92235304,5,0,84,0,16
17,362,640.548425726593,1,0,733809.675366707,733810.722431264,5,1,86,8,4
17,363,722.960483282804,0,0,733812.393074065,733813.440209455,5,0,67,0,4
17,364,479.337169206701,0,0,733815.275500058,733816.322599646,5,0,75,16,16
17,365,537.110185483471,0,0,733817.957940371,733819.005026871,5,0,75,4,16
17,366,591.838160529733,0,0,733820.558007509,733821.605119801,5,0,68,4,4
17,367,644.978941418231,1,0,733823.322792127,733824.369884401,5,1,79,8,4
17,368,617.233650060371,0,0,733826.040529511,733827.087609852,5,0,80,0,0
17,369,990.783213404939,1,0,733828.817081231,733829.864166191,5,1,96,16,4
17,370,627.18527589459,0,0,733831.993638571,733833.040729691,5,0,61,16,0
17,371,660.125615424477,0,0,733834.699610009,733835.746685345,5,0,97,4,4
17,372,665.109704947099,1,0,733837.499678994,733838.546776658,5,1,82,0,4
17,373,673.668926930986,0,0,733840.393868624,733841.44104867,5,0,78,8,4
17,374,825.825131847523,1,0,733843.194031924,733844.241046052,5,1,82,0,16
17,375,553.09761420358,0,0,733846.170516969,733847.217609243,5,0,82,0,4
17,376,783.716562087648,1,0,733848.80590004,733849.852975761,5,1,69,16,8
17,377,532.764361123554,0,0,733851.711864471,733852.758940577,5,0,62,0,8
17,378,833.357663010247,0,0,733854.300162967,733855.347254086,5,0,86,8,0
17,379,726.279616705142,1,0,733857.34731106,733858.394396021,5,1,69,4,0
17,380,707.716799108312,0,0,733860.229755917,733861.27685512,5,0,92,4,8
17,381,634.46488766931,1,0,733863.065127747,733864.112211937,5,1,61,0,0
17,382,643.724353634752,0,0,733865.841685241,733866.888798688,5,0,95,0,0
17,383,558.88319236692,0,0,733868.700664032,733869.747679314,5,0,66,8,0
17,384,562.60768964421,1,0,733871.335956637,733872.383042367,5,1,96,0,16
17,385,720.109462505206,1,0,733874.077211671,733875.124294707,5,1,73,16,4
17,386,610.698552802205,1,0,733876.959653448,733878.006728784,5,1,82,16,0
17,387,872.892383718863,0,0,733879.630312416,733880.677401226,5,0,100,16,4
17,388,638.582430081442,0,0,733882.618642325,733883.665712271,5,0,66,16,16
17,389,666.633380460553,0,0,733885.430488805,733886.477607257,5,0,63,16,16
17,390,523.87060795445,0,0,733888.242320657,733889.289451813,5,0,64,8,16
17,391,629.813404404558,0,0,733890.948285166,733891.995417476,5,0,70,0,4
17,392,657.343117636628,1,0,733893.724861138,733894.771921846,5,1,71,8,8
17,393,648.222622461617,1,0,733896.52491511,733897.57200161,5,1,65,4,8
17,394,1407.77138667181,0,0,733899.254419211,733900.301498396,5,0,72,0,0
17,395,757.575787953101,1,0,733902.76044154,733903.807481845,5,1,95,8,0
17,396,1649.90220719483,0,0,733905.619293294,733906.666382103,5,0,73,8,0
17,397,1272.10421464406,1,0,733909.48999915,733910.537083341,5,1,94,16,0
17,398,719.011553679593,0,0,733912.843038379,733913.890189167,5,0,78,4,16
17,399,647.541626589373,1,0,733915.725472071,733916.772562421,5,1,97,4,0
17,400,1116.08993099071,0,0,733918.560844671,733919.607935406,5,0,88,16,8
17,401,689.628253574483,1,0,733954.714842914,733955.761916325,6,1,63,4,16
17,402,591.651069466025,0,0,733957.60902754,733958.656117504,6,0,67,8,8
17,403,540.55558599066,1,0,733960.315027079,733961.36210511,6,1,88,0,4
17,404,495.308429468423,1,0,733963.115077201,733964.162157927,6,1,96,0,16
17,405,700.96188923344,0,0,733965.703387246,733966.750474516,6,0,73,8,0
17,406,564.855091855861,1,0,733968.491711072,733969.538791797,6,1,68,8,4
17,407,558.562519960105,1,0,733971.29179969,733972.338868482,6,1,71,8,0
17,408,648.247645003721,0,0,733973.927153504,733974.974240388,6,0,76,8,4
17,409,486.220271093771,0,0,733976.680178719,733977.727277538,6,0,76,8,8
17,410,609.163328423165,1,0,733979.233190538,733980.280285123,6,1,85,4,4
17,411,518.35642720107,0,0,733981.903853741,733982.950939856,6,0,77,0,16
17,412,611.277149175294,0,0,733984.64511378,733985.69219951,6,0,69,8,16
17,413,608.81070420146,1,0,733987.374600558,733988.421684363,6,1,65,0,0
17,414,601.228513172828,1,0,733990.151151508,733991.198243012,6,1,71,16,0
17,415,624.39854349941,1,0,733992.915936511,733993.963021471,6,1,95,8,16
17,416,609.666472417302,0,0,733995.598402617,733996.645463325,6,0,74,0,4
17,417,631.188869825564,0,0,733998.316098426,733999.363178381,6,0,73,16,4
17,418,584.797994466498,0,0,734001.151467176,734002.198560605,6,0,63,4,4
17,419,847.380250925198,0,0,734003.951602374,734004.998663082,6,0,84,0,8
17,420,1543.52555982769,0,0,734006.904575158,734007.951667048,6,0,70,8,16
17,421,655.914527480491,1,0,734010.634091963,734011.681235052,6,1,78,16,8
17,422,918.405548203737,0,0,734013.410651382,734014.457736342,6,0,93,8,8
17,423,727.423720643856,0,0,734016.422502405,734017.469588135,6,0,96,4,8
17,424,593.31333078444,0,0,734019.269678678,734020.316730532,6,0,72,8,0
17,425,530.744471005164,1,0,734021.94030685,734022.987395274,6,1,73,0,0
17,426,632.336438517086,0,0,734024.575670672,734025.622764872,6,0,91,8,8
17,427,660.189518937841,1,0,734027.434581325,734028.48167283,6,1,78,16,16
17,428,595.278556458652,1,0,734030.187595377,734031.234686112,6,1,61,0,8
17,429,550.635018851608,1,0,734032.964154411,734034.011238217,6,1,91,4,16
17,430,568.599607096985,1,0,734035.611338075,734036.658392624,6,1,65,16,4
17,431,630.102509981953,1,0,734038.293719105,734039.34080984,6,1,75,4,8
17,432,553.549943258986,0,0,734041.082076038,734042.129120192,6,0,62,8,0
17,433,527.181657264009,0,0,734043.811528169,734044.858609665,6,0,63,4,16
17,434,559.989570174366,1,0,734046.411601081,734047.458685271,6,1,80,8,0
17,435,601.140357204713,0,0,734049.070499877,734050.117592536,6,0,69,0,16
17,436,550.713935866952,1,0,734051.905907123,734052.952967061,6,1,67,0,4
17,437,645.065557560883,0,0,734054.576545689,734055.623632189,6,0,97,16,16
17,438,513.051665155217,1,0,734057.329561665,734058.376652015,6,1,84,4,16
17,439,720.204162760638,0,0,734060.047294045,734061.094379775,6,0,93,16,16
17,440,2082.5421231566,1,0,734063.0120936,734064.05917779,6,1,81,4,0
17,441,587.662873906083,1,0,734067.188691361,734068.235770547,6,1,85,0,8
17,442,523.795540677384,1,0,734069.988794608,734071.035844151,6,1,72,8,4
17,443,894.111431902274,0,0,734072.56529636,734073.612384784,6,0,62,16,4
17,444,690.652634715661,0,0,734075.600731631,734076.647768086,6,0,99,8,8
17,445,683.341071126051,0,0,734078.436058421,734079.483151465,6,0,81,16,0
17,446,709.978059865534,1,0,734081.330254595,734082.377339555,6,1,87,4,4
17,447,749.776093871333,1,0,734084.165647983,734085.212720624,6,1,62,8,16
17,448,677.181310718879,0,0,734087.048079751,734088.095164711,6,0,63,16,16
17,449,676.215828745626,0,0,734089.895209443,734090.942292093,6,0,80,4,16
17,450,644.444230594672,0,0,734092.77764968,734093.824732715,6,0,61,4,4
17,451,689.157061395235,0,0,734095.507141077,734096.554226422,6,0,83,16,8
17,452,698.701013461687,1,0,734098.295458744,734099.342539084,6,1,69,16,8
17,453,779.763782862574,0,0,734101.10729791,734102.154396344,6,0,69,4,8
17,454,915.151088265702,0,0,734104.072091306,734105.119179345,6,0,94,16,0
17,455,570.444724988192,0,0,734107.0957102,734108.142800165,6,0,67,4,4
17,456,856.00337642245,0,0,734109.778137425,734110.825264731,6,0,96,8,4
17,457,497.049607918598,1,0,734112.695866648,734113.742954688,6,1,73,0,16
17,458,591.16101404652,1,0,734115.248887322,734116.295976131,6,1,86,0,8
17,459,525.915905600414,1,0,734117.990141971,734119.037235015,6,1,80,16,0
17,460,638.972780434415,0,0,734120.75492274,734121.802014244,6,0,89,8,4
17,461,508.382088621147,1,0,734123.531475229,734124.578562884,6,1,100,0,0
17,462,808.563867234625,1,0,734126.1903798,734127.23746322,6,1,78,16,16
17,463,517.953373142518,1,0,734129.072806563,734130.119900762,6,1,72,0,0
17,464,532.712006475776,1,0,734131.767011669,734132.814098169,6,1,77,4,0
17,465,572.891151881777,0,0,734134.378852067,734135.425944726,6,0,66,16,4
17,466,1053.07259166148,0,0,734137.190690078,734138.237777348,6,0,68,4,0
17,467,678.414725698531,0,0,734140.461374993,734141.508461108,6,0,90,0,4
17,468,754.923406988382,1,0,734143.343812535,734144.390938301,6,1,87,4,0
17,469,734.025416197255,1,0,734146.308600156,734147.35569474,6,1,81,0,8
17,470,721.402931259945,0,0,734149.226328224,734150.273417419,6,0,98,4,0
17,471,542.952353018336,0,0,734152.120536718,734153.167621293,6,0,76,0,0
17,472,643.396366969682,0,0,734154.838304514,734155.885347898,6,0,80,8,16
17,473,723.540619481355,1,0,734157.555987619,734158.603072194,6,1,61,16,8
17,474,897.090644808486,0,0,734160.391362913,734161.438442869,6,0,69,4,8
17,475,778.843341278844,1,0,734163.426745445,734164.473835025,6,1,96,0,16
17,476,769.01644282043,1,0,734166.391535761,734167.438688089,6,1,82,16,0
17,477,660.494792973623,1,0,734169.273974073,734170.321060573,6,1,77,4,8
17,478,609.36658794526,0,0,734172.121118779,734173.168201044,6,0,67,0,4
17,479,663.031685631722,1,0,734174.862369578,734175.909458388,6,1,78,16,4
17,480,578.444983693771,1,0,734177.5918629,734178.638947476,6,1,85,16,8
17,481,2203.11536081135,1,0,734213.34583204,734214.39291777,7,1,71,8,0
17,482,1698.80841765553,0,0,734217.640075411,734218.687201947,7,0,87,4,16
17,483,477.369633736089,1,0,734221.416655233,734222.463739423,7,1,85,0,8
17,484,753.505210857838,1,0,734224.087318436,734225.134411866,7,1,69,4,8
17,485,1002.03947199043,0,0,734226.922696041,734227.969779076,7,0,86,16,16
17,486,597.058231127448,1,0,734230.016906382,734231.063999041,7,1,70,8,4
17,487,620.245584635995,0,0,734232.78169408,734233.828774035,7,0,89,0,16
17,488,752.420390723273,0,0,734235.605298423,734236.652391852,7,0,79,0,8
17,489,710.028489818797,0,0,734238.440679877,734239.487765222,7,0,71,4,16
17,490,543.240688741207,1,0,734241.346635839,734242.393728498,7,1,73,8,16
17,491,566.710988525301,1,0,734243.9820678,734245.029097711,7,1,87,8,0
17,492,573.216058895923,1,0,734246.617373108,734247.664465768,7,1,76,8,16
17,493,637.482596561313,1,0,734249.27607396,734250.323370338,7,1,66,16,0
17,494,524.97005648911,1,0,734252.017537718,734253.064626912,7,1,84,4,16
17,495,616.193870548159,1,0,734254.676439594,734255.723530328,7,1,70,0,0
17,496,563.8861451298,1,0,734257.464805765,734258.51184915,7,1,88,8,4
17,497,651.385846664198,0,0,734260.241299356,734261.28839702,7,0,70,0,16
17,498,700.441806926392,1,0,734262.959031351,734264.006118621,7,1,73,0,0
17,499,976.138913538307,0,0,734265.841467353,734266.888560397,7,0,63,4,0
17,500,599.815321504138,1,0,734269.041684779,734270.088695442,7,1,77,8,8
17,501,810.611474676989,1,0,734271.782814316,734272.8299089,7,1,88,0,4
17,502,890.334194991738,0,0,734274.771161163,734275.818223795,7,0,90,16,8
17,503,662.19786030706,1,0,734277.877109349,734278.924192384,7,1,72,0,0
17,504,652.571526472457,1,0,734280.794843576,734281.841926996,7,1,93,4,8
17,505,635.766440653242,1,0,734283.665563292,734284.7126598,7,1,83,16,8
17,506,1985.70827301592,0,0,734286.418530378,734287.465643055,7,0,70,0,4
17,507,812.511257012375,1,0,734290.618652334,734291.665746918,7,1,63,16,16
17,508,790.632000775076,1,0,734293.571682862,734294.618765897,7,1,89,0,8
17,509,713.66752567701,1,0,734296.536481262,734297.583558138,7,1,88,16,8
17,510,932.401958853006,1,0,734299.371845777,734300.418931892,7,1,92,8,4
17,511,726.338515756652,1,0,734302.524879308,734303.571966193,7,1,65,16,0
17,512,621.080179931596,1,0,734305.419076253,734306.466172377,7,1,85,16,4
17,513,504.212576546706,1,0,734308.089746,734309.13682942,7,1,63,8,16
17,514,514.871375635266,1,0,734310.819314005,734311.866330827,7,1,75,0,16
17,515,699.83549346216,0,0,734313.525198441,734314.572288406,7,0,72,16,0
17,516,551.86304426752,1,0,734316.431220616,734317.478257071,7,1,75,0,8
17,517,674.317971221171,1,0,734319.10183031,734320.1489145,7,1,93,4,0
17,518,699.605286703445,1,0,734321.878376255,734322.92546622,7,1,73,4,0
17,519,1481.77127726376,1,0,734324.749134082,734325.796170537,7,1,91,16,0
17,520,1453.84736405686,0,0,734328.360922125,734329.408011705,7,0,70,16,8
17,521,687.108684098348,0,0,734332.03161574,734333.078695696,7,0,90,8,0
17,522,1324.21407022048,0,0,734334.890518309,734335.937608658,7,0,92,0,16
17,523,703.750931308605,0,0,734338.314146674,734339.361233174,7,0,91,0,8
17,524,819.323526113294,0,0,734341.14955854,734342.19663734,7,0,100,4,16
17,525,744.475181447342,1,0,734344.067253501,734345.114340771,7,1,93,0,4
17,526,1144.88077640999,0,0,734346.890868238,734347.937963207,7,0,64,8,16
17,527,649.00717290584,0,0,734350.102724189,734351.149817233,7,0,68,4,4
17,528,585.341559257358,0,0,734352.973391935,734354.020479589,7,0,68,8,8
17,529,754.900309373625,1,0,734355.667593191,734356.714676226,7,1,89,0,4
17,530,546.287269797176,0,0,734358.479437361,734359.526527326,7,0,68,8,0
17,531,669.129467336461,0,0,734361.126570596,734362.173664795,7,0,85,16,4
17,532,521.434574970044,0,0,734363.961948585,734365.00903085,7,0,75,4,8
17,533,764.566294150427,0,0,734366.620846611,734367.667952359,7,0,98,8,8
17,534,550.212716683745,0,0,734369.609197692,734370.656272644,7,0,75,16,8
17,535,745.133079821244,0,0,734372.303359298,734373.350450802,7,0,79,16,4
17,536,761.519713094458,0,0,734375.18579453,734376.232885649,7,0,71,8,8
17,537,958.562750951387,0,0,734378.032941161,734379.080023041,7,0,70,8,4
17,538,745.100743020885,1,0,734381.162441643,734382.209573953,7,1,98,8,16
17,539,748.564621782862,0,0,734384.103707379,734385.150790415,7,0,86,16,16
17,540,589.990347856656,1,0,734387.080252478,734388.127355531,7,1,74,4,16
17,541,820.971544017084,0,0,734389.880339171,734390.927430291,7,0,95,4,4
17,542,904.105018358678,0,0,734392.939254751,734393.986343561,7,0,98,4,0
17,543,690.453224815428,0,0,734395.974634589,734397.021724553,7,0,72,16,4
17,544,1284.15965207387,0,0,734398.857065971,734399.904151316,7,0,92,16,16
17,545,795.792787452228,1,0,734402.245428832,734403.292499549,7,1,73,4,0
17,546,2170.34709884319,0,0,734405.174897055,734406.22198702,7,0,91,4,8
17,547,636.452056118287,1,0,734409.539730717,734410.586846474,7,1,62,8,0
17,548,642.154482891783,1,0,734412.386873498,734413.433962693,7,1,68,16,16
17,549,662.20786923077,0,0,734415.186947488,734416.234041687,7,0,82,16,0
17,550,637.715498101898,1,0,734418.06938657,734419.116475379,7,1,83,4,4
17,551,840.117192477919,0,0,734420.951819107,734421.998902912,7,0,65,0,16
17,552,846.944859949872,0,0,734423.846023366,734424.893167995,7,0,96,8,8
17,553,565.777458250523,1,0,734426.940232552,734427.987320977,7,1,98,0,4
17,554,1042.46576223522,0,0,734429.58738388,734430.634466145,7,0,72,16,4
17,555,886.528085917234,0,0,734432.799296805,734433.846309777,7,0,77,8,4
17,556,685.561140999198,0,0,734435.846367906,734436.893457486,7,0,61,4,4
17,557,598.622327437624,0,0,734438.670023834,734439.717130737,7,0,61,0,0
17,558,947.416591225192,1,0,734441.505379881,734442.552444438,7,1,61,4,8
17,559,680.056199315004,0,0,734444.540743164,734445.587828895,7,0,82,4,4
17,560,950.944373500533,1,0,734447.340816769,734448.387918282,7,1,98,0,0
17,561,1077.156134299,0,0,734483.577163551,734484.624247741,8,0,69,16,0
17,562,780.488279415295,0,0,734486.800785449,734487.847876953,8,0,81,8,0
17,563,657.348892069422,1,0,734489.647923995,734490.695013575,8,1,79,0,8
17,564,648.129076929763,1,0,734492.495060617,734493.542152122,8,1,88,16,0
17,565,632.074280059896,1,0,734495.295148465,734496.342234195,8,1,62,16,8
17,566,534.949784516357,1,0,734498.095226304,734499.142313959,8,1,63,16,4
17,567,743.369573610835,0,0,734500.824731175,734501.871806126,8,0,68,4,8
17,568,623.84535453748,1,0,734503.801277044,734504.848363544,8,1,70,0,0
17,569,1299.30093663279,0,0,734506.671944789,734507.719054387,8,0,72,4,16
17,570,813.979113125242,1,0,734510.213214144,734511.260321817,8,1,87,4,8
17,571,509.322548285127,1,0,734513.248605915,734514.295694725,8,1,79,0,0
17,572,1046.05398350395,1,0,734515.836929048,734516.884003229,8,1,91,0,16
17,573,2893.05201929528,0,0,734519.142887166,734520.189977131,8,0,79,4,0
17,574,687.865902204067,0,0,734524.143039226,734525.190167301,8,0,96,4,8
17,575,728.886187425815,0,0,734527.001941409,734528.049028294,8,0,73,16,0
17,576,623.518907697871,1,0,734529.837317089,734530.884408593,8,1,64,0,16
17,577,750.32620318234,0,0,734532.637396468,734533.684481813,8,0,98,0,4
17,578,1305.55077781901,1,0,734535.543369368,734536.590453558,8,1,78,0,16
17,579,742.354046669789,1,0,734539.096408135,734540.14348732,8,1,98,8,4
17,580,968.159827636555,0,0,734542.037726995,734543.084760756,8,0,70,16,8
17,581,794.190194923431,0,0,734545.14363707,734546.190729729,8,0,97,8,16
17,582,581.51119761169,1,0,734548.167259814,734549.214346699,8,1,75,4,4
17,583,764.563214383088,1,0,734550.873219703,734551.920306203,8,1,93,4,0
17,584,1648.73231085949,0,0,734553.885073036,734554.932157226,8,0,78,16,16
17,585,740.699099493213,1,0,734557.649894995,734558.696968792,8,1,94,8,0
17,586,774.815494776703,1,0,734560.614679152,734561.661813772,8,1,95,8,8
17,587,593.983162892982,1,0,734563.520640503,734564.567729313,8,1,66,8,8
17,588,960.101824719459,0,0,734566.28543359,734567.332518936,8,0,74,4,8
17,589,563.857657834888,0,0,734569.473747254,734570.520832599,8,0,61,4,16
17,590,847.06111822743,0,0,734572.250302823,734573.297396637,8,0,66,16,16
17,591,667.961880681105,0,0,734575.191572409,734576.23864428,8,0,70,4,16
17,592,822.977960458957,1,0,734578.097530296,734579.144626035,8,1,74,0,16
17,593,743.480827310123,0,0,734581.027038939,734582.074121205,8,0,98,4,4
17,594,670.096874237061,0,0,734583.874164012,734584.921257827,8,0,88,0,4
17,595,800.437726429664,0,0,734586.686016267,734587.733101227,8,0,91,0,0
17,596,738.046718412079,0,0,734589.580208977,734590.627292013,8,0,68,16,8
17,597,1182.41754977498,1,0,734592.556771399,734593.603861749,8,1,77,16,16
17,598,937.53002374433,1,0,734595.921574649,734596.968659225,8,1,72,4,16
17,599,778.498031198978,0,0,734598.968718508,734600.015812708,8,0,97,4,0
17,600,985.857252962887,0,0,734601.886465055,734602.933535386,8,0,83,16,8
17,601,1050.30087276828,1,0,734605.074785647,734606.121865218,8,1,70,8,8
17,602,712.716287234798,1,0,734608.192519413,734609.239605143,8,1,95,8,16
17,603,757.314784452319,1,0,734611.027893938,734612.074998146,8,1,62,16,4
17,604,713.995127473027,0,0,734613.969161984,734615.01627928,8,0,85,0,8
17,605,970.720203011297,1,0,734616.922245251,734617.969273237,8,1,88,8,0
17,606,1104.20387645718,1,0,734620.039930897,734621.086996994,8,1,80,8,4
17,607,601.417144061998,1,0,734623.369433997,734624.416512413,8,1,63,16,16
17,608,712.012193514965,1,1,734626.098971974,734627.145999576,8,0,98,16,0
17,609,2300.62443239149,0,0,734629.028397851,734630.075506679,8,0,89,4,8
17,610,712.969591491856,0,0,734633.557951304,734634.605084385,8,0,81,8,4
17,611,929.343059076928,1,0,734636.440387307,734637.487476116,8,1,61,4,4
17,612,1248.74208879191,0,0,734639.61695966,734640.66404539,8,0,82,4,16
17,613,638.500048429705,0,0,734642.958225628,734644.005314437,8,0,73,16,4
17,614,668.574738549069,1,0,734645.664185901,734646.711275481,8,1,75,0,8
17,615,771.688456879929,1,0,734648.381957162,734649.429057905,8,1,83,8,0
17,616,686.065054847859,0,0,734651.39376122,734652.440853109,8,0,88,0,4
17,617,606.317696976475,1,0,734654.17030986,734655.217398285,8,1,68,8,8
17,618,479.720975272357,0,0,734656.899807032,734657.946901231,8,0,85,0,16
17,619,749.711805372499,1,0,734659.605769615,734660.652851111,8,1,80,0,0
17,620,843.329691677354,1,0,734662.441168007,734663.48822371,8,1,90,8,16
17,621,714.325808919966,1,0,734665.347104336,734666.394191991,8,1,80,16,4
17,622,606.67802055832,1,0,734668.170765269,734669.217809038,8,1,68,8,8
17,623,583.785162190907,1,0,734670.970849652,734672.017888802,8,1,77,4,4
17,624,818.401544704102,0,0,734673.75910996,734674.806201079,8,0,90,0,8
17,625,720.850127399899,0,0,734676.782789294,734677.829813045,8,0,100,16,16
17,626,736.511109163985,1,0,734679.629869711,734680.676948127,8,1,84,0,4
17,627,664.181179134175,0,0,734682.512308408,734683.559393368,8,0,77,8,16
17,628,840.894813532941,1,0,734685.265330159,734686.312420509,8,1,99,8,4
17,629,1038.38710091077,0,0,734688.183060537,734689.230145882,8,0,63,4,0
17,630,746.435017790645,0,0,734691.34785655,734692.394978851,8,0,80,0,8
17,631,992.54787445534,1,0,734694.206761429,734695.253835995,8,1,100,4,0
17,632,1191.27627136186,0,0,734697.453914065,734698.501001335,8,0,95,16,0
17,633,1021.46960643586,1,0,734700.759892971,734701.806978701,8,1,81,8,16
17,634,930.042918073013,0,0,734703.959995678,734705.007086798,8,0,83,0,0
17,635,743.726047454402,0,0,734707.136544934,734708.183634514,8,0,91,8,4
17,636,813.941771979444,0,0,734710.066035485,734711.113136228,8,0,81,8,0
17,637,598.653124296106,0,0,734713.007292752,734714.054443925,8,0,61,0,4
17,638,712.857182952575,1,0,734715.772090459,734716.819170799,8,1,65,16,4
17,639,750.861298991367,0,0,734718.572175997,734719.619262112,8,0,75,4,4
17,640,807.146440958604,1,0,734721.395776491,734722.442868765,8,1,97,16,8
17,641,2258.92584607936,1,0,734757.349753253,734758.396855151,9,1,97,8,16
17,642,1019.60331574082,1,0,734761.844000781,734762.891086511,9,1,64,0,4
17,643,1104.29010761436,0,0,734765.07939594,734766.12647936,9,0,77,8,8
17,644,1302.69282765221,1,0,734768.361847186,734769.408928297,9,1,69,8,4
17,645,1196.12023525406,1,0,734771.785466312,734772.832552812,9,1,90,16,16
17,646,990.695057320409,1,0,734775.126845073,734776.173823014,9,1,89,16,8
17,647,800.89005548507,1,0,734778.291532142,734779.338656368,9,1,63,8,0
17,648,1305.81640091259,0,0,734781.338750684,734782.385772125,9,0,62,0,16
17,649,876.452502678148,1,0,734784.879959215,734785.927044175,9,1,73,0,8
17,650,663.54214400053,0,0,734787.938873255,734788.985958215,9,0,90,16,4
17,651,584.095825557597,0,0,734790.821304253,734791.868392293,9,0,86,4,8
17,652,553.43791958876,1,0,734793.64491822,734794.692008955,9,1,63,0,0
17,653,573.601404787041,1,0,734796.36264983,734797.409729401,9,1,84,4,0
17,654,706.532274372876,0,0,734799.115667731,734800.162749997,9,0,95,0,16
17,655,656.792238471098,0,0,734801.986334322,734803.033412353,9,0,95,16,4
17,656,592.411752324551,0,0,734804.868768014,734805.915853744,9,0,81,0,0
17,657,854.195984778926,0,0,734807.668857017,734808.715945057,9,0,80,8,8
17,658,576.502855634317,0,0,734810.58663975,734811.633665811,9,0,86,0,8
17,659,529.944907058962,0,0,734813.269012311,734814.3161042,9,0,68,0,4
17,660,560.751022887416,0,0,734816.010302376,734817.057365779,9,0,64,8,4
17,661,724.612350808457,1,0,734818.76329795,734819.810380601,9,1,83,0,0
17,662,592.332065338269,0,0,734821.704590249,734822.751634403,9,0,75,8,16
17,663,536.163951386698,0,0,734824.539925892,734825.587014317,9,0,68,8,16
17,664,654.060555505566,1,0,734827.292946873,734828.340035298,9,1,86,4,4
17,665,542.185895610601,1,0,734830.163621933,734831.210702274,9,1,86,16,16
17,666,599.287539953366,1,0,734832.822510335,734833.869604535,9,1,91,8,8
17,667,558.65337071009,1,0,734835.634351042,734836.68144909,9,1,77,8,8
17,668,1305.69629312959,0,0,734838.446202527,734839.493290567,9,0,64,4,4
17,669,537.406990304589,0,0,734841.89336471,734842.940449285,9,0,73,4,0
17,670,618.601801339537,0,0,734844.552257732,734845.599360015,9,0,81,4,16
17,671,659.145889803767,1,0,734847.246464762,734848.293546643,9,1,70,0,0
17,672,834.669224917889,0,0,734850.117137897,734851.164219393,9,0,81,16,4
17,673,545.236711273901,0,0,734853.011366409,734854.058418262,9,0,66,0,8
17,674,865.007998188958,0,0,734855.752591801,734856.799679456,9,0,90,8,0
17,675,658.538806252182,1,0,734858.776203381,734859.823297581,9,1,76,8,4
17,676,630.156019586138,1,0,734861.670406485,734862.71749491,9,1,96,4,8
17,677,603.478994918987,1,0,734864.482253351,734865.529337926,9,1,66,0,8
17,678,823.565026046708,1,0,734867.305950855,734868.352956513,9,1,72,16,8
17,679,994.205901282839,0,0,734870.388309018,734871.435392823,9,0,91,8,16
17,680,726.398954633623,0,0,734873.447219979,734874.494304169,9,0,96,8,8
17,681,581.797608640045,0,0,734876.329652516,734877.376805999,9,0,73,4,4
17,682,741.538314381614,0,0,734878.976795759,734880.023868786,9,0,84,0,4
17,683,642.022056272253,0,0,734881.953342013,734883.000432747,9,0,78,16,0
17,684,590.824558166787,1,0,734884.647612562,734885.6946213,9,1,67,4,0
17,685,647.351070889272,0,0,734887.377030432,734888.424118856,9,0,78,16,0
17,686,662.919277092442,0,0,734890.259452575,734891.306562558,9,0,64,16,16
17,687,778.731317608617,1,0,734893.000719928,734894.047801809,9,1,90,4,4
17,688,593.217090587132,1,0,734896.036105925,734897.083190885,9,1,82,16,8
17,689,575.224400265142,0,0,734898.789126521,734899.836205707,9,0,70,0,8
17,690,548.295996035449,0,0,734901.506844657,734902.553937317,9,0,66,8,4
17,691,601.540716481395,1,0,734904.27163274,734905.31872309,9,1,79,0,0
17,692,535.345524316654,0,0,734907.012882385,734908.059978124,9,0,75,8,4
17,693,433.642687974498,1,0,734909.636491425,734910.68357677,9,1,62,0,4
17,694,561.446262523532,0,0,734912.224802239,734913.271891434,9,0,66,4,0
17,695,632.099687471054,1,0,734914.966056888,734916.013143388,9,1,98,16,4
17,696,640.199266141281,1,0,734917.836731948,734918.883821143,9,1,69,4,8
17,697,706.634673988447,1,0,734920.707398924,734921.754486194,9,1,71,8,0
17,698,1118.03167418111,0,0,734923.483951414,734924.531037529,9,0,85,16,8
17,699,730.948808253743,0,0,734926.778207103,734927.825255107,9,0,87,16,8
17,700,1093.43651833478,0,0,734929.66059999,734930.707677636,9,0,75,4,16
17,701,726.569877355359,0,0,734932.825400622,734933.872483273,9,0,71,8,0
17,702,711.477867676876,1,0,734935.672534934,734936.719623744,9,1,69,0,16
17,703,539.404167793691,0,0,734938.484398353,734939.531471765,9,0,73,4,16
17,704,814.056875184178,0,0,734941.225639144,734942.27272218,9,0,100,16,16
17,705,1040.19372269977,1,0,734944.237491322,734945.284575512,9,1,92,4,8
17,706,847.12502185721,1,0,734947.37882204,734948.425838092,9,1,87,16,16
17,707,991.216679452918,1,0,734950.39060377,734951.43769027,9,1,63,16,0
17,708,1191.34517945349,1,0,734953.602470115,734954.649546606,9,1,74,8,16
17,709,603.525960119441,1,0,734956.979033922,734958.026115418,9,1,95,0,16
17,710,639.124070177786,1,0,734959.814409987,734960.861500721,9,1,96,4,16
17,711,704.409984522499,1,0,734962.579189601,734963.62627687,9,1,72,16,0
17,712,759.536779136397,0,0,734965.54398954,734966.591068341,9,0,61,16,0
17,713,604.49606180191,1,0,734968.544063838,734969.591161502,9,1,74,8,0
17,714,984.407105017453,1,0,734971.403013372,734972.45006176,9,1,67,4,8
17,715,1093.57625909615,1,0,734974.603073734,734975.650153689,9,1,81,0,16
17,716,1099.57510582171,0,0,734977.920815506,734978.967894692,9,0,78,4,16
17,717,781.791372224689,1,0,734981.238591541,734982.285663027,9,1,72,4,4
17,718,673.218522570096,0,0,734984.203349905,734985.25043371,9,0,84,0,4
17,719,1147.9585391935,0,0,734986.956368191,734988.003453151,9,0,82,16,4
17,720,2500,-1,-1,734990.215280615,734991.262369424,9,1,85,4,0
